time_ms,flags,gyro_x,gyro_y,gyro_z,accel_x,accel_y,accel_z,roll,pitch,angle_sp_roll,angle_sp_pitch,angle_err_roll,angle_err_pitch,angle_i_roll,rate_sp_roll,rate_sp_pitch,rate_err_roll,rate_err_pitch,rate_i_roll,pid_roll,pid_pitch,pid_yaw,m1,m2,m3,m4,rc_thr,rc_roll,rc_pitch,battery_mv,loop_us
19418,9,0.08,0.00,0.05,0.018,-0.064,1.004,-0.39,0.67,0.00,0.00,0.39,-0.67,0.00,1.35,-2.33,1.27,-2.34,0.00,0.04,-0.09,-0.92,1000,1000,1000,1000,1035,1500,1515,11125,802
19430,9,0.05,-0.03,-0.01,0.018,-0.063,1.005,-0.36,0.66,0.00,0.00,0.36,-0.66,0.00,1.25,-2.30,1.19,-2.28,0.00,0.04,-0.08,0.05,1100,1100,1100,1100,1035,1500,1515,11125,802
19442,9,2.08,-11.21,-11.04,0.018,-0.063,1.005,-0.33,0.63,0.00,0.00,0.33,-0.63,0.00,1.17,-2.20,-0.91,9.01,0.00,-0.34,2.04,204.34,1100,1100,1100,1100,1035,1500,1515,11125,802
19454,9,0.05,-0.33,-0.29,0.018,-0.064,1.005,-0.34,0.63,0.00,0.00,0.34,-0.63,0.00,1.19,-2.21,1.14,-1.89,0.00,0.10,-0.35,-26.76,1100,1100,1100,1100,1035,1500,1515,11125,802
19466,9,-0.03,-0.03,-0.01,0.018,-0.064,1.004,-0.37,0.64,0.00,0.00,0.37,-0.64,0.00,1.28,-2.24,1.31,-2.21,0.00,0.09,-0.26,-17.09,1100,1100,1100,1100,1033,1500,1515,11125,802
19478,9,0.05,-0.02,-0.03,0.017,-0.065,1.003,-0.40,0.63,0.00,0.00,0.40,-0.63,0.00,1.39,-2.21,1.33,-2.19,0.00,0.06,-0.18,-8.11,1100,1100,1100,1100,1036,1500,1515,11125,802
19490,9,0.07,-0.08,0.09,0.018,-0.065,1.003,-0.41,0.64,0.00,0.00,0.41,-0.64,0.00,1.43,-2.23,1.36,-2.15,0.00,0.05,-0.12,-6.22,1100,1100,1100,1100,1036,1500,1515,11125,802
19502,9,0.00,-0.02,-0.03,0.017,-0.065,1.002,-0.43,0.63,0.00,0.00,0.43,-0.63,0.00,1.50,-2.21,1.50,-2.19,0.00,0.07,-0.11,-1.34,1100,1100,1100,1100,1036,1500,1515,11125,802
19514,9,0.00,-0.03,-0.02,0.018,-0.066,1.002,-0.46,0.64,0.00,0.00,0.46,-0.64,0.00,1.61,-2.23,1.61,-2.19,0.00,0.07,-0.10,-0.92,1100,1100,1100,1100,1036,1500,1515,11125,802
19526,9,0.03,-0.12,0.03,0.019,-0.065,1.003,-0.46,0.66,0.00,0.00,0.46,-0.66,0.00,1.62,-2.30,1.59,-2.18,0.00,0.06,-0.08,-0.84,1100,1100,1100,1100,1036,1500,1515,11120,802
19538,9,0.07,0.03,-0.01,0.019,-0.065,1.003,-0.45,0.69,0.00,0.00,0.45,-0.69,0.00,1.57,-2.41,1.51,-2.44,0.00,0.06,-0.11,-0.22,1100,1100,1100,1100,1036,1500,1515,11104,802
19550,9,0.03,-0.00,0.07,0.018,-0.066,1.004,-0.45,0.68,0.00,0.00,0.45,-0.68,0.00,1.58,-2.39,1.54,-2.39,0.00,0.06,-0.10,-1.22,1100,1100,1100,1100,1036,1500,1515,11112,802
19562,9,-0.01,0.11,-0.05,0.018,-0.066,1.004,-0.48,0.68,0.00,0.00,0.48,-0.68,0.00,1.66,-2.38,1.67,-2.49,0.00,0.07,-0.12,0.84,1100,1100,1100,1100,1033,1500,1515,11112,802
19574,9,0.01,0.02,-0.01,0.018,-0.066,1.004,-0.50,0.68,0.00,0.00,0.50,-0.68,0.00,1.74,-2.39,1.73,-2.42,0.00,0.07,-0.10,0.01,1100,1100,1100,1100,1033,1500,1515,11100,802
19586,9,0.04,-0.01,0.09,0.018,-0.066,1.005,-0.50,0.69,0.00,0.00,0.50,-0.69,0.00,1.74,-2.41,1.70,-2.40,0.00,0.06,-0.10,-1.94,1100,1100,1100,1100,1036,1500,1515,11100,802
19598,9,0.05,0.05,-0.06,0.018,-0.066,1.005,-0.49,0.69,0.00,0.00,0.49,-0.69,0.00,1.72,-2.41,1.67,-2.46,0.00,0.06,-0.11,0.89,1100,1100,1100,1100,1035,1500,1515,11095,802
19610,9,0.07,0.03,-0.07,0.018,-0.065,1.005,-0.47,0.69,0.00,0.00,0.47,-0.69,0.00,1.63,-2.43,1.56,-2.45,0.00,0.06,-0.10,0.47,1100,1100,1100,1100,1035,1500,1515,11095,802
19622,9,0.08,-0.12,0.12,0.018,-0.066,1.006,-0.45,0.69,0.00,0.00,0.45,-0.69,0.00,1.57,-2.43,1.49,-2.30,0.00,0.05,-0.07,-2.43,1100,1100,1100,1100,1035,1500,1515,11095,802
19634,9,-0.03,-0.13,0.09,0.018,-0.065,1.005,-0.45,0.68,0.00,0.00,0.45,-0.68,0.00,1.59,-2.37,1.61,-2.25,0.00,0.06,-0.07,-0.72,1100,1100,1100,1100,1035,1500,1515,11100,802
19646,9,0.19,-0.48,-0.24,0.020,-0.066,1.004,-0.47,0.70,0.00,0.00,0.47,-0.70,0.00,1.64,-2.46,1.45,-1.98,0.00,0.02,-0.02,5.12,1100,1100,1100,1100,1035,1500,1515,11087,802
19658,9,-0.04,0.41,-0.00,0.015,-0.066,1.007,-0.50,0.68,0.00,0.00,0.50,-0.68,0.00,1.77,-2.38,1.81,-2.79,0.00,0.08,-0.19,-1.41,1100,1100,1100,1100,1035,1500,1515,11079,802
19670,9,-0.04,-0.83,0.33,0.016,-0.063,1.007,-0.45,0.61,0.00,0.00,0.45,-0.61,0.00,1.57,-2.14,1.61,-1.31,0.00,0.08,0.11,-5.86,1100,1100,1100,1100,1035,1500,1515,11066,802
19682,9,0.12,-1.76,-0.12,0.023,-0.067,1.002,-0.47,0.71,0.00,0.00,0.47,-0.71,0.00,1.65,-2.48,1.53,-0.72,0.00,0.04,0.24,3.70,1100,1100,1100,1100,1035,1500,1515,11050,802
19694,9,0.28,0.51,-0.25,0.021,-0.067,1.004,-0.50,0.78,0.00,0.00,0.50,-0.78,0.00,1.75,-2.74,1.47,-3.25,0.00,0.01,-0.25,3.28,1100,1100,1100,1100,1035,1500,1515,11041,802
19706,9,0.46,-0.86,0.59,0.036,-0.060,0.997,-0.39,1.02,0.00,0.00,0.39,-1.02,0.00,1.36,-3.56,0.91,-2.70,0.00,-0.02,0.04,-12.67,1100,1100,1100,1100,1035,1500,1515,11050,802
19718,9,0.57,-0.87,0.20,0.046,-0.060,0.981,-0.29,1.61,0.00,0.00,0.29,-1.61,0.00,1.03,-5.62,0.46,-4.75,0.00,-0.04,-0.21,-2.81,1100,1100,1100,1100,1035,1500,1515,11050,802
19730,9,0.94,1.02,-0.12,0.038,-0.062,0.993,-0.35,1.81,0.00,0.00,0.35,-1.81,0.00,1.24,-6.35,0.30,-7.37,0.00,-0.13,-0.59,2.07,1100,1100,1100,1100,1035,1500,1515,11025,802
19742,9,0.45,-0.81,0.05,0.043,-0.061,0.996,-0.29,1.88,0.00,0.00,0.29,-1.88,0.00,1.00,-6.59,0.55,-5.78,0.00,-0.04,-0.20,-1.41,1100,1100,1100,1100,1035,1500,1515,11012,802
19754,9,0.37,-0.08,-0.06,0.021,-0.053,1.014,-0.20,1.50,0.00,0.00,0.20,-1.50,0.00,0.71,-5.24,0.34,-5.16,0.00,-0.04,-0.19,1.32,1100,1100,1100,1100,1035,1500,1515,10979,802
19766,9,-0.70,-2.88,-0.43,0.014,-0.061,1.011,-0.21,1.00,0.00,0.00,0.21,-1.00,0.00,0.73,-3.49,1.44,-0.61,0.00,0.18,0.49,7.88,1100,1100,1100,1100,1035,1500,1515,10966,802
19778,9,-0.37,-1.43,-0.71,0.021,-0.058,1.006,-0.11,0.83,0.00,0.00,0.11,-0.83,0.00,0.38,-2.90,0.76,-1.47,0.00,0.05,0.18,11.38,1100,1100,1100,1100,1035,1500,1515,10937,802
19790,9,0.21,0.98,-0.12,0.020,-0.060,1.001,-0.11,0.67,0.00,0.00,0.11,-0.67,0.00,0.40,-2.35,0.19,-3.33,0.00,-0.06,-0.25,-1.50,1100,1100,1100,1100,1035,1500,1515,10937,802
19802,9,-1.66,0.42,-2.91,0.023,-0.071,1.003,-0.48,0.65,0.00,0.00,0.48,-0.65,0.00,1.69,-2.29,3.35,-2.71,0.00,0.37,-0.18,17.48,1100,1100,1100,1100,1035,1500,1515,10908,802
19814,9,-0.06,-1.37,0.51,0.044,-0.074,0.970,-0.70,1.18,0.00,0.00,0.70,-1.18,0.00,2.43,-4.12,2.49,-2.75,0.00,0.07,-0.03,-33.63,1100,1100,1100,1100,1035,1500,1515,10941,802
19826,9,1.10,3.31,-0.25,0.031,-0.061,0.998,-0.63,1.51,0.00,0.00,0.63,-1.51,0.00,2.20,-5.28,1.11,-8.59,0.00,-0.18,-1.06,-7.65,1100,1100,1100,1100,1035,1500,1515,10946,802
19838,9,-0.30,1.47,-0.89,0.009,-0.060,1.007,-0.43,0.95,0.00,0.00,0.43,-0.95,0.00,1.51,-3.32,1.82,-4.79,0.00,0.12,-0.18,9.32,1100,1100,1100,1100,1036,1500,1514,10950,802
19850,9,0.56,1.27,-0.40,0.011,-0.047,1.019,-0.04,0.58,0.00,0.00,0.04,-0.58,0.00,0.13,-2.04,-0.43,-3.31,0.00,-0.11,-0.07,-1.26,1100,1100,1100,1100,1036,1500,1514,10962,802
19862,9,-0.40,-0.40,0.87,0.013,-0.048,1.028,0.29,0.41,0.00,0.00,-0.29,-0.41,0.00,-1.02,-1.45,-0.62,-1.05,0.00,0.09,0.30,-18.66,1100,1100,1100,1100,1036,1500,1514,10962,802
19874,9,-0.26,-1.41,0.03,0.009,-0.057,1.022,0.24,0.36,0.00,0.00,-0.24,-0.36,0.00,-0.85,-1.27,-0.59,0.15,0.00,0.04,0.31,4.91,1100,1100,1100,1100,1036,1500,1514,10958,802
19886,9,-0.23,1.57,-2.00,-0.013,-0.058,1.021,0.10,-0.20,0.00,0.00,-0.10,0.20,0.00,-0.35,0.69,-0.12,-0.89,0.00,0.01,-0.28,32.48,1100,1100,1100,1100,1033,1500,1516,10954,802
19898,9,1.60,0.80,1.58,0.021,-0.049,1.023,0.28,-0.13,0.00,0.00,-0.28,0.13,0.00,-0.97,0.46,-2.57,-0.34,0.00,-0.30,0.01,-39.40,1100,1100,1100,1100,1038,1500,1515,10971,802
19910,9,-1.81,-2.98,1.40,0.036,-0.072,1.014,-0.12,0.82,0.00,0.00,0.12,-0.82,0.00,0.41,-2.89,2.23,0.10,0.00,0.40,0.38,-15.52,1100,1100,1100,1100,1038,1500,1515,10979,802
19922,9,0.78,2.30,-2.52,-0.004,-0.057,0.999,-0.14,0.40,0.00,0.00,0.14,-0.40,0.00,0.50,-1.40,-0.28,-3.70,0.00,-0.21,-0.65,49.75,1100,1100,1100,1100,1034,1500,1515,10975,802
19934,9,0.11,-3.02,1.18,0.044,-0.063,1.001,-0.05,0.79,0.00,0.00,0.05,-0.79,0.00,0.18,-2.78,0.08,0.24,0.00,0.05,0.54,-31.61,1100,1100,1100,1100,1034,1500,1515,10987,802
19946,9,-2.59,-2.66,0.78,0.035,-0.079,0.999,-0.60,1.51,0.00,0.00,0.60,-1.51,0.00,2.11,-5.28,4.70,-2.62,0.00,0.58,0.15,-7.42,1100,1100,1100,1100,1034,1500,1515,10979,802
19958,9,1.76,0.84,-0.81,0.024,-0.052,1.000,-0.33,1.12,0.00,0.00,0.33,-1.12,0.00,1.14,-3.91,-0.61,-4.75,0.00,-0.35,-0.37,16.63,1100,1100,1100,1100,1034,1500,1515,11000,802
19970,9,-8.35,-11.00,-10.96,0.048,-0.081,1.003,-0.57,1.52,0.00,0.00,0.57,-1.52,0.00,1.99,-5.31,10.34,5.69,0.00,1.74,1.94,202.48,1100,1100,1100,1100,1034,1500,1515,10987,802
19982,9,-1.45,1.67,-0.77,0.013,-0.074,1.011,-0.92,1.22,0.00,0.00,0.92,-1.22,0.00,3.22,-4.28,4.66,-5.95,0.00,0.09,-0.77,-22.69,1100,1100,1100,1100,1035,1500,1515,10996,802
19994,9,1.60,-0.91,1.85,0.034,-0.061,1.012,-0.59,1.20,0.00,0.00,0.59,-1.20,0.00,2.05,-4.20,0.45,-3.29,0.00,-0.40,-0.15,-48.92,1100,1100,1100,1100,1035,1500,1515,10991,802
20006,9,-0.69,1.63,-1.80,0.015,-0.073,1.004,-0.74,1.15,0.00,0.00,0.74,-1.15,0.00,2.60,-4.01,3.29,-5.64,0.00,0.18,-0.71,29.22,1100,1100,1100,1100,1034,1500,1515,10987,802
20018,9,-1.15,-1.18,0.38,0.010,-0.073,1.030,-0.71,0.66,0.00,0.00,0.71,-0.66,0.00,2.48,-2.30,3.63,-1.12,0.00,0.29,0.26,-18.56,1100,1100,1100,1100,1034,1500,1515,10987,802
20030,9,0.89,1.95,-0.32,-0.020,-0.071,1.025,-0.75,-0.04,0.00,0.00,0.75,0.04,0.00,2.62,0.13,1.73,-1.82,0.00,-0.16,-0.31,1.33,1100,1100,1100,1100,1034,1500,1515,10983,802
20042,9,0.59,-0.93,1.32,0.014,-0.056,1.021,-0.45,-0.10,0.00,0.00,0.45,0.10,0.00,1.58,0.37,0.99,1.29,0.00,-0.05,0.35,-25.60,1100,1100,1100,1100,1034,1500,1515,10979,802
20054,9,-1.63,-6.07,-1.45,0.016,-0.075,0.993,-0.59,0.27,0.00,0.00,0.59,-0.27,0.00,2.07,-0.95,3.69,5.12,0.00,0.43,1.09,31.38,1100,1100,1100,1100,1034,1500,1515,10991,802
20066,9,2.15,1.69,0.48,0.014,-0.038,1.000,-0.13,0.30,0.00,0.00,0.13,-0.30,0.00,0.46,-1.04,-1.69,-2.73,0.00,-0.45,-0.50,-14.89,1100,1100,1100,1100,1034,1500,1515,10996,802
20078,9,-0.67,-4.75,-0.07,0.028,-0.064,0.998,-0.01,0.71,0.00,0.00,0.01,-0.71,0.00,0.02,-2.49,0.69,2.26,0.00,0.23,0.71,2.25,1100,1100,1100,1100,1043,1500,1515,10996,802
20090,9,0.51,-1.47,0.39,0.038,-0.052,0.991,-0.00,1.07,0.00,0.00,0.00,-1.07,0.00,0.01,-3.73,-0.51,-2.25,0.00,-0.10,0.01,-8.49,1100,1100,1100,1100,1043,1500,1515,11000,802
20102,9,-0.83,-2.62,-0.72,0.031,-0.069,0.985,-0.23,1.40,0.00,0.00,0.23,-1.40,0.00,0.79,-4.90,1.63,-2.28,0.00,0.21,0.08,15.05,1100,1100,1100,1100,1034,1500,1515,10996,802
20114,9,0.55,0.75,0.52,0.036,-0.051,0.994,-0.17,1.39,0.00,0.00,0.17,-1.39,0.00,0.61,-4.88,0.06,-5.62,0.00,-0.09,-0.41,-13.54,1100,1100,1100,1100,1034,1500,1515,11000,802
20126,9,-1.38,-0.00,-0.54,0.030,-0.074,0.995,-0.36,1.63,0.00,0.00,0.36,-1.63,0.00,1.27,-5.69,2.65,-5.69,0.00,0.37,-0.25,14.14,1100,1100,1100,1100,1034,1500,1515,11016,802
20138,9,0.45,0.69,0.40,0.029,-0.049,1.007,-0.15,1.39,0.00,0.00,0.15,-1.39,0.00,0.52,-4.86,0.06,-5.55,0.00,-0.10,-0.13,-10.05,1100,1100,1100,1100,1034,1500,1515,11016,802
20150,9,-1.10,-0.52,-0.78,0.023,-0.065,0.990,-0.08,1.30,0.00,0.00,0.08,-1.30,0.00,0.29,-4.56,1.39,-4.04,0.00,0.28,0.11,16.15,1100,1100,1100,1100,1034,1500,1515,11021,802
20162,9,-0.18,0.15,0.25,0.037,-0.054,0.992,-0.01,1.27,0.00,0.00,0.01,-1.27,0.00,0.05,-4.46,0.22,-4.60,0.00,0.04,-0.02,-8.27,1100,1100,1100,1100,1034,1500,1515,11004,802
20174,9,-0.57,1.40,-0.33,0.007,-0.072,1.013,-0.23,1.05,0.00,0.00,0.23,-1.05,0.00,0.81,-3.68,1.38,-5.07,0.00,0.14,-0.32,6.18,1100,1100,1100,1100,1034,1500,1515,11004,802
20186,9,3.41,1.78,0.60,0.018,-0.056,1.012,-0.04,0.76,0.00,0.00,0.04,-0.76,0.00,0.14,-2.64,-3.27,-4.43,0.00,-0.69,-0.41,-13.60,1100,1100,1100,1100,1035,1501,1515,11008,802
20198,9,-0.54,0.31,-0.07,0.005,-0.082,1.011,-0.57,0.56,0.00,0.00,0.57,-0.56,0.00,1.98,-1.94,2.52,-2.25,0.00,0.20,-0.03,4.21,1100,1100,1100,1100,1033,1500,1515,11008,802
20210,9,1.74,-4.04,-0.42,0.021,-0.053,1.007,-0.38,0.64,0.00,0.00,0.38,-0.64,0.00,1.32,-2.23,-0.41,1.81,0.00,-0.32,0.74,5.13,1100,1100,1100,1100,1033,1500,1515,11012,802
20222,9,0.10,-0.41,-0.19,-0.013,-0.080,1.018,-0.72,0.20,0.00,0.00,0.72,-0.20,0.00,2.52,-0.70,2.42,-0.29,0.00,0.09,0.09,7.17,1100,1100,1100,1100,1033,1500,1515,11004,802
20234,9,0.00,-0.15,-0.32,-0.006,-0.063,1.054,-0.46,-0.45,0.00,0.00,0.46,0.45,0.00,1.61,1.59,1.61,1.74,0.00,0.08,0.42,3.92,1100,1100,1100,1100,1033,1500,1515,10996,802
20246,9,0.13,4.76,-1.19,-0.024,-0.046,1.049,-0.15,-1.10,0.00,0.00,0.15,1.10,0.00,0.54,3.86,0.41,-0.90,0.00,-0.02,-0.50,20.73,1100,1100,1100,1100,1033,1500,1515,10996,802
20258,9,1.47,2.64,1.03,-0.008,-0.062,1.050,0.12,-1.02,0.00,0.00,-0.12,1.02,0.00,-0.43,3.58,-1.90,0.95,0.00,-0.24,-0.07,-27.39,1100,1100,1100,1100,1033,1500,1515,10987,802
20270,9,-1.31,1.28,-1.36,-0.011,-0.057,1.035,-0.14,-1.05,0.00,0.00,0.14,1.05,0.00,0.51,3.68,1.82,2.40,0.00,0.31,0.16,23.32,1100,1100,1100,1100,1033,1500,1515,10996,802
20282,9,-1.64,-4.31,1.51,0.015,-0.075,1.019,-0.18,-0.47,0.00,0.00,0.18,0.47,0.00,0.62,1.66,2.26,5.97,0.00,0.38,1.09,-33.00,1100,1100,1100,1100,1033,1500,1515,10987,802
20294,9,-0.05,1.85,-1.24,0.007,-0.059,1.010,-0.28,-0.36,0.00,0.00,0.28,0.36,0.00,0.97,1.26,1.01,-0.59,0.00,-0.01,-0.42,23.03,1100,1100,1100,1100,1033,1500,1515,11000,802
20306,9,1.30,0.76,1.55,0.008,-0.070,1.020,-0.19,-0.01,0.00,0.00,0.19,0.01,0.00,0.66,0.05,-0.64,-0.71,0.00,-0.20,-0.16,-30.00,1100,1100,1100,1100,1033,1500,1515,11000,802
20318,9,-1.22,3.66,-0.74,-0.003,-0.068,1.036,-0.50,-0.23,0.00,0.00,0.50,0.23,0.00,1.74,0.80,2.96,-2.86,0.00,0.26,-0.61,10.81,1100,1100,1100,1100,1033,1500,1515,10996,802
20330,9,-0.05,3.51,0.58,-0.026,-0.084,1.051,-0.94,-0.58,0.00,0.00,0.94,0.58,0.00,3.28,2.02,3.33,-1.49,0.00,0.08,-0.25,-8.73,1100,1100,1100,1100,1033,1500,1515,10996,802
20342,9,-0.58,0.82,0.06,-0.004,-0.084,1.035,-1.09,-0.85,0.00,0.00,1.09,0.85,0.00,3.80,2.97,4.38,2.15,0.00,0.22,0.31,-2.50,1100,1100,1100,1100,1033,1500,1515,10996,802
20354,9,-1.54,-0.42,-0.01,-0.015,-0.092,1.021,-1.45,-0.84,0.00,0.00,1.45,0.84,0.00,5.08,2.94,6.62,3.37,0.00,0.50,0.42,5.58,1100,1100,1100,1100,1033,1500,1515,11004,802
20366,9,-0.85,-1.01,-0.68,0.004,-0.077,1.026,-1.34,-0.74,0.00,0.00,1.34,0.74,0.00,4.70,2.60,5.55,3.62,0.00,0.29,0.45,8.61,1100,1100,1100,1100,1033,1500,1515,11008,802
20379,9,-0.92,-1.07,-0.13,-0.011,-0.079,1.024,-1.06,-0.81,0.00,0.00,1.06,0.81,0.00,3.72,2.83,4.64,3.91,0.00,0.35,0.45,4.33,1100,1100,1100,1100,1033,1500,1515,10991,802
20390,9,2.69,-0.93,1.13,0.035,-0.076,0.998,-0.82,0.08,0.00,0.00,0.82,-0.08,0.00,2.88,-0.29,0.19,0.64,0.00,-0.44,0.12,-23.78,1100,1100,1100,1100,1033,1500,1515,11004,802
20402,9,0.83,3.69,-1.33,-0.000,-0.075,1.034,-0.94,0.29,0.00,0.00,0.94,-0.29,0.00,3.27,-1.01,2.44,-4.70,0.00,-0.05,-0.80,27.42,1100,1100,1100,1100,1037,1500,1515,10996,802
20414,9,3.02,0.60,0.87,-0.025,-0.053,1.041,-0.56,-0.34,0.00,0.00,0.56,0.34,0.00,1.95,1.18,-1.07,0.59,0.00,-0.59,-0.03,-19.99,1100,1100,1100,1100,1037,1500,1515,11008,802
20426,9,-3.06,-6.21,-1.29,-0.014,-0.079,1.028,-0.85,-0.86,0.00,0.00,0.85,0.86,0.00,2.97,3.02,6.03,9.23,0.00,0.73,1.47,26.04,1100,1100,1100,1100,1033,1500,1515,11012,802
20438,9,0.13,-3.28,0.79,0.011,-0.090,1.007,-0.95,-0.61,0.00,0.00,0.95,0.61,0.00,3.33,2.14,3.20,5.42,0.00,0.09,0.73,-16.33,1100,1100,1100,1100,1033,1500,1515,11000,802
20450,9,-0.03,1.21,-0.76,-0.008,-0.060,1.021,-0.87,-0.70,0.00,0.00,0.87,0.70,0.00,3.06,2.47,3.09,1.25,0.00,0.09,-0.27,13.24,1100,1100,1100,1100,1033,1500,1515,11004,802
20462,9,-0.21,-2.23,1.39,0.029,-0.084,1.010,-0.87,-0.08,0.00,0.00,0.87,0.08,0.00,3.05,0.27,3.26,2.50,0.00,0.20,0.37,-25.03,1100,1100,1100,1100,1033,1500,1515,11008,802
20474,9,-1.04,0.17,-0.92,0.012,-0.064,0.985,-0.67,0.11,0.00,0.00,0.67,-0.11,0.00,2.36,-0.39,3.40,-0.56,0.00,0.30,-0.12,18.80,1100,1100,1100,1100,1033,1500,1515,11021,802
20486,9,0.06,-3.03,1.08,0.015,-0.075,1.014,-0.81,0.42,0.00,0.00,0.81,-0.42,0.00,2.84,-1.48,2.78,1.56,0.00,0.09,0.31,-17.60,1100,1100,1100,1100,1032,1500,1515,11000,802
20498,9,-0.02,6.57,-0.81,-0.039,-0.060,1.034,-0.59,-0.75,0.00,0.00,0.59,0.75,0.00,2.06,2.63,2.09,-3.94,0.00,0.03,-1.09,13.46,1100,1100,1100,1100,1032,1500,1515,11000,802
20510,9,-1.01,0.88,-1.03,-0.046,-0.061,1.059,-0.37,-1.48,0.00,0.00,0.37,1.48,0.00,1.30,5.19,2.31,4.31,0.00,0.28,0.29,19.90,1100,1100,1100,1100,1032,1500,1515,11000,802
20522,9,1.42,1.16,-0.14,-0.037,-0.052,1.034,0.03,-2.17,0.00,0.00,-0.03,2.17,0.00,-0.10,7.59,-1.52,6.43,0.00,-0.30,0.38,-4.60,1100,1100,1100,1100,1032,1500,1515,11008,802
20534,9,1.91,0.29,-0.17,-0.048,-0.046,1.029,0.45,-2.28,0.00,0.00,-0.45,2.28,0.00,-1.57,7.96,-3.48,7.68,0.00,-0.41,0.34,0.92,1100,1100,1100,1100,1032,1500,1515,10996,802
20546,9,2.08,-2.03,0.84,-0.017,-0.059,1.026,0.28,-1.88,0.00,0.00,-0.28,1.88,0.00,-0.98,6.57,-3.06,8.60,0.00,-0.43,0.60,-19.83,1100,1100,1100,1100,1032,1500,1515,11000,802
20558,9,-5.55,4.48,-1.52,-0.074,-0.075,1.050,-0.31,-2.54,0.00,0.00,0.31,2.54,0.00,1.07,8.88,6.62,4.40,0.00,1.11,-0.46,29.76,1100,1100,1100,1100,1032,1500,1515,10996,802
20570,9,-1.47,-2.03,0.65,-0.025,-0.069,1.036,-0.34,-2.66,0.00,0.00,0.34,2.66,0.00,1.20,9.29,2.67,11.33,0.00,0.31,1.12,-13.02,1100,1100,1100,1100,1032,1500,1515,10987,802
20582,9,1.64,3.79,-0.63,-0.021,-0.077,1.005,-0.72,-2.48,0.00,0.00,0.72,2.48,0.00,2.52,8.66,0.87,4.88,0.00,-0.28,-0.16,10.40,1100,1100,1100,1100,1032,1500,1515,10991,802
20594,9,2.17,-1.58,1.31,0.031,-0.071,1.002,-0.56,-0.86,0.00,0.00,0.56,0.86,0.00,1.95,3.02,-0.23,4.59,0.00,-0.34,0.35,-26.85,1100,1100,1100,1100,1032,1500,1515,10991,802
20606,9,-1.88,4.87,-0.24,-0.015,-0.064,1.028,-0.91,-0.72,0.00,0.00,0.91,0.72,0.00,3.19,2.52,5.07,-2.35,0.00,0.48,-0.70,3.06,1100,1100,1100,1100,1032,1500,1515,10979,802
20618,9,-2.23,4.44,0.48,-0.040,-0.086,1.056,-0.91,-1.20,0.00,0.00,0.91,1.20,0.00,3.20,4.19,5.43,-0.25,0.00,0.58,-0.32,-7.16,1100,1100,1100,1100,1032,1500,1515,10991,802
20630,9,-0.26,0.84,-0.62,-0.030,-0.062,1.056,-0.66,-1.81,0.00,0.00,0.66,1.81,0.00,2.32,6.34,2.57,5.50,0.00,0.13,0.58,10.66,1100,1100,1100,1100,1032,1500,1515,10996,802
20642,9,1.15,1.66,-0.34,-0.039,-0.071,1.060,-0.36,-2.04,0.00,0.00,0.36,2.04,0.00,1.27,7.14,0.12,5.48,0.00,-0.12,0.47,3.73,1100,1100,1100,1100,1032,1500,1515,10991,802
20654,9,2.30,4.23,0.39,-0.039,-0.055,1.056,-0.04,-2.15,0.00,0.00,0.04,2.15,0.00,0.16,7.54,-2.14,3.31,0.00,-0.44,-0.18,-9.64,1100,1100,1100,1100,1032,1500,1515,10991,802
20666,9,1.06,-1.89,0.72,-0.027,-0.071,1.048,-0.27,-1.97,0.00,0.00,0.27,1.97,0.00,0.94,6.90,-0.12,8.79,0.00,-0.15,0.88,-9.29,1100,1100,1100,1100,1032,1500,1515,10987,802
20678,9,-0.93,1.13,-0.40,-0.007,-0.064,1.039,-0.19,-1.37,0.00,0.00,0.19,1.37,0.00,0.67,4.81,1.60,3.68,0.00,0.24,0.06,7.89,1100,1100,1100,1100,1032,1500,1515,10996,802
20690,9,-1.49,-2.59,-0.76,-0.014,-0.082,1.014,-0.78,-1.20,0.00,0.00,0.78,1.20,0.00,2.72,4.19,4.21,6.77,0.00,0.41,0.72,17.72,1100,1100,1100,1100,1032,1500,1515,10987,802
20702,9,1.90,1.29,1.31,-0.005,-0.083,1.044,-0.77,-1.00,0.00,0.00,0.77,1.00,0.00,2.69,3.50,0.79,2.21,0.00,-0.30,-0.03,-27.22,1100,1100,1100,1100,1032,1500,1515,10996,802
20714,9,-0.74,1.50,-0.50,-0.017,-0.069,1.032,-0.96,-1.04,0.00,0.00,0.96,1.04,0.00,3.34,3.65,4.09,2.14,0.00,0.20,-0.21,12.80,1100,1100,1100,1100,1032,1500,1515,10991,802
20726,9,0.27,-4.55,1.26,0.018,-0.072,1.009,-0.78,-0.66,0.00,0.00,0.78,0.66,0.00,2.73,2.31,2.46,6.87,0.00,0.07,1.13,-26.24,1100,1100,1100,1100,1032,1500,1515,11000,802
20738,9,-0.84,-2.62,-1.61,0.040,-0.060,0.979,-0.82,0.34,0.00,0.00,0.82,-0.34,0.00,2.88,-1.20,3.73,1.41,0.00,0.26,0.17,29.04,1100,1100,1100,1100,1032,1500,1515,11000,802
20750,9,0.40,-7.84,1.52,0.085,-0.064,0.942,-0.54,2.10,0.00,0.00,0.54,-2.10,0.00,1.89,-7.33,1.49,0.51,0.00,0.06,0.78,-27.69,1100,1100,1100,1100,1032,1500,1515,11004,802
20762,9,0.80,-0.60,-0.24,0.068,-0.043,0.962,-0.06,2.92,0.00,0.00,0.06,-2.92,0.00,0.21,-10.21,-0.59,-9.61,0.00,-0.14,-0.95,4.24,1100,1100,1100,1100,1034,1500,1515,11012,802
20774,9,0.70,1.91,0.07,0.023,-0.053,0.992,0.06,2.42,0.00,0.00,-0.06,-2.42,0.00,-0.22,-8.48,-0.93,-10.40,0.00,-0.09,-1.05,3.34,1100,1100,1100,1100,1034,1500,1515,11004,802
20786,9,-1.59,2.73,-0.39,0.015,-0.048,1.012,0.13,1.59,0.00,0.00,-0.13,-1.59,0.00,-0.44,-5.55,1.14,-8.28,0.00,0.32,-0.85,2.27,1100,1100,1100,1100,1033,1500,1515,11012,802
20798,9,-1.56,-2.05,-0.52,0.004,-0.069,1.016,-0.03,0.86,0.00,0.00,0.03,-0.86,0.00,0.12,-3.02,1.68,-0.97,0.00,0.33,0.30,9.10,1100,1100,1100,1100,1032,1500,1515,11008,802
20810,9,3.84,-0.30,1.62,0.042,-0.042,0.995,0.43,1.07,0.00,0.00,-0.43,-1.07,0.00,-1.50,-3.75,-5.34,-3.45,0.00,-0.84,-0.10,-32.56,1100,1100,1100,1100,1032,1500,1515,11016,802
20822,9,1.31,2.61,-0.78,0.015,-0.066,0.997,-0.02,1.18,0.00,0.00,0.02,-1.18,0.00,0.05,-4.15,-1.26,-6.76,0.00,-0.25,-0.80,21.24,1100,1100,1100,1100,1033,1500,1515,11012,802
20834,9,2.58,-2.66,0.04,0.026,-0.053,1.007,0.10,1.24,0.00,0.00,-0.10,-1.24,0.00,-0.35,-4.34,-2.93,-1.69,0.00,-0.51,0.47,-1.84,1100,1100,1100,1100,1033,1500,1515,11008,802
20846,9,-2.61,-2.70,-1.08,0.008,-0.048,1.028,-0.12,0.62,0.00,0.00,0.12,-0.62,0.00,0.41,-2.16,3.02,0.54,0.00,0.57,0.79,16.86,1100,1100,1100,1100,1033,1500,1515,10991,802
20858,9,-2.61,-2.97,1.27,0.018,-0.082,1.035,-0.38,0.57,0.00,0.00,0.38,-0.57,0.00,1.33,-1.99,3.94,0.98,0.00,0.61,0.78,-23.59,1100,1100,1100,1100,1033,1500,1515,10991,802
20870,9,0.34,1.15,-0.39,0.006,-0.053,0.998,-0.18,0.12,0.00,0.00,0.18,-0.12,0.00,0.63,-0.42,0.29,-1.57,0.00,-0.08,-0.11,9.83,1100,1100,1100,1100,1033,1500,1515,10996,802
20882,9,1.91,2.12,1.09,0.029,-0.060,1.000,-0.04,0.53,0.00,0.00,0.04,-0.53,0.00,0.15,-1.86,-1.76,-3.97,0.00,-0.32,-0.52,-17.29,1100,1100,1100,1100,1033,1500,1515,11004,802
20894,9,0.86,0.80,-0.03,0.052,-0.053,0.971,-0.04,1.35,0.00,0.00,0.04,-1.35,0.00,0.12,-4.72,-0.73,-5.52,0.00,-0.17,-0.45,-2.54,1100,1100,1100,1100,1033,1500,1515,10996,802
20906,9,-1.10,-6.41,0.81,0.074,-0.071,0.966,-0.23,2.65,0.00,0.00,0.23,-2.65,0.00,0.80,-9.26,1.90,-2.85,0.00,0.32,0.73,-9.74,1100,1100,1100,1100,1053,1500,1515,10996,802
20918,9,-1.01,0.43,-0.28,0.060,-0.077,0.973,-0.62,2.99,0.00,0.00,0.62,-2.99,0.00,2.16,-10.45,3.17,-10.88,0.00,0.27,-0.68,7.29,1100,1100,1100,1100,1033,1500,1515,10991,802
20930,9,-0.08,4.14,-0.71,0.019,-0.094,0.986,-1.18,2.48,0.00,0.00,1.18,-2.48,0.00,4.11,-8.69,4.20,-12.84,0.00,0.12,-1.22,50.84,1100,1100,1100,1100,1033,1500,1515,10987,803
20942,9,3.42,5.66,1.09,-0.007,-0.075,1.043,-1.22,1.13,0.00,0.00,1.22,-1.13,0.00,4.29,-3.95,0.86,-9.61,0.00,-0.56,-1.01,24.13,1100,1100,1100,1100,1033,1500,1515,11004,803
20954,9,-1.01,5.17,-0.97,-0.047,-0.081,1.048,-1.35,-0.43,0.00,0.00,1.35,0.43,0.00,4.72,1.52,5.73,-3.65,0.00,0.35,-0.54,68.62,1100,1100,1100,1100,1033,1500,1515,11004,803
20966,9,-2.30,1.43,1.06,-0.031,-0.088,1.074,-1.21,-1.32,0.00,0.00,1.21,1.32,0.00,4.24,4.62,6.54,3.19,0.00,0.67,0.50,29.30,1100,1100,1100,1100,1033,1500,1515,10991,803
20978,9,-0.03,2.66,-0.41,-0.038,-0.078,1.058,-1.24,-1.99,0.00,0.00,1.24,1.99,0.00,4.33,6.98,4.36,4.32,0.00,0.15,0.25,55.94,1100,1100,1100,1100,1033,1500,1515,10991,803
20990,9,0.28,2.57,1.03,-0.008,-0.086,1.049,-1.14,-1.39,0.00,0.00,1.14,1.39,0.00,3.98,4.87,3.70,2.29,0.00,0.12,-0.05,37.35,1100,1100,1100,1100,1033,1500,1515,10991,803
21002,9,-0.21,-0.60,-0.53,0.015,-0.079,1.025,-1.22,-0.93,0.00,0.00,1.22,0.93,0.00,4.28,3.26,4.50,3.86,0.00,0.20,0.56,60.19,1100,1100,1100,1100,1036,1500,1515,10996,803
21014,9,-1.33,2.59,-0.14,-0.005,-0.084,1.030,-1.18,-0.40,0.00,0.00,1.18,0.40,0.00,4.13,1.40,5.47,-1.19,0.00,0.43,-0.35,57.40,1100,1100,1100,1100,1036,1500,1515,10987,803
21026,9,-0.50,-2.18,-0.62,0.032,-0.070,1.020,-1.17,0.04,0.00,0.00,1.17,-0.04,0.00,4.09,-0.14,4.59,2.04,0.00,0.22,0.63,65.29,1100,1100,1100,1100,1033,1500,1515,10996,803
21038,9,1.49,-0.43,-0.16,0.038,-0.085,0.981,-1.22,0.92,0.00,0.00,1.22,-0.92,0.00,4.29,-3.24,2.80,-2.81,0.00,-0.14,0.00,57.77,1100,1100,1100,1100,1033,1500,1515,10991,803
21050,9,1.66,-1.47,0.36,0.070,-0.057,0.977,-0.73,2.05,0.00,0.00,0.73,-2.05,0.00,2.56,-7.18,0.90,-5.71,0.00,-0.24,-0.08,18.35,1100,1100,1100,1100,1033,1500,1515,10996,803
21062,9,-1.15,-3.68,-0.36,0.073,-0.062,0.953,-0.70,3.10,0.00,0.00,0.70,-3.10,0.00,2.44,-10.86,3.58,-7.17,0.00,0.38,0.00,36.75,1100,1100,1100,1100,1033,1500,1515,10996,803
21074,9,-0.31,-2.56,0.07,0.084,-0.056,0.958,-0.28,3.76,0.00,0.00,0.28,-3.76,0.00,0.97,-13.16,1.28,-10.61,0.00,0.14,-0.20,25.59,1100,1100,1100,1100,1033,1500,1515,10987,803
21086,9,-1.51,-5.56,-0.69,0.073,-0.062,0.951,-0.32,3.84,0.00,0.00,0.32,-3.84,0.00,1.11,-13.43,2.61,-7.87,0.00,0.40,0.34,13.95,1100,1100,1100,1100,1032,1500,1515,10987,803
21098,9,1.37,-1.44,1.33,0.060,-0.067,0.975,-0.30,3.56,0.00,0.00,0.30,-3.56,0.00,1.06,-12.46,-0.30,-11.02,0.00,-0.20,-0.45,-26.12,1100,1100,1100,1100,1034,1501,1515,10991,803
21110,9,-1.26,4.38,-1.54,0.018,-0.058,1.007,-0.43,2.50,0.00,0.00,0.43,-2.50,0.00,1.51,-8.76,2.77,-13.14,0.00,0.29,-1.36,30.83,1100,1100,1100,1100,1034,1501,1515,10987,803
21122,9,-0.03,3.46,0.98,0.004,-0.085,1.030,-0.70,1.44,0.00,0.00,0.70,-1.44,0.00,2.44,-5.03,2.47,-8.49,0.00,0.11,-0.68,-19.05,1100,1100,1100,1100,1032,1500,1515,10983,803
21134,9,-0.09,2.31,-1.20,-0.008,-0.062,1.030,-0.62,0.18,0.00,0.00,0.62,-0.18,0.00,2.16,-0.62,2.26,-2.93,0.00,0.06,-0.12,19.49,1100,1100,1100,1100,1032,1500,1515,10979,802
21146,9,-0.76,-2.15,1.25,0.004,-0.077,1.031,-0.63,-0.01,0.00,0.00,0.63,0.01,0.00,2.19,0.03,2.95,2.18,0.00,0.31,0.68,-20.90,1100,1100,1100,1100,1032,1500,1515,10979,802
21158,9,-0.01,1.61,0.10,0.016,-0.067,1.012,-0.55,0.09,0.00,0.00,0.55,-0.09,0.00,1.92,-0.31,1.92,-1.92,0.00,0.05,-0.27,-6.69,1100,1100,1100,1100,1032,1500,1515,10983,802
21170,9,0.64,-2.09,-0.55,0.043,-0.081,0.980,-0.65,0.86,0.00,0.00,0.65,-0.86,0.00,2.28,-3.03,1.64,-0.94,0.00,-0.03,0.19,14.01,1100,1100,1100,1100,1032,1500,1515,10979,802
21182,9,4.01,3.58,1.50,0.041,-0.066,1.004,-0.61,1.56,0.00,0.00,0.61,-1.56,0.00,2.14,-5.46,-1.87,-9.05,0.00,-0.74,-1.06,-34.84,1100,1100,1100,1100,1032,1500,1515,10987,802
21194,9,-1.01,1.17,-1.13,0.004,-0.060,1.014,-0.73,1.17,0.00,0.00,0.73,-1.17,0.00,2.57,-4.09,3.58,-5.26,0.00,0.31,-0.30,24.84,1100,1100,1100,1100,1032,1500,1515,10979,802
21206,9,-0.76,-1.74,0.94,0.028,-0.060,1.018,-0.34,1.06,0.00,0.00,0.34,-1.06,0.00,1.19,-3.73,1.94,-1.99,0.00,0.27,0.40,-15.31,1100,1100,1100,1100,1034,1500,1515,10975,802
21218,9,-1.41,-0.92,-1.56,0.022,-0.069,1.002,-0.51,0.89,0.00,0.00,0.51,-0.89,0.00,1.78,-3.11,3.19,-2.19,0.00,0.37,0.16,30.14,1100,1100,1100,1100,1032,1500,1515,10983,802
21230,9,1.88,-0.58,1.58,0.025,-0.060,1.010,-0.22,0.83,0.00,0.00,0.22,-0.83,0.00,0.78,-2.89,-1.10,-2.31,0.00,-0.33,0.12,-31.19,1100,1100,1100,1100,1032,1500,1515,10996,802
21242,9,-0.34,0.40,-0.19,0.013,-0.055,0.996,-0.27,0.67,0.00,0.00,0.27,-0.67,0.00,0.93,-2.34,1.27,-2.74,0.00,0.10,-0.30,2.13,1100,1100,1100,1100,1032,1500,1515,10991,802
21254,9,-0.73,0.70,0.34,0.016,-0.082,1.018,-0.45,0.71,0.00,0.00,0.45,-0.71,0.00,1.57,-2.49,2.29,-3.19,0.00,0.23,-0.34,-2.24,1100,1100,1100,1100,1032,1500,1515,10991,802
21266,9,-0.49,-0.29,-0.26,0.014,-0.053,0.992,-0.45,0.26,0.00,0.00,0.45,-0.26,0.00,1.59,-0.90,2.08,-0.61,0.00,0.15,0.05,2.00,1100,1100,1100,1100,1032,1500,1515,10987,802
21278,9,-0.38,-6.82,0.76,0.063,-0.073,0.956,-0.48,1.35,0.00,0.00,0.48,-1.35,0.00,1.69,-4.71,2.08,2.11,0.00,0.20,0.98,-13.03,1100,1100,1100,1100,1040,1500,1515,10987,802
21290,9,1.04,0.92,0.04,0.059,-0.054,0.961,-0.36,2.19,0.00,0.00,0.36,-2.19,0.00,1.27,-7.65,0.23,-8.57,0.00,-0.17,-0.91,0.49,1100,1100,1100,1100,1040,1500,1515,10987,802
21302,9,-0.80,-2.04,0.02,0.054,-0.062,0.965,-0.52,2.84,0.00,0.00,0.52,-2.84,0.00,1.81,-9.94,2.62,-7.90,0.00,0.25,-0.39,0.34,1100,1100,1100,1100,1032,1500,1515,10991,802
21314,9,-0.60,-1.66,0.16,0.048,-0.083,0.970,-0.73,2.57,0.00,0.00,0.73,-2.57,0.00,2.56,-8.99,3.16,-7.33,0.00,0.23,-0.34,-3.21,1100,1100,1100,1100,1032,1500,1515,10983,802
21326,9,-1.76,-2.10,-0.30,0.018,-0.096,0.970,-1.48,1.89,0.00,0.00,1.48,-1.89,0.00,5.17,-6.63,6.92,-4.53,0.00,0.48,-0.14,11.30,1100,1100,1100,1100,1032,1500,1515,10991,802
21338,9,1.67,1.99,0.67,0.029,-0.081,1.004,-1.47,1.37,0.00,0.00,1.47,-1.37,0.00,5.16,-4.79,3.48,-6.78,0.00,-0.20,-0.62,-11.99,1100,1100,1100,1100,1032,1500,1515,10983,802
21350,9,1.09,3.39,-0.59,0.001,-0.068,1.006,-1.29,0.81,0.00,0.00,1.29,-0.81,0.00,4.51,-2.84,3.43,-6.23,0.00,-0.07,-0.73,12.26,1100,1100,1100,1100,1032,1500,1515,10979,802
21362,9,-0.39,-3.66,0.99,0.034,-0.065,1.008,-0.94,0.93,0.00,0.00,0.94,-0.93,0.00,3.28,-3.24,3.67,0.42,0.00,0.27,0.82,-19.30,1100,1100,1100,1100,1032,1500,1515,10979,802
21374,9,-3.65,-3.28,-1.02,0.040,-0.071,0.976,-0.93,1.18,0.00,0.00,0.93,-1.18,0.00,3.27,-4.12,6.92,-0.84,0.00,0.89,0.44,22.44,1100,1100,1100,1100,1032,1500,1515,10979,802
21386,9,1.20,-5.92,1.44,0.085,-0.090,0.945,-1.14,2.66,0.00,0.00,1.14,-2.66,0.00,4.00,-9.31,2.80,-3.39,0.00,-0.11,0.31,-23.45,1100,1100,1100,1100,1032,1500,1515,10971,802
21398,9,1.64,0.11,-0.44,0.098,-0.081,0.939,-1.38,3.84,0.00,0.00,1.38,-3.84,0.00,4.85,-13.43,3.21,-13.54,0.00,-0.16,-1.14,8.03,1100,1100,1100,1100,1033,1500,1515,11000,802
21410,9,2.81,1.59,0.78,0.078,-0.079,0.950,-1.37,4.56,0.00,0.00,1.37,-4.56,0.00,4.79,-15.97,1.98,-17.57,0.00,-0.35,-1.47,-9.88,1100,1100,1100,1100,1033,1500,1515,10996,802
21422,9,-0.72,-2.16,-0.43,0.080,-0.062,0.972,-1.33,4.58,0.00,0.00,1.33,-4.58,0.00,4.66,-16.04,5.38,-13.88,0.00,0.35,-0.51,8.49,1100,1100,1100,1100,1032,1500,1515,10991,802
21434,9,-2.77,-0.38,-0.14,0.052,-0.086,0.981,-1.40,4.01,0.00,0.00,1.40,-4.01,0.00,4.91,-14.05,7.69,-13.67,0.00,0.77,-0.67,3.27,1100,1100,1100,1100,1032,1500,1515,10983,802
21446,9,1.29,3.97,0.83,0.060,-0.074,0.976,-1.04,3.57,0.00,0.00,1.04,-3.57,0.00,3.65,-12.50,2.37,-16.47,0.00,-0.17,-1.40,-18.74,1100,1100,1100,1100,1032,1500,1515,10979,802
21458,9,1.66,-1.46,-0.30,0.063,-0.065,0.957,-0.95,3.48,0.00,0.00,0.95,-3.48,0.00,3.34,-12.19,1.68,-10.73,0.00,-0.19,-0.43,10.23,1100,1100,1100,1100,1032,1500,1515,10975,802
21470,9,1.15,-1.24,0.20,0.062,-0.057,0.977,-0.50,3.47,0.00,0.00,0.50,-3.47,0.00,1.75,-12.15,0.60,-10.91,0.00,-0.14,-0.35,-4.69,1100,1100,1100,1100,1032,1500,1515,10962,802
21482,9,0.17,-6.17,-0.77,0.069,-0.054,0.957,-0.49,3.43,0.00,0.00,0.49,-3.43,0.00,1.70,-12.02,1.53,-5.85,0.00,0.06,0.55,14.02,1100,1100,1100,1100,1032,1500,1515,10975,802
21494,9,0.30,-4.75,1.44,0.075,-0.066,0.964,-0.20,3.69,0.00,0.00,0.20,-3.69,0.00,0.70,-12.91,0.39,-8.16,0.00,0.05,0.12,-27.64,1100,1100,1100,1100,1032,1500,1515,10975,802
21506,9,-1.95,1.70,-0.91,0.033,-0.058,0.977,-0.39,2.89,0.00,0.00,0.39,-2.89,0.00,1.37,-10.11,3.32,-11.81,0.00,0.44,-1.05,20.45,1100,1100,1100,1100,1032,1500,1515,10979,802
21518,9,0.06,5.57,0.56,-0.007,-0.086,1.035,-0.82,1.58,0.00,0.00,0.82,-1.58,0.00,2.86,-5.53,2.80,-11.10,0.00,0.10,-1.30,-11.24,1100,1100,1100,1100,1032,1500,1515,10987,802
21530,9,-1.34,0.60,-1.57,-0.017,-0.078,1.018,-1.06,-0.02,0.00,0.00,1.06,0.02,0.00,3.71,0.08,5.05,-0.52,0.00,0.33,0.21,25.28,1100,1100,1100,1100,1032,1500,1515,10983,802
21542,9,-2.27,-0.05,0.81,-0.029,-0.104,1.034,-1.56,-0.72,0.00,0.00,1.56,0.72,0.00,5.45,2.53,7.72,2.58,0.00,0.66,0.36,-12.01,1100,1100,1100,1100,1036,1500,1515,10987,802
21554,9,0.71,4.75,-0.19,-0.027,-0.082,1.041,-1.48,-1.35,0.00,0.00,1.48,1.35,0.00,5.17,4.73,4.45,-0.02,0.00,-0.03,-0.40,0.39,1100,1100,1100,1100,1036,1500,1515,10996,802
21566,9,1.39,3.14,-1.01,-0.033,-0.073,1.041,-1.15,-1.62,0.00,0.00,1.15,1.62,0.00,4.03,5.67,2.64,2.53,0.00,-0.13,0.07,19.76,1100,1100,1100,1100,1036,1500,1515,10991,802
21578,9,3.17,0.41,1.03,0.000,-0.059,1.027,-0.70,-1.22,0.00,0.00,0.70,1.22,0.00,2.46,4.26,-0.71,3.84,0.00,-0.52,0.36,-27.92,1100,1100,1100,1100,1036,1500,1515,10983,802
21590,9,-0.07,1.99,-1.02,-0.015,-0.067,1.018,-0.72,-0.95,0.00,0.00,0.72,0.95,0.00,2.53,3.31,2.60,1.32,0.00,0.13,-0.05,21.60,1100,1100,1100,1100,1036,1500,1515,10996,802
21602,9,-1.28,-2.36,0.74,-0.000,-0.057,1.026,-0.53,-0.72,0.00,0.00,0.53,0.72,0.00,1.87,2.50,3.15,4.86,0.00,0.35,0.74,-15.52,1100,1100,1100,1100,1036,1500,1515,10991,802
21614,9,-0.62,-0.65,-1.06,-0.004,-0.064,1.006,-0.32,-0.86,0.00,0.00,0.32,0.86,0.00,1.11,2.99,1.73,3.65,0.00,0.19,0.27,17.10,1100,1100,1100,1100,1036,1500,1515,10996,802
21626,9,1.85,-0.89,1.35,0.004,-0.070,1.016,-0.21,-0.57,0.00,0.00,0.21,0.57,0.00,0.75,1.98,-1.10,2.87,0.00,-0.35,0.12,-25.68,1100,1100,1100,1100,1037,1500,1515,10979,802
21638,9,1.65,5.45,0.04,-0.046,-0.047,1.042,-0.24,-1.22,0.00,0.00,0.24,1.22,0.00,0.84,4.27,-0.81,-1.18,0.00,-0.32,-0.97,-2.01,1100,1100,1100,1100,1036,1500,1515,10987,802
21650,9,-4.29,-2.36,-0.92,-0.030,-0.080,1.052,-0.42,-1.57,0.00,0.00,0.42,1.57,0.00,1.47,5.51,5.76,7.87,0.00,0.96,0.78,20.68,1100,1100,1100,1100,1036,1500,1515,10996,802
21662,9,-1.36,0.12,-0.41,-0.018,-0.053,1.034,-0.21,-1.96,0.00,0.00,0.21,1.96,0.00,0.72,6.88,2.07,6.76,0.00,0.29,0.55,3.22,1100,1100,1100,1100,1035,1500,1515,10996,802
21674,9,1.28,1.21,0.11,-0.015,-0.062,1.045,-0.04,-1.43,0.00,0.00,0.04,1.43,0.00,0.13,5.02,-1.15,3.81,0.00,-0.21,-0.03,-1.70,1100,1100,1100,1100,1035,1500,1515,10987,802
21686,9,1.15,-0.54,1.07,-0.002,-0.052,1.021,0.19,-1.04,0.00,0.00,-0.19,1.04,0.00,-0.67,3.63,-1.82,4.16,0.00,-0.25,0.24,-21.49,1100,1100,1100,1100,1035,1500,1515,10991,802
21698,9,-0.05,0.90,-0.55,-0.026,-0.061,1.040,0.06,-1.17,0.00,0.00,-0.06,1.17,0.00,-0.21,4.09,-0.16,3.19,0.00,0.04,0.05,12.50,1100,1100,1100,1100,1035,1500,1515,10991,802
21710,9,1.01,4.21,-0.27,-0.014,-0.046,1.058,0.23,-1.22,0.00,0.00,-0.23,1.22,0.00,-0.80,4.27,-1.81,0.06,0.00,-0.23,-0.44,3.51,1100,1100,1100,1100,1035,1500,1515,10983,802
21722,9,-0.69,0.22,-0.08,-0.012,-0.056,1.015,0.14,-1.12,0.00,0.00,-0.14,1.12,0.00,-0.49,3.91,0.20,3.69,0.00,0.15,0.29,3.71,1100,1100,1100,1100,1044,1500,1515,10979,802
21734,9,0.75,-5.14,0.46,0.043,-0.055,0.981,0.19,-0.21,0.00,0.00,-0.19,0.21,0.00,-0.66,0.72,-1.40,5.86,0.00,-0.14,1.07,-9.29,1100,1100,1100,1100,1044,1500,1515,10983,802
21746,9,-0.05,-0.09,-0.33,0.031,-0.052,0.972,0.10,0.68,0.00,0.00,-0.10,-0.68,0.00,-0.34,-2.38,-0.28,-2.28,0.00,0.00,-0.35,6.47,1100,1100,1100,1100,1035,1500,1515,10983,802
21758,9,-1.27,-5.77,1.27,0.055,-0.071,0.979,-0.28,1.60,0.00,0.00,0.28,-1.60,0.00,0.97,-5.60,2.23,0.16,0.00,0.30,0.66,-25.29,1100,1100,1100,1100,1035,1500,1515,10996,802
21770,9,-2.52,-1.41,-1.63,0.036,-0.084,0.967,-0.87,1.60,0.00,0.00,0.87,-1.60,0.00,3.06,-5.60,5.58,-4.19,0.00,0.59,-0.20,32.35,1100,1100,1100,1100,1035,1500,1515,10991,802
21782,9,0.10,-4.23,0.58,0.037,-0.085,0.978,-1.21,1.77,0.00,0.00,1.21,-1.77,0.00,4.22,-6.19,4.12,-1.96,0.00,0.11,0.33,-6.85,1100,1100,1100,1100,1035,1500,1515,10987,802
21794,9,0.14,1.96,-0.36,0.024,-0.083,1.001,-1.48,1.27,0.00,0.00,1.48,-1.27,0.00,5.18,-4.43,5.03,-6.40,0.00,0.12,-0.70,5.75,1100,1100,1100,1100,1035,1500,1515,10991,802
21806,9,0.21,1.28,0.44,0.018,-0.086,0.995,-1.49,1.22,0.00,0.00,1.49,-1.22,0.00,5.21,-4.27,5.00,-5.55,0.00,0.16,-0.48,-6.39,1100,1100,1100,1100,1035,1500,1515,10991,802
21818,9,-0.02,-5.74,-0.13,0.063,-0.058,0.985,-1.03,1.75,0.00,0.00,1.03,-1.75,0.00,3.61,-6.12,3.63,-0.38,0.00,0.13,0.84,-0.07,1100,1100,1100,1100,1045,1500,1515,10975,802
21830,9,-1.08,0.89,-0.47,0.029,-0.082,0.986,-1.18,1.92,0.00,0.00,1.18,-1.92,0.00,4.13,-6.71,5.21,-7.60,0.00,0.38,-0.64,13.60,1100,1100,1100,1100,1045,1500,1515,10979,802
21842,9,0.88,4.49,0.70,0.019,-0.073,1.010,-0.88,1.58,0.00,0.00,0.88,-1.58,0.00,3.07,-5.51,2.19,-10.00,0.00,-0.07,-1.12,-16.21,1100,1100,1100,1100,1035,1500,1515,10971,802
21854,9,-0.18,-0.41,-0.72,0.011,-0.085,1.009,-1.12,1.02,0.00,0.00,1.12,-1.02,0.00,3.93,-3.58,4.12,-3.17,0.00,0.20,-0.05,16.41,1100,1100,1100,1100,1035,1500,1515,10966,802
21866,9,2.55,-2.17,0.37,0.039,-0.062,0.994,-0.83,1.14,0.00,0.00,0.83,-1.14,0.00,2.91,-4.00,0.36,-1.83,0.00,-0.42,0.40,-9.75,1100,1100,1100,1100,1035,1500,1515,10979,802
21878,9,-0.40,2.85,-0.75,0.031,-0.063,1.005,-0.85,1.38,0.00,0.00,0.85,-1.38,0.00,2.99,-4.84,3.39,-7.69,0.00,0.22,-0.73,13.70,1100,1100,1100,1100,1035,1500,1515,10991,802
21890,9,0.64,-3.66,2.11,0.066,-0.079,0.967,-0.79,2.00,0.00,0.00,0.79,-2.00,0.00,2.75,-7.00,2.11,-3.34,0.00,0.03,0.46,-39.74,1100,1100,1100,1100,1035,1500,1515,10996,802
21902,9,-1.60,-3.89,-0.68,0.080,-0.047,0.942,-0.61,3.00,0.00,0.00,0.61,-3.00,0.00,2.12,-10.49,3.72,-6.60,0.00,0.41,-0.02,15.29,1100,1100,1100,1100,1036,1500,1515,11000,802
21915,9,-0.33,-3.06,0.91,0.091,-0.079,0.944,-0.74,4.13,0.00,0.00,0.74,-4.13,0.00,2.59,-14.44,2.92,-11.38,0.00,0.21,-0.51,-12.67,1100,1100,1100,1100,1036,1500,1515,10987,802
21926,9,0.77,0.05,-1.50,0.092,-0.059,0.937,-0.66,4.48,0.00,0.00,0.66,-4.48,0.00,2.32,-15.68,1.55,-15.73,0.00,-0.11,-1.07,27.14,1100,1100,1100,1100,1046,1500,1515,10991,802
21938,9,-0.13,-3.32,0.85,0.092,-0.075,0.950,-0.84,4.99,0.00,0.00,0.84,-4.99,0.00,2.93,-17.46,3.06,-14.15,0.00,0.21,-0.42,-10.62,1100,1100,1100,1100,1035,1500,1515,11000,802
21950,9,0.72,3.07,0.21,0.063,-0.076,0.971,-1.06,4.54,0.00,0.00,1.06,-4.54,0.00,3.70,-15.89,2.98,-18.96,0.00,-0.03,-1.44,-4.56,1100,1100,1100,1100,1035,1500,1515,11000,802
21962,9,-1.68,-1.36,-1.00,0.061,-0.096,0.977,-1.55,3.97,0.00,0.00,1.55,-3.97,0.00,5.43,-13.89,7.10,-12.53,0.00,0.53,-0.33,23.80,1100,1100,1100,1100,1034,1500,1515,10996,802
21974,9,3.92,3.07,1.35,0.053,-0.077,0.988,-1.43,3.30,0.00,0.00,1.43,-3.30,0.00,5.00,-11.54,1.08,-14.61,0.00,-0.62,-0.92,-30.43,1100,1100,1100,1100,1034,1500,1515,10987,802
21986,9,-0.41,-0.16,-1.00,0.037,-0.081,0.985,-1.55,2.98,0.00,0.00,1.55,-2.98,0.00,5.42,-10.43,5.82,-10.27,0.00,0.28,-0.41,22.89,1100,1100,1100,1100,1034,1500,1515,10996,802
21998,9,-1.11,-4.80,1.58,0.061,-0.076,0.987,-1.25,2.79,0.00,0.00,1.25,-2.79,0.00,4.39,-9.78,5.50,-4.98,0.00,0.42,0.63,-28.55,1100,1100,1100,1100,1034,1500,1515,10991,802
22010,9,-0.53,1.77,-2.09,0.033,-0.068,0.983,-1.12,2.34,0.00,0.00,1.12,-2.34,0.00,3.94,-8.19,4.47,-9.95,0.00,0.26,-0.68,39.68,1100,1100,1100,1100,1034,1500,1515,10996,802
22022,9,-0.34,-1.28,1.41,0.059,-0.069,0.997,-0.82,2.42,0.00,0.00,0.82,-2.42,0.00,2.87,-8.47,3.21,-7.19,0.00,0.25,-0.00,-27.95,1100,1100,1100,1100,1032,1500,1515,10987,802
22034,9,0.84,3.01,0.50,0.031,-0.079,0.976,-0.99,2.05,0.00,0.00,0.99,-2.05,0.00,3.46,-7.16,2.62,-10.16,0.00,-0.04,-0.88,-9.63,1100,1100,1100,1100,1032,1500,1515,10991,802
22046,9,0.59,-0.96,0.14,0.048,-0.076,0.988,-0.95,2.31,0.00,0.00,0.95,-2.31,0.00,3.31,-8.07,2.72,-7.11,0.00,0.01,-0.30,2.17,1100,1100,1100,1100,1034,1500,1515,10987,802
22058,9,-0.63,0.94,-0.63,0.032,-0.060,0.993,-0.93,1.85,0.00,0.00,0.93,-1.85,0.00,3.26,-6.46,3.89,-7.40,0.00,0.27,-0.46,10.71,1100,1100,1100,1100,1034,1500,1515,10991,802
22070,9,-1.65,-0.05,0.49,0.032,-0.099,0.992,-1.30,1.95,0.00,0.00,1.30,-1.95,0.00,4.55,-6.83,6.20,-6.78,0.00,0.49,-0.35,-7.71,1100,1100,1100,1100,1034,1500,1515,10983,802
22082,9,0.61,2.09,0.17,0.031,-0.079,0.991,-1.30,1.52,0.00,0.00,1.30,-1.52,0.00,4.54,-5.33,3.93,-7.42,0.00,-0.01,-0.60,-3.49,1100,1100,1100,1100,1041,1500,1515,10975,802
22094,9,0.47,3.63,-0.60,0.013,-0.090,1.018,-1.37,1.37,0.00,0.00,1.37,-1.37,0.00,4.80,-4.79,4.33,-8.41,0.00,0.08,-0.82,14.75,1100,1100,1100,1100,1041,1500,1515,10962,802
22106,9,2.38,0.45,-0.02,0.040,-0.056,1.019,-1.08,1.36,0.00,0.00,1.08,-1.36,0.00,3.77,-4.75,1.39,-5.20,0.00,-0.35,-0.15,-1.74,1100,1100,1100,1100,1034,1500,1515,10979,802
22119,9,-3.51,-1.97,0.25,0.053,-0.095,0.972,-1.48,2.07,0.00,0.00,1.48,-2.07,0.00,5.17,-7.23,8.68,-5.26,0.00,0.93,0.03,-1.65,1100,1100,1100,1100,1032,1500,1515,10975,802
22130,9,-1.97,-2.04,0.20,0.079,-0.076,0.992,-1.11,2.73,0.00,0.00,1.11,-2.73,0.00,3.88,-9.56,5.85,-7.52,0.00,0.55,0.01,-2.19,1100,1100,1100,1100,1032,1500,1515,10971,828
22142,9,-0.54,1.48,-0.11,0.046,-0.085,0.974,-1.34,2.56,0.00,0.00,1.34,-2.56,0.00,4.71,-8.97,5.25,-10.45,0.00,0.26,-0.69,5.79,1100,1100,1100,1100,1034,1500,1515,10979,828
22154,9,2.62,4.68,0.72,0.031,-0.077,1.003,-1.19,2.32,0.00,0.00,1.19,-2.32,0.00,4.17,-8.13,1.55,-12.81,0.00,-0.40,-1.26,-16.64,1100,1100,1100,1100,1034,1500,1515,10996,828
22166,9,-1.44,-4.44,-1.61,0.039,-0.067,0.977,-1.06,1.93,0.00,0.00,1.06,-1.93,0.00,3.72,-6.75,5.16,-2.31,0.00,0.44,0.61,32.64,1100,1100,1100,1100,1034,1500,1515,10983,828
22178,9,-1.54,-1.35,1.47,0.038,-0.092,0.990,-1.27,1.99,0.00,0.00,1.27,-1.99,0.00,4.44,-6.97,5.97,-5.62,0.00,0.50,-0.16,-25.32,1100,1100,1100,1100,1034,1500,1515,10975,828
22190,9,-0.49,4.62,-1.20,0.008,-0.083,1.019,-1.44,1.19,0.00,0.00,1.44,-1.19,0.00,5.04,-4.17,5.53,-8.79,0.00,0.25,-1.06,21.92,1100,1100,1100,1100,1034,1500,1515,10966,828
22202,9,1.01,-1.18,1.03,0.016,-0.088,0.990,-1.52,0.96,0.00,0.00,1.52,-0.96,0.00,5.31,-3.36,4.30,-2.18,0.00,-0.00,0.16,-18.70,1100,1100,1100,1100,1034,1500,1515,10971,828
22214,9,0.08,1.93,-0.18,0.017,-0.086,1.001,-1.63,0.69,0.00,0.00,1.63,-0.69,0.00,5.70,-2.40,5.62,-4.33,0.00,0.17,-0.39,0.41,1100,1100,1100,1100,1034,1500,1515,10971,828
22226,9,-1.13,-1.47,-0.05,0.005,-0.083,1.015,-1.63,0.43,0.00,0.00,1.63,-0.43,0.00,5.69,-1.49,6.82,-0.02,0.00,0.46,0.30,7.11,1100,1100,1100,1100,1035,1500,1515,10966,828
22238,9,-0.86,-5.26,0.65,0.037,-0.064,0.983,-1.27,0.68,0.00,0.00,1.27,-0.68,0.00,4.45,-2.39,5.31,2.86,0.00,0.31,0.96,-13.73,1100,1100,1100,1100,1034,1500,1515,10971,839
22250,9,-0.71,0.79,-1.57,0.024,-0.076,0.996,-1.17,0.99,0.00,0.00,1.17,-0.99,0.00,4.11,-3.46,4.82,-4.25,0.00,0.32,-0.47,35.34,1100,1100,1100,1100,1034,1500,1515,10979,839
22262,9,2.66,0.24,0.74,0.037,-0.054,0.986,-0.61,1.21,0.00,0.00,0.61,-1.21,0.00,2.12,-4.24,-0.54,-4.48,0.00,-0.47,-0.34,-19.12,1100,1100,1100,1100,1033,1500,1515,10979,839
22274,9,-0.04,-0.73,-0.55,0.045,-0.064,0.976,-0.48,1.58,0.00,0.00,0.48,-1.58,0.00,1.67,-5.52,1.71,-4.79,0.00,0.11,-0.24,9.08,1100,1100,1100,1100,1033,1500,1515,10975,839
22286,9,2.41,-1.37,1.25,0.055,-0.046,0.971,-0.13,2.07,0.00,0.00,0.13,-2.07,0.00,0.46,-7.24,-1.95,-5.87,0.00,-0.46,-0.15,-23.81,1100,1100,1100,1100,1045,1500,1515,10979,839
22298,9,-2.93,-1.89,-1.58,0.043,-0.065,0.971,-0.55,2.06,0.00,0.00,0.55,-2.06,0.00,1.92,-7.21,4.85,-5.32,0.00,0.65,-0.12,31.16,1100,1100,1100,1100,1033,1500,1515,10979,839
22310,9,-2.39,-5.01,0.40,0.068,-0.098,0.968,-1.02,2.54,0.00,0.00,1.02,-2.54,0.00,3.58,-8.87,5.97,-3.87,0.00,0.63,0.36,-7.93,1100,1100,1100,1100,1033,1500,1515,10979,839
22322,9,0.23,4.10,0.15,0.028,-0.072,0.978,-1.12,2.06,0.00,0.00,1.12,-2.06,0.00,3.93,-7.21,3.70,-11.30,0.00,0.03,-1.32,-4.24,1100,1100,1100,1100,1033,1500,1515,10971,839
22334,9,1.14,2.35,0.82,0.022,-0.085,1.006,-1.35,1.62,0.00,0.00,1.35,-1.62,0.00,4.72,-5.67,3.57,-8.02,0.00,-0.07,-0.79,-10.29,1100,1100,1100,1100,1033,1500,1515,10962,828
22346,9,0.34,3.32,-0.59,0.003,-0.064,1.009,-1.18,0.72,0.00,0.00,1.18,-0.72,0.00,4.14,-2.54,3.80,-5.86,0.00,0.02,-0.61,9.01,1100,1100,1100,1100,1044,1500,1515,10962,828
22358,9,-1.81,-0.77,0.03,0.008,-0.078,1.014,-1.11,0.51,0.00,0.00,1.11,-0.51,0.00,3.88,-1.79,5.69,-1.02,0.00,0.54,0.30,-0.49,1100,1100,1100,1100,1044,1500,1515,10966,828
22370,9,-0.28,2.55,0.35,0.016,-0.075,1.022,-1.05,0.39,0.00,0.00,1.05,-0.39,0.00,3.68,-1.37,3.96,-3.92,0.00,0.17,-0.35,-10.73,1100,1100,1100,1100,1044,1500,1515,10979,828
22382,9,0.86,4.77,-0.94,-0.017,-0.077,1.037,-0.94,-0.01,0.00,0.00,0.94,0.01,0.00,3.30,0.05,2.44,-4.72,0.00,-0.06,-0.65,21.71,1100,1100,1100,1100,1053,1500,1515,10979,828
22394,9,1.86,-1.29,1.29,0.015,-0.061,1.039,-0.58,-0.24,0.00,0.00,0.58,0.24,0.00,2.03,0.83,0.17,2.12,0.00,-0.26,0.68,-27.34,1100,1100,1100,1100,1053,1500,1515,10979,828
22406,9,1.09,5.24,-0.36,-0.015,-0.076,1.038,-0.79,-0.35,0.00,0.00,0.79,0.35,0.00,2.76,1.23,1.67,-4.01,0.00,-0.10,-0.82,8.29,1100,1100,1100,1100,1055,1500,1515,10979,828
22418,9,-0.18,-0.28,0.16,0.008,-0.065,1.052,-0.57,-0.28,0.00,0.00,0.57,0.28,0.00,1.99,0.98,2.17,1.26,0.00,0.15,0.57,-1.84,1100,1100,1100,1100,1059,1500,1515,10975,828
22430,9,-0.33,4.97,-0.69,-0.026,-0.059,1.047,-0.44,-0.86,0.00,0.00,0.44,0.86,0.00,1.56,3.00,1.89,-1.97,0.00,0.15,-0.43,12.95,1100,1100,1100,1100,1059,1500,1515,10983,890
22442,9,-0.28,2.39,1.15,-0.019,-0.078,1.054,-0.43,-0.91,0.00,0.00,0.43,0.91,0.00,1.51,3.19,1.79,0.80,0.00,0.14,-0.10,-24.32,1100,1100,1100,1100,1079,1500,1515,10979,890
22454,9,0.37,3.39,-0.39,-0.030,-0.069,1.051,-0.55,-1.46,0.00,0.00,0.55,1.46,0.00,1.93,5.11,1.56,1.72,0.00,-0.01,-0.25,4.94,1100,1100,1100,1100,1079,1500,1515,10971,890
22466,9,-0.51,2.55,0.15,-0.040,-0.073,1.055,-0.50,-1.70,0.00,0.00,0.50,1.70,0.00,1.77,5.95,2.28,3.40,0.00,0.18,0.01,-4.42,1100,1100,1100,1100,1093,1500,1515,10975,890
22478,9,-1.46,1.53,-0.23,-0.027,-0.061,1.053,-0.49,-1.97,0.00,0.00,0.49,1.97,0.00,1.70,6.90,3.16,5.37,0.00,0.34,0.32,2.25,1100,1100,1100,1100,1103,1500,1515,10979,890
22490,9,1.02,2.54,0.62,-0.045,-0.081,1.049,-0.63,-2.17,0.00,0.00,0.63,2.17,0.00,2.20,7.60,1.17,5.07,0.00,-0.13,0.10,-10.00,1100,1100,1100,1100,1103,1500,1515,10983,890
22502,9,-0.03,1.11,-0.60,-0.022,-0.059,1.039,-0.41,-2.08,0.00,0.00,0.41,2.08,0.00,1.42,7.28,1.46,6.17,0.00,0.02,0.27,8.43,1100,1100,1100,1100,1103,1500,1515,10979,890
22514,9,0.22,1.84,-0.50,-0.046,-0.055,1.051,-0.42,-2.19,0.00,0.00,0.42,2.19,0.00,1.48,7.68,1.26,5.83,0.00,0.01,0.13,7.78,1100,1100,1100,1100,1103,1500,1515,10983,890
22526,9,-1.06,-1.35,-0.44,-0.025,-0.041,1.027,0.20,-2.09,0.00,0.00,-0.20,2.09,0.00,-0.71,7.33,0.35,8.67,0.00,0.14,0.80,2.14,1100,1100,1100,1100,1106,1500,1515,10979,890
22538,9,-3.14,-3.87,-0.44,-0.005,-0.068,1.012,0.08,-1.52,0.00,0.00,-0.08,1.52,0.00,-0.29,5.31,2.85,9.19,0.00,0.63,0.89,10.41,1100,1100,1100,1100,1126,1500,1516,10966,996
22550,9,3.86,2.85,1.34,-0.005,-0.044,1.014,0.55,-1.24,0.00,0.00,-0.55,1.24,0.00,-1.93,4.35,-5.79,1.50,0.00,-0.84,-0.31,-28.08,1100,1100,1100,1100,1126,1500,1516,10966,996
22562,9,-0.21,3.06,-1.11,-0.034,-0.071,1.027,-0.03,-1.47,0.00,0.00,0.03,1.47,0.00,0.11,5.13,0.32,2.07,0.00,0.02,-0.44,21.36,1100,1100,1100,1100,1126,1500,1515,10954,996
22574,9,1.28,-2.85,0.65,-0.000,-0.094,1.054,-0.58,-1.38,0.00,0.00,0.58,1.38,0.00,2.04,4.81,0.76,7.67,0.00,-0.17,1.15,-15.06,1100,1100,1100,1100,1126,1500,1515,10962,996
22586,9,-2.13,0.61,-0.90,0.007,-0.066,1.016,-0.90,-0.81,0.00,0.00,0.90,0.81,0.00,3.16,2.83,5.29,2.22,0.00,0.51,0.20,16.51,1100,1100,1100,1100,1139,1500,1515,10962,996
22598,9,-0.54,-5.36,1.31,0.056,-0.067,1.011,-0.62,0.79,0.00,0.00,0.62,-0.79,0.00,2.18,-2.78,2.72,2.58,0.00,0.27,0.74,-19.79,1100,1100,1100,1100,1141,1500,1515,10979,996
22610,9,-1.43,-0.07,-1.57,0.041,-0.068,0.991,-0.63,1.42,0.00,0.00,0.63,-1.42,0.00,2.20,-4.97,3.62,-4.90,0.00,0.35,-0.44,26.41,1100,1100,1100,1100,1141,1500,1515,10979,996
22622,9,0.39,0.83,-0.28,0.023,-0.065,0.997,-0.41,1.17,0.00,0.00,0.41,-1.17,0.00,1.43,-4.09,1.04,-4.92,0.00,0.04,-0.47,6.81,1100,1100,1100,1100,1141,1500,1515,10975,996
22634,9,2.00,-1.93,1.27,0.037,-0.054,0.991,-0.27,1.26,0.00,0.00,0.27,-1.26,0.00,0.94,-4.39,-1.06,-2.47,0.00,-0.32,-0.07,-26.38,1100,1100,1100,1100,1141,1500,1515,10983,945
22646,9,-1.16,-4.07,-0.68,0.037,-0.072,0.985,-0.44,1.63,0.00,0.00,0.44,-1.63,0.00,1.53,-5.71,2.69,-1.64,0.00,0.33,0.11,21.13,1100,1100,1100,1100,1144,1500,1515,10979,945
22658,9,0.10,2.39,0.00,0.024,-0.061,1.003,-0.40,1.39,0.00,0.00,0.40,-1.39,0.00,1.38,-4.86,1.28,-7.24,0.00,0.04,-0.74,-2.70,1100,1100,1100,1100,1158,1500,1515,10979,945
22670,9,0.26,-0.33,-0.99,0.010,-0.074,1.015,-0.49,0.96,0.00,0.00,0.49,-0.96,0.00,1.72,-3.37,1.46,-3.03,0.00,0.05,-0.00,17.86,1100,1100,1100,1100,1158,1500,1515,10975,945
22682,9,0.93,-4.01,1.16,0.038,-0.048,0.998,-0.14,1.13,0.00,0.00,0.14,-1.13,0.00,0.47,-3.95,-0.45,0.07,0.00,-0.15,0.54,-22.98,1100,1100,1100,1100,1162,1500,1515,10962,945
22694,9,-0.86,-2.22,-0.78,0.018,-0.068,0.987,-0.42,1.01,0.00,0.00,0.42,-1.01,0.00,1.47,-3.55,2.33,-1.33,0.00,0.23,0.21,17.59,1100,1100,1100,1100,1162,1500,1515,10966,945
22706,9,1.27,0.26,0.77,0.020,-0.068,1.018,-0.36,0.79,0.00,0.00,0.36,-0.79,0.00,1.28,-2.75,0.01,-3.01,0.00,-0.20,-0.24,-14.13,1100,1100,1100,1100,1165,1500,1515,10958,945
22718,9,-0.20,5.56,-0.47,-0.017,-0.062,1.025,-0.59,-0.01,0.00,0.00,0.59,0.01,0.00,2.07,0.05,2.28,-5.51,0.00,0.08,-1.05,8.83,1100,1100,1100,1100,1171,1500,1515,10929,945
22730,9,-0.41,0.50,0.67,0.013,-0.075,1.038,-0.60,-0.06,0.00,0.00,0.60,0.06,0.00,2.11,0.21,2.52,-0.29,0.00,0.20,0.20,-11.04,1182,1160,1160,1182,1171,1500,1515,10925,804
22742,9,1.13,0.20,-0.19,0.025,-0.060,1.016,-0.41,0.27,0.00,0.00,0.41,-0.27,0.00,1.42,-0.94,0.28,-1.14,0.00,-0.17,0.09,4.41,1182,1160,1160,1182,1167,1500,1515,10933,804
22754,9,-3.38,2.75,-1.12,-0.008,-0.077,1.032,-0.63,0.18,0.00,0.00,0.63,-0.18,0.00,2.20,-0.64,5.58,-3.39,0.00,0.79,-0.26,25.13,1182,1160,1160,1182,1167,1500,1515,10900,804
22766,9,1.54,-0.26,1.41,0.046,-0.084,1.010,-0.67,0.78,0.00,0.00,0.67,-0.78,0.00,2.33,-2.71,0.79,-2.45,0.00,-0.21,0.12,-28.11,1182,1160,1160,1182,1175,1500,1515,10891,804
22778,9,2.15,12.59,0.34,-0.028,-0.079,1.059,-1.15,0.02,0.00,0.00,1.15,-0.02,0.00,4.04,-0.05,1.89,-12.64,0.00,-0.27,-2.33,-1.91,1182,1160,1160,1182,1175,1500,1515,10883,804
22790,9,-4.10,5.37,0.47,-0.055,-0.097,1.076,-1.43,-1.01,0.00,0.00,1.43,1.01,0.00,5.00,3.53,9.10,-1.84,0.00,1.01,-0.20,-5.77,1182,1160,1160,1182,1175,1500,1515,10879,804
22802,9,2.00,-0.49,-0.03,-0.018,-0.080,1.056,-1.06,-1.76,0.00,0.00,1.06,1.76,0.00,3.70,6.18,1.70,6.67,0.00,-0.30,0.93,-6.66,1182,1160,1160,1182,1191,1500,1515,10875,804
22814,9,-1.84,-2.40,-1.06,-0.000,-0.083,1.019,-1.32,-1.60,0.00,0.00,1.32,1.60,0.00,4.63,5.59,6.47,7.99,0.00,0.57,0.84,19.74,1182,1160,1160,1182,1191,1500,1515,10867,804
22826,9,-3.76,-11.33,2.48,0.049,-0.081,0.982,-1.13,-0.12,0.00,0.00,1.13,0.12,0.00,3.94,0.42,7.71,11.75,0.00,0.94,2.24,-42.43,1182,1160,1160,1182,1196,1500,1515,10850,804
22838,9,0.72,-0.91,0.07,0.038,-0.032,0.989,-0.25,0.43,0.00,0.00,0.25,-0.43,0.00,0.89,-1.49,0.16,-0.59,0.00,-0.13,-0.22,6.54,1194,1198,1196,1196,1196,1500,1515,10858,824
22850,9,-2.63,4.87,-1.97,-0.008,-0.047,1.008,0.31,0.10,0.00,0.00,-0.31,-0.10,0.00,-1.09,-0.35,1.54,-5.21,0.00,0.57,-1.47,40.18,1194,1198,1196,1196,1196,1500,1515,10846,824
22862,9,5.48,7.93,-0.19,-0.088,-0.033,1.071,0.95,-1.53,0.00,0.00,-0.95,1.53,0.00,-3.31,5.36,-8.79,-2.57,0.00,-1.29,-1.12,-8.32,1194,1198,1196,1196,1198,1500,1515,10858,824
22874,9,-8.14,4.89,0.49,-0.079,-0.023,1.065,0.90,-2.77,0.00,0.00,-0.90,2.77,0.00,-3.17,9.69,4.98,4.80,0.00,1.48,-0.04,-22.45,1194,1198,1196,1196,1198,1500,1515,10846,824
22886,9,3.88,-0.16,0.43,-0.104,-0.070,1.089,0.27,-4.19,0.00,0.00,-0.27,4.19,0.00,-0.96,14.67,-4.85,14.84,0.00,-0.78,1.38,-1.51,1194,1198,1196,1196,1198,1500,1515,10837,824
22898,1,1.96,-2.37,-0.65,-0.151,-0.094,1.109,0.33,-5.80,0.00,0.00,-0.33,5.80,0.00,-1.17,20.31,-3.13,22.68,0.00,-0.55,2.48,25.84,1194,1198,1196,1196,1208,1500,1515,10812,824
22910,1,1.37,23.31,0.11,-0.203,-0.006,1.174,1.48,-7.58,0.00,0.00,-1.48,7.58,0.00,-5.19,26.61,-6.55,3.30,0.00,-0.62,-2.41,-15.88,1194,1198,1196,1196,1208,1500,1515,10812,824
22922,1,-9.80,17.13,-2.03,-0.232,0.009,1.129,1.50,-8.86,0.00,0.00,-1.50,8.86,0.00,-5.28,31.15,4.52,14.02,0.00,1.83,-1.16,9.42,1194,1198,1196,1196,1212,1500,1515,10812,824
22934,1,6.80,-27.93,-0.06,-0.078,-0.085,0.979,0.79,-7.74,0.00,0.00,-0.79,7.74,0.00,-2.79,27.31,-9.59,55.24,0.00,-1.26,7.29,-22.85,1188,1236,1226,1198,1212,1500,1515,10787,801
22946,1,10.59,5.11,1.05,-0.123,-0.034,1.070,2.01,-8.39,0.00,0.00,-2.01,8.39,0.00,-7.09,29.66,-17.68,24.55,0.00,-2.62,0.27,-32.88,1188,1236,1226,1198,1212,1500,1515,10771,801
22958,1,0.51,5.66,-4.19,-0.081,0.017,1.020,1.91,-7.15,0.00,0.00,-1.91,7.15,0.00,-6.76,25.41,-7.27,19.76,0.00,-0.64,-0.75,64.20,1188,1236,1226,1198,1215,1500,1515,10792,801
22970,1,-13.21,-23.39,-0.37,-0.001,-0.087,0.914,0.19,-4.22,0.00,0.00,-0.19,4.22,0.00,-0.72,15.19,12.49,38.59,0.00,2.96,5.16,17.32,1188,1236,1226,1198,1215,1500,1515,10787,801
22982,1,15.63,17.36,-3.87,-0.113,-0.100,1.057,-0.75,-2.73,0.00,0.00,0.75,2.73,0.00,2.55,10.00,-13.08,-7.36,0.00,-2.90,-3.18,72.57,1188,1236,1226,1198,1220,1500,1515,10796,801
22994,1,-3.70,-40.01,-6.99,0.132,-0.150,0.845,-2.17,-0.21,0.00,0.00,2.17,0.21,0.00,7.53,1.21,11.23,41.22,0.00,1.05,9.61,111.87,1188,1236,1226,1198,1220,1500,1515,10800,801
23006,1,4.22,69.30,-4.05,-0.024,-0.082,1.089,-1.91,-0.46,0.00,0.00,1.91,0.46,0.00,6.66,2.10,2.45,-67.20,0.00,-0.54,-13.94,25.40,1188,1236,1226,1198,1220,1500,1515,10800,801
23018,1,-0.48,-12.60,-7.36,0.041,-0.015,0.951,-1.87,0.27,0.00,0.00,1.87,-0.27,0.00,6.53,-0.48,7.01,12.12,0.00,0.45,1.23,68.43,1188,1236,1226,1198,1225,1500,1515,10779,801
23030,1,8.62,-46.05,-7.63,0.042,-0.058,0.921,-0.94,-0.67,0.00,0.00,0.94,0.67,0.00,3.27,2.83,-5.35,48.88,0.00,-1.46,9.96,75.09,1142,1310,1290,1158,1225,1500,1515,10771,801
23042,1,22.93,27.82,-4.28,-0.131,-0.095,1.070,-0.36,-0.55,0.00,0.00,0.36,0.55,0.00,1.27,2.42,-21.66,-25.40,0.00,-4.62,-5.19,26.76,1142,1310,1290,1158,1228,1500,1515,10779,801
23054,1,-5.73,11.80,-5.26,0.016,-0.064,0.996,-0.53,1.45,0.00,0.00,0.53,-1.45,0.00,1.86,-4.61,7.59,-16.42,0.00,0.86,-2.68,45.14,1142,1310,1290,1158,1228,1500,1515,10771,801
23066,1,-10.35,5.97,2.67,0.129,-0.067,0.929,0.21,2.14,0.00,0.00,-0.21,-2.14,0.00,-0.72,-7.02,9.62,-12.99,0.00,2.15,-1.56,-116.95,1142,1310,1290,1158,1234,1500,1515,10771,801
23078,1,-14.34,6.32,-3.27,0.137,-0.079,0.971,0.03,2.70,0.00,0.00,-0.03,-2.70,0.00,-0.12,-9.00,14.22,-15.33,0.00,2.92,-1.91,16.87,1142,1310,1290,1158,1246,1500,1515,10771,801
23090,1,-21.70,-26.03,-2.69,0.157,-0.027,0.899,-0.46,4.79,0.00,0.00,0.46,-4.79,0.00,1.61,-16.35,23.31,9.68,0.00,4.68,3.67,34.01,1142,1310,1290,1158,1246,1500,1515,10787,801
23102,1,4.57,-11.62,-6.54,-0.015,-0.059,1.034,-1.81,3.04,0.00,0.00,1.81,-3.04,0.00,6.37,-10.28,1.80,1.34,0.00,-0.29,2.03,87.53,1142,1310,1290,1158,1255,1500,1515,10779,801
23114,1,34.21,-30.64,-3.95,0.058,-0.084,0.967,-2.67,3.17,0.00,0.00,2.67,-3.17,0.00,9.41,-10.77,-24.81,19.88,0.00,-6.41,6.41,24.45,1142,1310,1290,1158,1255,1500,1515,10771,801
23126,1,37.56,26.73,-1.88,-0.057,-0.138,1.058,-2.11,2.97,0.00,0.00,2.11,-2.97,0.00,7.45,-10.09,-30.12,-36.82,0.00,-7.51,-5.47,-8.77,1142,1310,1290,1158,1257,1500,1515,10762,801
23138,1,-6.88,-29.09,-2.94,0.080,-0.213,0.853,-3.66,4.51,0.00,0.00,3.66,-4.51,0.00,12.91,-15.55,19.78,13.54,0.00,1.23,4.55,13.95,1210,1304,1294,1220,1263,1500,1515,10754,816
23150,1,-19.17,58.03,-1.48,-0.075,-0.124,1.121,-1.52,1.63,0.00,0.00,1.52,-1.63,0.00,5.44,-5.49,24.61,-63.53,0.00,3.99,-11.36,-28.83,1210,1304,1294,1220,1263,1500,1515,10737,816
23162,1,-23.78,2.89,-3.05,0.156,-0.095,0.930,-1.75,3.66,0.00,0.00,1.75,-3.66,0.00,6.24,-12.60,30.02,-15.50,0.00,5.13,-1.76,29.64,1210,1304,1294,1220,1252,1499,1516,10725,816
23174,1,-9.78,38.12,-4.68,0.013,0.051,1.094,0.87,0.11,0.00,0.00,-0.87,-0.11,0.00,-2.92,-0.19,6.85,-38.31,0.00,2.14,-7.96,36.08,1210,1304,1294,1220,1252,1499,1516,10725,816
23186,1,-12.54,-55.79,-6.60,0.224,-0.019,0.924,0.97,0.98,0.00,0.00,-0.97,-0.98,0.00,-3.29,-3.22,9.25,52.56,0.00,2.90,11.46,54.95,1210,1304,1294,1220,1256,1500,1515,10721,816
23198,1,7.72,-49.62,-11.33,-0.023,0.041,0.975,0.50,0.79,0.00,0.00,-0.50,-0.79,0.00,-1.64,-2.57,-9.35,47.05,0.00,-1.46,9.11,139.34,1210,1304,1294,1220,1259,1500,1515,10729,816
23210,1,25.61,-21.71,-7.64,-0.167,0.016,1.101,1.41,-2.17,0.00,0.00,-1.41,2.17,0.00,-4.82,7.77,-30.44,29.49,0.00,-5.10,6.11,45.64,1210,1304,1294,1220,1259,1500,1515,10725,816
23222,1,26.01,-7.97,-6.00,-0.111,-0.070,1.028,0.77,-0.22,0.00,0.00,-0.77,0.22,0.00,-2.59,0.95,-28.60,8.91,0.00,-5.36,2.12,16.62,1210,1304,1294,1220,1263,1500,1515,10717,816
23234,1,17.63,66.68,-6.75,-0.239,-0.088,1.080,-0.01,-0.59,0.00,0.00,0.01,0.59,0.00,0.12,2.23,-17.51,-64.45,0.00,-3.79,-13.66,19.94,1247,1273,1289,1243,1263,1500,1515,10729,1064
23246,1,11.26,55.91,-7.35,-0.132,-0.080,1.028,0.00,-2.66,0.00,0.00,-0.00,2.66,0.00,0.09,9.50,-11.17,-46.41,0.00,-2.54,-9.94,19.32,1247,1273,1289,1243,1260,1500,1515,10733,1064
23258,1,7.31,30.97,-6.59,0.138,-0.076,0.947,0.46,-0.44,0.00,0.00,-0.46,0.44,0.00,-1.52,1.77,-8.82,-29.20,0.00,-1.55,-6.69,-8.18,1247,1273,1289,1243,1263,1500,1515,10737,1064
23270,1,-2.22,27.36,-6.91,0.084,-0.086,0.978,0.48,-0.51,0.00,0.00,-0.48,0.51,0.00,-1.59,2.01,0.63,-25.35,0.00,0.41,-6.12,-1.61,1247,1273,1289,1243,1263,1500,1515,10746,1064
23282,1,-21.05,-23.80,-9.95,0.031,-0.097,0.934,-0.14,-2.26,0.00,0.00,0.14,2.26,0.00,0.55,8.16,21.60,31.96,0.00,4.23,4.89,62.41,1247,1273,1289,1243,1270,1500,1515,10737,1064
23294,1,-23.81,-20.03,-11.39,-0.028,-0.045,1.070,0.76,-4.90,0.00,0.00,-0.76,4.90,0.00,-2.59,17.47,21.22,37.50,0.00,4.74,6.25,69.18,1247,1273,1289,1243,1270,1500,1515,10746,1064
23306,1,-22.57,-35.48,-7.83,0.082,-0.023,1.019,0.93,-2.21,0.00,0.00,-0.93,2.21,0.00,-3.18,8.08,19.39,43.56,0.00,4.55,7.96,7.36,1247,1273,1289,1243,1283,1500,1515,10746,1064
23318,1,-15.70,-32.71,-9.94,0.105,-0.007,0.992,1.38,0.74,0.00,0.00,-1.38,-0.74,0.00,-4.77,-2.26,10.93,30.45,0.00,3.33,6.40,57.40,1247,1273,1289,1243,1283,1500,1515,10708,1064
23330,1,-14.02,-22.72,-9.70,0.076,0.020,1.054,1.65,2.30,0.00,0.00,-1.65,-2.30,0.00,-5.72,-7.75,8.30,14.97,0.00,3.21,4.32,47.53,1229,1331,1329,1243,1283,1500,1515,10704,1024
23342,1,-11.24,-16.07,-6.73,0.050,-0.022,1.046,-0.10,4.29,0.00,0.00,0.10,-4.29,0.00,0.38,-14.75,11.62,1.31,0.00,2.74,2.32,5.98,1229,1331,1329,1243,1276,1500,1515,10696,1024
23354,1,-7.70,-22.31,-10.46,0.035,-0.029,1.019,-1.00,4.26,0.00,0.00,1.00,-4.26,0.00,3.54,-14.68,11.24,7.64,0.00,1.98,3.96,73.41,1229,1331,1329,1243,1276,1500,1515,10696,1024
23366,1,2.02,-21.84,-10.99,-0.021,-0.041,1.018,-0.82,2.00,0.00,0.00,0.82,-2.00,0.00,2.92,-6.80,0.90,15.04,0.00,-0.03,5.72,66.46,1229,1331,1329,1243,1281,1500,1515,10683,1024
23379,1,0.46,-13.58,-9.13,-0.055,-0.111,1.062,-2.15,1.12,0.00,0.00,2.15,-1.12,0.00,7.61,-3.73,7.15,9.85,0.00,0.34,3.65,20.42,1229,1331,1329,1243,1280,1500,1515,10675,1024
23390,1,8.33,19.67,-8.27,-0.107,-0.094,1.085,-3.13,0.09,0.00,0.00,3.13,-0.09,0.00,11.05,-0.16,2.72,-19.83,0.00,-1.33,-3.48,40.17,1229,1331,1329,1243,1280,1500,1515,10671,1024
23402,1,13.79,42.66,-9.46,-0.153,-0.038,1.122,-2.17,-1.65,0.00,0.00,2.17,1.65,0.00,7.72,5.95,-6.07,-36.71,0.00,-2.44,-7.83,10.78,1229,1331,1329,1243,1282,1500,1515,10683,1024
23414,1,19.04,28.14,-9.50,-0.121,-0.050,1.101,-1.77,-2.60,0.00,0.00,1.77,2.60,0.00,6.36,9.31,-12.68,-18.83,0.00,-3.53,-4.86,4.73,1229,1331,1329,1243,1282,1500,1515,10704,1024
23426,1,14.44,-0.19,-8.79,-0.029,-0.123,1.056,-2.53,-2.83,0.00,0.00,2.53,2.83,0.00,9.03,10.13,-5.41,10.31,0.00,-2.65,1.09,9.30,1229,1331,1329,1243,1285,1500,1515,10688,1024
23438,1,17.72,14.10,-8.19,-0.108,-0.126,1.032,-3.79,-2.18,0.00,0.00,3.79,2.18,0.00,13.46,7.88,-4.26,-6.22,0.00,-3.12,-3.14,26.06,1368,1196,1194,1382,1285,1500,1515,10700,874
23450,1,20.44,23.34,-7.44,-0.207,-0.049,1.101,-3.30,-3.71,0.00,0.00,3.30,3.71,0.00,11.77,13.27,-8.66,-10.07,0.00,-3.46,-4.36,23.27,1368,1196,1194,1382,1285,1500,1515,10696,874
23462,1,17.14,1.54,-5.46,-0.200,-0.024,1.126,-1.80,-5.45,0.00,0.00,1.80,5.45,0.00,6.56,19.40,-10.58,17.86,0.00,-3.01,2.01,-22.24,1368,1196,1194,1382,1291,1500,1515,10683,874
23474,1,25.15,10.35,-1.17,-0.100,-0.042,1.115,-1.37,-3.42,0.00,0.00,1.37,3.42,0.00,5.05,12.32,-20.10,1.97,0.00,-4.51,-0.84,-89.52,1368,1196,1194,1382,1291,1500,1515,10667,874
23486,1,13.33,25.89,-2.93,-0.038,-0.067,1.035,-1.39,-1.31,0.00,0.00,1.39,1.31,0.00,5.14,4.96,-8.19,-20.92,0.00,-2.13,-4.98,-51.57,1368,1196,1194,1382,1302,1500,1515,10683,874
23498,1,9.84,12.64,-4.90,0.030,-0.047,0.943,-1.68,0.69,0.00,0.00,1.68,-0.69,0.00,6.17,-2.06,-3.67,-14.70,0.00,-1.44,-3.11,-22.09,1368,1196,1194,1382,1302,1500,1515,10692,874
23510,1,9.70,-2.75,-5.85,0.028,-0.022,0.967,-1.43,1.09,0.00,0.00,1.43,-1.09,0.00,5.31,-3.47,-4.39,-0.72,0.00,-1.47,-0.33,-18.00,1368,1196,1194,1382,1302,1500,1515,10658,874
23522,1,21.15,11.54,-5.71,-0.108,-0.019,1.049,-1.23,-1.89,0.00,0.00,1.23,1.89,0.00,4.64,6.97,-16.52,-4.57,0.00,-3.80,-2.37,-19.15,1368,1196,1194,1382,1302,1500,1515,10650,874
23534,1,30.49,23.53,-5.38,-0.265,-0.030,1.134,-1.70,-6.07,0.00,0.00,1.70,6.07,0.00,6.29,21.67,-24.20,-1.87,0.00,-5.83,-3.14,-24.10,1217,1387,1383,1221,1302,1500,1515,10650,801
23546,1,29.94,31.01,-6.39,-0.418,-0.034,1.278,-1.36,-10.97,0.00,0.00,1.36,10.97,0.00,5.13,38.89,-24.81,7.88,0.00,-5.97,-2.40,3.83,1217,1387,1383,1221,1305,1500,1515,10642,801
23559,1,28.58,27.38,-5.60,-0.536,0.120,1.361,0.26,-13.83,0.00,0.00,-0.26,13.83,0.00,-0.56,49.03,-29.14,21.65,0.00,-6.49,-2.54,-15.91,1217,1387,1383,1221,1302,1500,1515,10650,801
23570,1,43.62,42.27,-6.72,-0.308,0.075,1.244,2.45,-13.39,0.00,0.00,-2.45,13.39,0.00,-8.23,47.60,-51.85,5.34,0.00,-9.84,-6.67,10.92,1217,1387,1383,1221,1302,1500,1515,10638,801
23582,1,34.35,12.82,-7.09,-0.071,0.015,1.054,2.50,-8.00,0.00,0.00,-2.50,8.00,0.00,-8.44,28.84,-42.79,16.02,0.00,-7.56,-2.36,24.19,1217,1387,1383,1221,1302,1500,1515,10629,801
23594,1,20.35,9.70,-7.54,0.058,-0.095,0.934,0.23,-1.53,0.00,0.00,-0.23,1.53,0.00,-0.49,6.25,-20.84,-3.45,0.00,-4.16,-3.33,40.75,1217,1387,1383,1221,1302,1500,1515,10650,801
23606,1,13.71,5.29,-8.75,0.121,-0.108,0.900,-2.12,3.03,0.00,0.00,2.12,-3.03,0.00,7.75,-9.73,-5.96,-15.02,0.00,-2.28,-2.74,72.19,1217,1387,1383,1221,1312,1500,1515,10667,801
23618,1,10.85,18.37,-8.28,0.123,-0.164,0.935,-3.88,5.60,0.00,0.00,3.88,-5.60,0.00,13.93,-18.80,3.09,-37.17,0.00,-1.79,-5.35,78.37,1217,1387,1383,1221,1312,1500,1515,10625,801
23630,1,25.08,50.69,-6.83,0.057,-0.122,0.965,-4.37,6.67,0.00,0.00,4.37,-6.67,0.00,15.68,-22.60,-9.39,-73.29,0.00,-4.82,-11.31,54.00,1274,1358,1372,1244,1312,1500,1515,10638,801
23642,1,24.26,46.91,-7.24,-0.016,-0.033,1.034,-3.09,6.78,0.00,0.00,3.09,-6.78,0.00,11.23,-23.04,-13.03,-69.96,0.00,-4.83,-10.84,52.85,1274,1358,1372,1244,1314,1500,1515,10621,801
23654,1,34.74,62.77,-8.14,0.073,-0.045,0.979,-0.40,5.90,0.00,0.00,0.40,-5.90,0.00,1.83,-20.04,-32.91,-82.80,0.00,-7.19,-14.87,57.12,1274,1358,1372,1244,1314,1500,1515,10617,801
23666,1,30.04,76.17,-10.96,0.181,-0.108,0.971,-0.19,9.20,0.00,0.00,0.19,-9.20,0.00,1.10,-31.64,-28.94,-107.81,0.00,-6.20,-17.68,84.45,1274,1358,1372,1244,1311,1500,1515,10629,801
23678,1,45.90,74.65,-8.19,-0.057,0.030,1.129,2.52,5.11,0.00,0.00,-2.52,-5.11,0.00,-8.41,-17.41,-54.30,-92.07,0.00,-9.30,-16.39,12.97,1274,1358,1372,1244,1319,1500,1515,10592,801
23690,1,45.07,63.72,-6.68,0.034,0.026,1.024,4.48,3.70,0.00,0.00,-4.48,-3.70,0.00,-15.30,-12.48,-60.38,-76.20,0.00,-9.56,-15.31,-23.89,1274,1358,1372,1244,1319,1500,1515,10608,801
23702,1,40.30,77.14,-5.36,0.029,0.013,1.127,4.97,2.74,0.00,0.00,-4.97,-2.74,0.00,-17.07,-9.16,-57.37,-86.30,0.00,-8.98,-18.11,-47.34,1274,1358,1372,1244,1323,1500,1515,10583,801
23714,1,38.61,74.48,-3.92,0.009,0.044,1.111,5.41,2.28,0.00,0.00,-5.41,-2.28,0.00,-18.67,-7.57,-57.28,-82.05,0.00,-8.97,-16.99,-53.78,1274,1358,1372,1244,1323,1500,1515,10583,801
23726,1,24.74,52.25,-2.76,0.021,0.027,1.055,5.44,2.12,0.00,0.00,-5.44,-2.12,0.00,-18.81,-7.02,-43.55,-59.27,0.00,-5.91,-11.74,-51.77,1274,1358,1372,1244,1331,1500,1515,10613,801
23738,1,19.70,42.35,-1.81,-0.022,0.003,1.043,4.73,0.84,0.00,0.00,-4.73,-0.84,0.00,-16.41,-2.58,-36.11,-44.92,0.00,-4.69,-9.50,-46.75,1418,1244,1244,1418,1325,1500,1515,10642,801
23750,1,18.39,37.02,-2.71,-0.176,0.041,1.055,3.94,-1.92,0.00,0.00,-3.94,1.92,0.00,-13.66,7.12,-32.05,-29.90,0.00,-4.42,-8.21,-27.58,1418,1244,1244,1418,1325,1500,1515,10625,801
23762,1,18.18,0.84,-3.74,-0.274,0.097,1.073,3.91,-5.96,0.00,0.00,-3.91,5.96,0.00,-13.60,21.29,-31.78,20.45,0.00,-4.40,0.33,-30.58,1418,1244,1244,1418,1326,1500,1515,10617,801
23774,1,21.30,-2.45,-5.55,-0.383,0.160,1.193,5.06,-10.70,0.00,0.00,-5.06,10.70,0.00,-17.66,37.96,-38.96,40.41,0.00,-4.92,2.37,-23.10,1418,1244,1244,1418,1326,1500,1515,10617,801
23786,1,17.64,-19.38,-6.13,-0.413,0.189,1.235,6.20,-13.94,0.00,0.00,-6.20,13.94,0.00,-21.73,49.43,-39.37,68.81,0.00,-3.94,6.52,-31.73,1418,1244,1244,1418,1330,1500,1515,10604,801
23798,1,10.86,-24.80,-6.76,-0.389,0.152,1.263,6.66,-15.90,0.00,0.00,-6.66,15.90,0.00,-23.40,56.45,-34.26,81.25,0.00,-2.17,8.25,-22.71,1418,1244,1244,1418,1342,1500,1515,10600,801
23810,1,3.40,-16.36,-6.36,-0.416,0.142,1.334,6.82,-16.90,0.00,0.00,-6.82,16.90,0.00,-24.02,60.10,-27.42,76.46,0.00,-0.33,6.70,-25.18,1418,1244,1244,1418,1342,1500,1515,10592,801
23822,1,-3.54,-18.86,-2.75,-0.388,0.113,1.383,6.61,-17.12,0.00,0.00,-6.61,17.12,0.00,-23.33,61.02,-19.79,79.89,0.00,1.07,7.66,-84.87,1418,1244,1244,1418,1342,1500,1515,10613,801
23834,1,-2.00,-17.30,1.50,-0.323,0.103,1.393,6.59,-16.53,0.00,0.00,-6.59,16.53,0.00,-23.34,59.13,-21.34,76.43,0.00,0.83,7.15,-139.05,1279,1419,1417,1253,1342,1500,1515,10600,801
23846,1,6.50,-10.96,3.39,-0.324,0.152,1.353,6.73,-15.38,0.00,0.00,-6.73,15.38,0.00,-23.89,55.26,-30.39,66.22,0.00,-1.36,4.90,-147.65,1279,1419,1417,1253,1346,1500,1515,10579,801
23858,1,3.41,-5.66,1.24,-0.412,0.220,1.437,7.53,-15.51,0.00,0.00,-7.53,15.51,0.00,-26.76,55.87,-30.17,61.53,0.00,-1.34,4.27,-98.49,1279,1419,1417,1253,1347,1500,1515,10567,801
23870,1,-8.57,-23.25,-2.06,-0.436,0.266,1.456,8.60,-16.27,0.00,0.00,-8.60,16.27,0.00,-30.57,58.67,-21.99,81.92,0.00,0.43,7.72,-27.82,1279,1419,1417,1253,1347,1500,1515,10563,801
23882,1,-19.98,-27.82,-2.18,-0.509,0.256,1.505,9.20,-17.50,0.00,0.00,-9.20,17.50,0.00,-32.73,63.14,-12.75,90.96,0.00,2.14,7.98,-25.29,1279,1419,1417,1253,1347,1500,1515,10567,801
23894,1,-22.71,-16.31,-4.83,-0.635,0.225,1.548,8.99,-19.08,0.00,0.00,-8.99,19.08,0.00,-32.09,68.85,-9.38,85.16,0.00,1.92,5.07,25.06,1279,1419,1417,1253,1347,1500,1515,10571,801
23906,1,-27.73,-40.61,-6.49,-0.552,0.208,1.498,8.72,-19.93,0.00,0.00,-8.72,19.93,0.00,-31.23,72.00,-3.50,112.62,0.00,2.21,9.76,32.91,1279,1419,1417,1253,1351,1500,1515,10546,801
23918,1,-38.95,-44.82,-8.44,-0.468,0.160,1.449,8.28,-19.51,0.00,0.00,-8.28,19.51,0.00,-29.75,70.71,9.20,115.53,0.00,4.09,9.14,58.02,1279,1419,1417,1253,1357,1500,1515,10509,801
23930,1,-50.42,-80.28,-7.54,-0.226,0.070,1.244,7.20,-16.97,0.00,0.00,-7.20,16.97,0.00,-26.05,62.02,24.37,142.30,0.00,6.00,14.37,32.53,1306,1398,1380,1344,1357,1500,1515,10534,801
23942,1,-51.22,-88.00,-8.52,0.043,-0.042,1.056,5.80,-11.74,0.00,0.00,-5.80,11.74,0.00,-21.19,43.84,30.03,131.84,0.00,6.10,14.30,58.72,1306,1398,1380,1344,1361,1500,1515,10521,801
23954,1,-37.55,-60.43,-5.48,0.138,-0.130,0.915,3.62,-5.05,0.00,0.00,-3.62,5.05,0.00,-13.64,20.51,23.91,80.94,0.00,3.38,6.97,16.00,1306,1398,1380,1344,1361,1500,1515,10525,801
23966,1,-22.64,-33.28,-6.13,0.155,-0.156,0.929,1.40,-0.66,0.00,0.00,-1.40,0.66,0.00,-5.87,5.14,16.76,38.42,0.00,0.34,1.90,26.13,1306,1398,1380,1344,1362,1500,1515,10509,801
23978,17,-21.20,-17.33,-8.78,0.073,-0.146,1.038,0.06,0.22,0.00,0.00,-0.06,-0.22,0.00,-1.19,2.08,20.01,19.41,0.00,-0.01,-0.86,66.36,1306,1398,1380,1344,1364,1500,1515,10484,801
23990,1,-13.30,13.28,-9.74,-0.116,-0.111,1.137,-0.09,-2.45,0.00,0.00,0.09,2.45,0.00,-0.70,11.45,12.60,-1.84,0.00,-1.83,-5.81,76.72,1306,1398,1380,1344,1364,1500,1515,10521,801
24002,1,-5.90,24.58,-8.88,-0.239,-0.027,1.241,0.40,-5.24,0.00,0.00,-0.40,5.24,0.00,-2.40,21.26,3.50,-3.33,0.00,-3.83,-7.86,41.74,1306,1398,1380,1344,1365,1500,1515,10504,801
24014,1,-21.69,-11.01,-7.81,-0.170,0.022,1.222,0.73,-5.98,0.00,0.00,-0.73,5.98,0.00,-3.56,23.90,18.13,34.91,0.00,-1.04,-1.68,6.47,1306,1398,1380,1344,1365,1500,1515,10500,801
24026,17,-42.96,-19.58,-7.63,-0.060,-0.023,1.246,0.18,-5.19,0.00,0.00,-0.18,5.19,0.00,-1.63,21.20,41.33,40.77,0.00,3.15,-0.46,14.13,1306,1398,1380,1344,1368,1500,1515,10496,801
24038,17,-52.25,-48.66,-3.59,0.149,-0.061,1.125,-0.76,0.01,0.00,0.00,0.76,-0.01,0.00,1.67,2.99,53.92,51.65,0.00,4.94,4.36,-66.26,1327,1399,1397,1349,1368,1500,1515,10479,801
24050,17,-51.51,-11.52,-0.31,-0.075,-0.026,1.203,-0.14,-0.24,0.00,0.00,0.14,0.24,0.00,-0.52,3.85,50.99,15.38,0.00,4.28,-1.38,-121.01,1327,1399,1397,1349,1368,1500,1515,10488,801
24062,17,-51.84,-0.03,-5.31,-0.247,-0.005,1.399,0.12,-4.43,0.00,0.00,-0.12,4.43,0.00,-1.39,18.55,50.45,18.58,0.00,3.48,-2.28,-27.22,1327,1399,1397,1349,1370,1500,1515,10496,801
24074,17,-64.25,-20.07,-5.72,-0.249,0.020,1.351,1.22,-6.92,0.00,0.00,-1.22,6.92,0.00,-5.25,27.33,59.00,47.40,0.00,5.08,-0.57,-5.70,1327,1399,1397,1349,1370,1500,1515,10496,801
24086,17,-69.53,-71.35,-7.79,0.107,-0.124,1.081,0.61,-2.77,0.00,0.00,-0.61,2.77,0.00,-3.13,12.86,66.40,84.21,0.00,5.53,7.25,83.03,1327,1399,1397,1349,1373,1500,1515,10479,801
24098,17,-59.51,-68.21,-14.84,0.410,-0.144,0.853,-1.53,7.22,0.00,0.00,1.53,-7.22,0.00,4.36,-22.15,63.87,46.06,0.00,3.19,4.48,240.51,1327,1399,1397,1349,1370,1500,1515,10492,801
24110,1,-59.66,14.20,-15.93,0.053,-0.104,1.005,-2.89,7.42,0.00,0.00,2.89,-7.42,0.00,9.13,-22.92,68.79,-37.12,0.00,3.22,-9.65,251.08,1327,1399,1397,1349,1370,1500,1515,10504,801
24122,1,-68.76,-33.88,-7.58,-0.228,0.012,1.267,-2.26,0.24,0.00,0.00,2.26,-0.24,0.00,6.97,2.19,75.73,36.07,0.00,4.79,2.28,27.06,1327,1399,1397,1349,1370,1500,1515,10509,801
24134,17,-89.11,-92.00,5.15,-0.015,0.035,1.230,-0.27,-2.27,0.00,0.00,0.27,2.27,0.00,-0.01,10.97,89.10,102.97,0.00,8.36,11.57,-244.12,1100,1500,1500,1100,1370,1500,1515,10496,801
24146,1,-96.84,-87.51,2.26,0.288,-0.122,1.026,-2.15,4.70,0.00,0.00,2.15,-4.70,0.00,6.61,-13.42,103.45,74.08,0.00,9.36,6.96,-150.12,1100,1500,1500,1100,1370,1500,1515,10500,801
24158,1,-92.10,-46.53,-12.52,-0.047,-0.079,1.230,-2.79,2.45,0.00,0.00,2.79,-2.45,0.00,8.87,-5.58,100.97,40.95,0.00,8.11,1.59,100.36,1100,1500,1500,1100,1378,1500,1515,10504,801
24170,1,-88.27,-86.75,-11.53,-0.158,-0.034,1.266,-0.69,-3.74,0.00,0.00,0.69,3.74,0.00,1.53,16.08,89.80,102.83,0.00,6.52,10.26,44.26,1100,1500,1500,1100,1378,1500,1515,10521,801
24182,1,-85.02,-109.70,-9.71,0.136,-0.124,0.997,-0.79,-0.82,0.00,0.00,0.79,0.82,0.00,1.91,5.91,86.93,115.61,0.00,5.20,10.31,32.86,1100,1500,1500,1100,1377,1500,1515,10542,801
24194,1,-81.94,-91.36,-15.91,0.301,-0.252,0.854,-3.91,6.03,0.00,0.00,3.91,-6.03,0.00,12.83,-18.12,94.78,73.24,0.00,5.19,5.39,168.99,1100,1500,1500,1100,1377,1500,1515,10534,801
24206,1,-63.20,-40.72,-19.22,0.091,-0.227,1.052,-4.79,5.05,0.00,0.00,4.79,-5.05,0.00,15.93,-14.75,79.13,25.97,0.00,1.88,-2.76,215.09,1100,1500,1500,1100,1379,1500,1515,10529,801
24218,1,-36.45,-36.73,-11.80,-0.099,-0.091,1.148,-2.58,0.86,0.00,0.00,2.58,-0.86,0.00,8.24,-0.09,44.69,36.65,0.00,-3.30,-2.88,57.68,1100,1500,1500,1100,1378,1500,1515,10529,801
24230,1,-27.14,-22.40,-4.15,-0.191,-0.020,1.195,-1.27,-1.97,0.00,0.00,1.27,1.97,0.00,3.66,9.80,30.79,32.20,0.00,-5.05,-6.48,-69.18,1458,1308,1310,1436,1378,1500,1515,10529,801
24242,1,-43.99,-84.33,-3.83,-0.079,-0.007,1.152,-1.50,-2.84,0.00,0.00,1.50,2.84,0.00,4.49,12.88,48.47,97.21,0.00,-0.99,6.21,-64.16,1458,1308,1310,1436,1374,1500,1515,10550,801
24254,1,-56.60,-128.54,-3.27,-0.046,-0.000,1.061,-1.07,-3.28,0.00,0.00,1.07,3.28,0.00,2.98,14.46,59.58,143.00,0.00,2.20,15.20,-71.43,1458,1308,1310,1436,1374,1500,1515,10529,801
24266,1,-58.81,-125.06,-6.85,-0.101,0.028,1.123,0.30,-5.87,0.00,0.00,-0.30,5.87,0.00,-1.80,23.59,57.01,148.65,0.00,2.61,15.90,-4.92,1458,1308,1310,1436,1367,1500,1515,10521,801
24278,17,-69.96,-141.12,-10.09,0.033,-0.035,1.060,0.23,-5.65,0.00,0.00,-0.23,5.65,0.00,-1.56,22.85,68.41,163.97,0.00,5.00,17.41,59.83,1458,1308,1310,1436,1367,1500,1515,10479,801
24290,17,-69.65,-114.88,-14.79,0.098,-0.141,0.985,-0.98,-3.83,0.00,0.00,0.98,3.83,0.00,2.68,16.53,72.33,131.41,0.00,5.39,10.88,156.76,1458,1308,1310,1436,1367,1500,1515,10467,801
24302,17,-51.80,-119.59,-15.60,0.152,-0.238,0.857,-3.96,-0.32,0.00,0.00,3.96,0.32,0.00,13.12,4.26,64.92,123.85,0.00,2.47,10.75,172.87,1458,1308,1310,1436,1364,1500,1515,10467,801
24314,17,-32.00,-90.49,-18.18,0.190,-0.222,0.963,-4.96,1.00,0.00,0.00,4.96,-1.00,0.00,16.69,-0.34,48.69,90.15,0.00,-0.93,5.37,208.22,1458,1308,1310,1436,1364,1500,1515,10471,801
24326,17,-27.29,-33.27,-16.79,0.029,-0.073,1.100,-3.24,0.46,0.00,0.00,3.24,-0.46,0.00,10.67,1.54,37.96,34.81,0.00,-1.89,-5.98,167.17,1458,1308,1310,1436,1363,1500,1515,10492,801
24338,17,-35.40,-28.20,-11.51,-0.220,0.083,1.208,-0.39,-2.22,0.00,0.00,0.39,2.22,0.00,0.71,10.93,36.11,39.13,0.00,-0.61,-7.16,46.70,1449,1267,1249,1487,1354,1500,1515,10479,801
24350,17,-80.55,-131.26,-6.09,-0.022,-0.128,1.000,-3.13,-2.88,0.00,0.00,3.13,2.88,0.00,10.32,13.25,90.87,144.51,0.00,8.59,13.29,-80.35,1449,1267,1249,1487,1354,1500,1515,10488,801
24362,1,-90.24,-150.77,-6.60,0.285,-0.170,0.816,-7.93,4.99,0.00,0.00,7.93,-4.99,0.00,27.20,-14.33,117.44,136.44,0.00,11.00,13.39,-58.86,1449,1267,1249,1487,1328,1500,1515,10504,801
24374,1,-73.86,-87.43,-15.55,0.093,-0.177,0.985,-7.53,5.02,0.00,0.00,7.53,-5.02,0.00,25.88,-14.48,99.75,72.95,0.00,8.10,1.96,121.56,1449,1267,1249,1487,1328,1500,1515,10525,801
24386,1,-55.21,-86.80,-14.83,-0.058,-0.133,1.018,-5.74,1.77,0.00,0.00,5.74,-1.77,0.00,19.68,-3.14,74.90,83.67,0.00,4.10,2.84,89.15,1449,1267,1249,1487,1263,1500,1515,10521,801
24398,1,-41.84,-92.83,-14.26,-0.133,-0.119,1.070,-3.59,-3.25,0.00,0.00,3.59,3.25,0.00,12.21,14.46,54.05,107.29,0.00,1.21,5.05,69.94,1449,1267,1249,1487,1237,1500,1515,10513,801
24410,1,-22.96,-101.08,-12.93,-0.109,-0.117,1.051,-1.99,-6.30,0.00,0.00,1.99,6.30,0.00,6.62,25.17,29.58,126.25,0.00,-2.43,6.27,59.33,1449,1267,1249,1487,1237,1500,1515,10504,801
24422,9,1.31,-91.11,-12.96,0.025,-0.087,1.014,-1.62,-5.08,0.00,0.00,1.62,5.08,0.00,5.67,17.77,4.36,108.87,0.00,-7.38,2.11,166.41,1449,1267,1249,1487,1040,1500,1515,10546,801
24434,9,9.06,-77.66,-12.08,0.300,-0.076,0.882,-3.05,3.87,0.00,0.00,3.05,-3.87,0.00,10.67,-13.56,1.61,64.10,0.00,-8.25,-3.16,168.48,1100,1100,1100,1100,1040,1500,1515,10563,805
24446,9,12.49,-39.40,-8.96,0.427,-0.147,0.813,-7.69,16.80,0.00,0.00,7.69,-16.80,0.00,26.93,-58.80,14.44,-19.39,0.00,-7.75,-13.11,144.11,1100,1100,1100,1100,1040,1500,1515,10596,805
24458,9,11.94,-23.27,-5.02,0.554,-0.259,0.716,-15.49,29.56,0.00,0.00,15.49,-29.56,0.00,54.21,-103.46,42.27,-80.18,0.00,-5.58,-18.09,74.38,1100,1100,1100,1100,1040,1500,1515,10642,805
24470,9,27.58,-8.16,-2.28,0.574,-0.451,0.654,-23.38,39.11,0.00,0.00,23.38,-39.11,0.00,81.83,-136.90,54.24,-128.74,0.00,-6.38,-22.39,58.53,1100,1100,1100,1100,1040,1500,1515,10688,805
24482,9,18.01,-149.27,-2.35,0.786,-0.273,0.603,-22.98,44.02,0.00,0.00,22.98,-44.02,0.00,80.42,-150.00,62.42,-0.73,0.00,-0.13,9.42,-12.31,1100,1100,1100,1100,1039,1500,1515,10717,805
24494,9,137.92,73.72,-12.77,0.357,-0.097,0.865,-20.65,42.33,0.00,0.00,20.65,-42.33,0.00,72.27,-148.16,-65.65,-221.88,0.00,-21.24,-30.64,163.12,1100,1100,1100,1100,1039,1500,1515,10754,805
24506,9,110.81,181.88,-11.83,0.493,-0.174,0.927,-15.81,40.15,0.00,0.00,15.81,-40.15,0.00,55.32,-140.51,-55.49,-322.39,0.00,-13.15,-48.03,116.33,1100,1100,1100,1100,1037,1500,1515,10796,805
24518,9,23.64,-16.76,-17.95,0.471,-0.416,0.504,-22.34,38.70,0.00,0.00,22.34,-38.70,0.00,78.18,-135.46,54.54,-118.70,0.00,7.62,-5.35,248.77,1100,1100,1100,1100,1037,1500,1515,10846,805
24530,9,87.03,46.39,-19.05,0.102,0.036,0.711,-15.86,25.24,0.00,0.00,15.86,-25.24,0.00,55.52,-88.35,-31.52,-134.74,0.00,-5.07,-12.93,235.35,1100,1100,1100,1100,1037,1500,1515,10871,813
24542,9,83.24,25.60,-7.87,0.146,-0.203,0.401,-14.32,19.86,0.00,0.00,14.32,-19.86,0.00,50.12,-69.52,-33.12,-95.12,0.00,-3.27,-10.47,-63.12,1100,1100,1100,1100,1040,1500,1515,10891,813
24554,9,145.14,28.17,-11.73,0.069,-0.080,0.610,-8.80,7.78,0.00,0.00,8.80,-7.78,0.00,30.81,-27.25,-114.33,-55.42,0.00,-16.09,-6.61,10.81,1100,1100,1100,1100,1040,1500,1515,10900,813
24566,9,115.91,16.66,-30.18,0.285,-0.186,0.751,-9.75,11.05,0.00,0.00,9.75,-11.05,0.00,34.11,-38.68,-81.79,-55.34,0.00,-6.91,-2.20,289.45,1100,1100,1100,1100,1033,1500,1515,10908,813
24578,9,171.11,-48.27,-37.43,0.774,-0.019,0.430,-9.87,27.82,0.00,0.00,9.87,-27.82,0.00,34.55,-97.39,-136.56,-49.12,0.00,-14.07,8.86,325.12,1100,1100,1100,1100,1033,1501,1514,10921,813
24590,9,194.09,106.97,-42.13,0.297,-0.084,0.592,-18.87,39.62,0.00,0.00,18.87,-39.62,0.00,66.06,-138.66,-128.02,-245.63,0.00,-16.10,-29.13,339.46,1100,1100,1100,1100,1033,1501,1514,10929,813
24602,13,146.87,43.63,-31.45,0.479,-0.223,0.462,-22.87,46.23,0.00,0.00,22.87,-46.23,0.00,80.04,-375.00,-66.83,-418.63,0.00,-4.19,-21.95,66.37,1100,1100,1100,1100,1033,1500,1515,10929,813
24614,13,126.51,62.54,-47.84,0.481,-0.226,0.377,-24.94,47.89,0.00,0.00,24.94,-47.89,0.00,87.30,-375.00,-39.21,-437.54,0.00,1.55,-24.14,291.66,1100,1100,1100,1100,1033,1500,1515,10925,813
24626,9,136.73,1.77,-56.84,0.488,-0.335,0.430,-26.37,41.74,0.00,0.00,26.37,-41.74,0.00,92.29,-146.10,-44.44,-147.87,0.00,1.77,-0.98,350.00,1100,1100,1100,1100,1032,1500,1515,10937,813
24638,9,201.76,-29.92,-65.36,0.632,-0.482,0.330,-33.54,41.75,0.00,0.00,33.54,-41.75,0.00,117.39,-146.11,-84.37,-116.19,0.00,-8.85,6.57,350.00,1100,1100,1100,1100,1032,1500,1515,10941,821
24650,9,189.32,81.18,-67.38,0.289,-0.288,0.371,-39.80,43.93,0.00,0.00,39.80,-43.93,0.00,139.31,-150.00,-50.01,-231.18,0.00,-4.32,-17.95,350.00,1100,1100,1100,1100,1032,1500,1515,10921,821
24662,9,169.81,55.01,-68.27,0.274,-0.159,0.286,-37.78,44.13,0.00,0.00,37.78,-44.13,0.00,132.23,-150.00,-37.58,-205.01,0.00,0.81,-12.79,350.00,1100,1100,1100,1100,1032,1500,1515,10921,821
24674,9,223.30,82.98,-78.98,0.254,-0.036,0.497,-33.57,43.39,0.00,0.00,33.57,-43.39,0.00,117.48,-150.00,-105.82,-232.98,0.00,-9.38,-19.27,350.00,1100,1100,1100,1100,1032,1500,1515,10912,821
24686,13,79.69,152.29,55.40,1.642,-0.223,1.378,-22.44,46.71,0.00,0.00,22.44,-46.71,0.00,78.54,-375.00,-1.16,-527.29,0.00,12.36,-35.85,-350.00,1100,1100,1100,1100,1032,1500,1515,10908,821
24698,13,10.17,360.57,184.20,1.985,0.155,1.694,-13.55,50.39,0.00,0.00,13.55,-50.39,0.00,47.43,-375.00,37.26,-735.57,0.00,16.69,-66.78,-350.00,1100,1100,1100,1100,1032,1500,1515,10908,821