time_ms,flags,gyro_x,gyro_y,gyro_z,accel_x,accel_y,accel_z,roll,pitch,rate_sp_roll,rate_sp_pitch,rate_err_roll,rate_err_pitch,rate_i_roll,rate_i_pitch,rate_i_yaw,pid_roll,pid_pitch,pid_yaw,m1,m2,m3,m4,rc_thr,rc_roll,rc_pitch,battery_mv,loop_us
127907,0,0.01,-0.04,-0.02,0.024,-0.073,0.999,0.00,0.00,0.00,0.00,-0.01,0.04,0.02,-0.01,0.00,-0.00,0.02,0.04,1000,1000,1000,1000,1027,1501,1519,0,732
127919,0,-0.01,0.02,-0.02,0.024,-0.073,0.999,0.00,0.00,0.00,0.00,0.01,-0.02,0.02,-0.01,0.00,0.05,-0.08,0.04,1100,1100,1100,1100,1027,1501,1519,0,727
127931,0,0.02,-0.04,-0.00,0.024,-0.073,0.998,0.00,0.00,0.00,0.00,-0.02,0.04,0.02,-0.01,0.00,-0.04,0.06,0.01,1100,1100,1100,1100,1027,1501,1519,0,727
127943,0,0.05,-0.00,-0.06,0.024,-0.073,0.998,0.00,0.00,0.00,0.00,-0.05,0.00,0.02,-0.01,0.00,-0.13,-0.02,0.14,1100,1100,1100,1100,1026,1501,1519,0,727
127955,0,0.01,0.01,-0.04,0.024,-0.073,0.998,0.00,0.00,0.00,0.00,-0.01,-0.01,0.02,-0.01,0.00,0.10,-0.14,0.12,1100,1100,1100,1100,1027,1501,1519,0,727
127967,0,0.00,0.03,-0.04,0.024,-0.073,0.998,0.00,0.00,0.00,0.00,-0.00,-0.03,0.02,-0.01,0.01,0.05,-0.09,0.11,1100,1100,1100,1100,1027,1501,1519,0,727
127979,0,0.01,0.03,-0.03,0.023,-0.073,0.999,0.00,0.00,0.00,0.00,-0.01,-0.03,0.02,-0.01,0.01,-0.03,-0.06,0.09,1100,1100,1100,1100,1025,1501,1520,0,727
127991,0,0.05,-0.02,-0.05,0.023,-0.074,1.000,0.00,0.00,0.00,0.00,-0.05,0.02,0.02,-0.01,0.01,-0.19,0.12,0.14,1100,1100,1100,1100,1025,1501,1520,0,727
128003,0,0.09,-0.01,-0.18,0.026,-0.072,0.998,0.00,0.00,0.00,0.00,-0.09,0.01,0.02,-0.01,0.01,-0.24,-0.20,0.47,1100,1100,1100,1100,1027,1501,1519,0,727
128015,0,-0.04,0.06,0.06,0.026,-0.072,0.999,0.00,0.00,0.00,0.00,0.04,-0.06,0.02,-0.01,0.01,0.29,-0.28,-0.12,1100,1100,1100,1100,1026,1501,1520,0,727
128027,0,-0.05,0.10,0.28,0.025,-0.073,1.000,0.00,0.00,0.00,0.00,0.05,-0.10,0.02,-0.01,0.01,0.27,-0.57,-0.68,1100,1100,1100,1100,1026,1501,1520,0,728
128039,0,0.03,0.04,-0.14,0.024,-0.072,1.000,0.00,0.00,0.00,0.00,-0.03,-0.04,0.02,-0.01,0.01,-0.06,-0.39,0.35,1100,1100,1100,1100,1026,1501,1520,0,728
128051,0,0.06,0.07,-0.26,0.024,-0.073,0.999,0.00,0.00,0.00,0.00,-0.06,-0.07,0.02,-0.01,0.02,-0.13,-0.48,0.67,1100,1100,1100,1100,1026,1501,1520,0,728
128063,0,0.01,0.08,0.08,0.024,-0.073,0.999,0.00,0.00,0.00,0.00,-0.01,-0.08,0.02,-0.01,0.02,0.02,-0.49,-0.18,1100,1100,1100,1100,1026,1500,1519,0,728
128075,0,-0.04,0.04,0.16,0.023,-0.073,1.000,0.00,0.00,0.00,0.00,0.04,-0.04,0.02,-0.01,0.01,0.11,-0.37,-0.38,1100,1100,1100,1100,1026,1501,1519,0,728
128087,0,-0.01,0.03,-0.26,0.023,-0.074,1.000,0.00,0.00,0.00,0.00,0.01,-0.03,0.02,-0.01,0.01,0.05,-0.24,0.66,1100,1100,1100,1100,1026,1501,1519,0,728
128099,0,-0.17,-0.06,0.10,0.021,-0.075,1.003,0.00,0.00,0.00,0.00,0.17,0.06,0.02,-0.01,0.02,0.59,0.09,-0.22,1100,1100,1100,1100,1027,1500,1520,0,728
128111,0,-0.16,0.35,0.03,0.020,-0.075,1.005,0.00,0.00,0.00,0.00,0.16,-0.35,0.02,-0.01,0.01,0.43,-1.39,-0.05,1100,1100,1100,1100,1027,1500,1520,0,728
128123,0,0.26,1.09,-0.13,0.022,-0.075,1.003,0.00,0.00,0.00,0.00,-0.26,-1.09,0.02,-0.01,0.02,-0.99,-3.74,0.35,1100,1100,1100,1100,1027,1501,1519,0,743
128135,0,0.13,1.51,0.16,0.018,-0.072,1.006,0.00,0.00,0.00,0.00,-0.13,-1.51,0.02,-0.02,0.02,-0.51,-4.21,-0.38,1100,1100,1100,1100,1027,1500,1519,0,743
128147,0,-0.42,1.11,-0.36,0.009,-0.076,1.009,0.00,0.00,0.00,0.00,0.42,-1.11,0.02,-0.02,0.02,1.06,-2.10,0.93,1100,1100,1100,1100,1027,1500,1519,0,743
128159,0,-0.05,1.36,-0.35,0.005,-0.071,1.014,0.00,0.00,0.00,0.00,0.05,-1.36,0.02,-0.02,0.04,0.18,-1.55,0.92,1100,1100,1100,1100,1027,1501,1519,0,743
128171,0,0.48,0.04,0.73,0.017,-0.078,0.999,0.00,0.00,0.00,0.00,-0.48,-0.04,0.02,-0.02,0.03,-1.37,0.83,-1.80,1100,1100,1100,1100,1027,1501,1519,0,743
128183,0,0.14,0.15,0.31,0.006,-0.084,1.007,0.00,0.00,0.00,0.00,-0.14,-0.15,0.02,-0.02,0.02,-1.58,-4.23,-0.75,1100,1100,1100,1100,1027,1501,1519,0,743
128195,0,-0.30,1.01,-0.50,-0.003,-0.079,1.016,0.00,0.00,0.00,0.00,0.30,-1.01,0.02,-0.02,0.03,0.65,-4.54,1.27,1100,1100,1100,1100,1027,1501,1519,0,743
128207,0,-0.16,0.62,0.05,0.008,-0.085,1.006,0.00,0.00,0.00,0.00,0.16,-0.62,0.02,-0.02,0.03,0.91,0.39,-0.09,1100,1100,1100,1100,1027,1501,1519,0,743
128219,0,-0.12,-1.60,0.30,0.013,-0.083,1.010,0.00,0.00,0.00,0.00,0.12,1.60,0.02,-0.02,0.02,0.20,3.25,-0.72,1100,1100,1100,1100,1027,1501,1519,0,729
128231,0,-0.06,0.69,-0.37,0.009,-0.081,1.013,0.00,0.00,0.00,0.00,0.06,-0.69,0.02,-0.02,0.03,0.04,-4.36,0.96,1100,1100,1100,1100,1027,1501,1519,0,729
128243,0,-0.05,1.17,-0.53,0.003,-0.072,1.015,0.00,0.00,0.00,0.00,0.05,-1.17,0.02,-0.02,0.04,0.20,-1.86,1.38,1100,1100,1100,1100,1027,1501,1519,0,729
128255,0,0.09,2.30,0.26,0.008,-0.074,1.009,0.00,0.00,0.00,0.00,-0.09,-2.30,0.02,-0.02,0.04,-0.48,-5.32,-0.60,1100,1100,1100,1100,1026,1501,1518,0,729
128267,0,0.66,1.47,0.30,0.017,-0.069,0.999,0.00,0.00,0.00,0.00,-0.66,-1.47,0.02,-0.02,0.03,-2.96,-3.21,-0.73,1100,1100,1100,1100,1026,1501,1518,0,729
128279,0,-0.28,0.38,-0.14,0.024,-0.077,0.981,0.00,0.00,0.00,0.00,0.28,-0.38,0.02,-0.03,0.03,1.06,1.42,0.37,1100,1100,1100,1100,1026,1501,1519,0,729
128291,0,-0.63,1.77,-0.13,0.008,-0.073,1.004,0.00,0.00,0.00,0.00,0.63,-1.77,0.02,-0.03,0.04,1.72,-4.36,0.37,1100,1100,1100,1100,1026,1501,1519,0,729
128303,0,0.02,0.85,-0.23,0.011,-0.067,1.010,0.00,0.00,0.00,0.00,-0.02,-0.85,0.02,-0.03,0.04,0.02,2.92,0.61,1100,1100,1100,1100,1028,1501,1518,0,729
128315,0,0.68,-1.10,-0.52,0.022,-0.068,0.983,0.00,0.00,0.00,0.00,-0.68,1.10,0.02,-0.03,0.06,-2.58,4.30,1.36,1100,1100,1100,1100,1026,1501,1519,0,729
128327,0,-0.33,-2.50,0.27,0.045,-0.071,0.977,0.00,0.00,0.00,0.00,0.33,2.50,0.02,-0.02,0.06,0.53,3.88,-0.61,1100,1100,1100,1100,1026,1501,1519,0,732
128339,0,-0.33,-3.06,1.35,0.062,-0.063,0.981,0.00,0.00,0.00,0.00,0.33,3.06,0.02,-0.02,0.03,0.94,2.17,-3.35,1100,1100,1100,1100,1026,1501,1519,0,732
128351,0,0.29,-2.46,-1.23,0.017,-0.074,0.981,0.00,0.00,0.00,0.00,-0.29,2.46,0.02,-0.01,0.03,-1.18,-1.01,3.09,1100,1100,1100,1100,1026,1501,1519,0,732
128363,0,-0.06,0.96,-1.47,0.014,-0.092,1.000,0.00,0.00,0.00,0.00,0.06,-0.96,0.02,-0.01,0.09,0.79,-5.36,3.76,1100,1100,1100,1100,1027,1501,1519,0,732
128375,0,-2.38,0.02,1.68,0.028,-0.092,1.006,0.00,0.00,0.00,0.00,2.38,-0.02,0.02,-0.01,0.06,8.41,1.03,-4.13,1100,1100,1100,1100,1026,1500,1518,0,732
128387,0,-0.15,3.63,0.01,-0.027,-0.065,1.034,0.00,0.00,0.00,0.00,0.15,-3.63,0.03,-0.02,0.03,-3.46,-11.86,0.00,1100,1100,1100,1100,1026,1500,1518,0,732
128399,0,1.33,1.84,-1.58,-0.004,-0.086,1.038,0.00,0.00,0.00,0.00,-1.33,-1.84,0.02,-0.02,0.07,-2.49,3.88,4.02,1100,1100,1100,1100,1026,1500,1519,0,732
128411,0,-1.06,-3.10,0.00,0.023,-0.079,1.003,0.00,0.00,0.00,0.00,1.06,3.10,0.02,-0.02,0.09,4.15,8.15,0.08,1100,1100,1100,1100,1026,1500,1519,0,732
128423,0,0.97,-1.22,0.46,0.025,-0.076,1.003,0.00,0.00,0.00,0.00,-0.97,1.22,0.03,-0.01,0.08,-5.92,-0.94,-1.07,1100,1100,1100,1100,1026,1501,1519,0,739
128435,0,0.21,-4.39,0.73,0.076,-0.083,0.956,0.00,0.00,0.00,0.00,-0.21,4.39,0.02,-0.01,0.06,0.02,8.43,-1.75,1100,1100,1100,1100,1027,1501,1519,0,739
128447,0,-0.45,-3.19,-1.06,0.073,-0.081,0.955,0.00,0.00,0.00,0.00,0.45,3.19,0.03,0.00,0.08,0.54,1.13,2.72,1100,1100,1100,1100,1027,1501,1519,0,739
128459,0,-0.62,-4.85,0.45,0.101,-0.091,0.941,0.00,0.00,0.00,0.00,0.62,4.85,0.03,0.01,0.08,2.47,7.56,-1.03,1100,1100,1100,1100,1026,1501,1518,0,739
128471,0,0.23,-1.14,0.15,0.068,-0.081,0.941,0.00,0.00,0.00,0.00,-0.23,1.14,0.03,0.02,0.07,-2.55,-6.31,-0.30,1100,1100,1100,1100,1026,1501,1518,0,739
128483,0,-0.91,-2.53,0.57,0.068,-0.083,0.962,0.00,0.00,0.00,0.00,0.91,2.53,0.03,0.02,0.06,4.29,6.35,-1.36,1100,1100,1100,1100,1025,1502,1519,0,739
128495,0,0.35,0.98,-0.55,0.020,-0.075,0.970,0.00,0.00,0.00,0.00,-0.35,-0.98,0.03,0.02,0.06,-4.72,-10.20,1.44,1100,1100,1100,1100,1026,1502,1518,0,739
128507,0,0.38,-2.76,0.81,0.053,-0.068,0.961,0.00,0.00,0.00,0.00,-0.38,2.76,0.03,0.02,0.06,0.22,9.71,-1.96,1100,1100,1100,1100,1026,1502,1518,0,739
128519,0,0.71,-0.13,-0.40,0.031,-0.078,0.981,0.00,0.00,0.00,0.00,-0.71,0.13,0.03,0.03,0.06,-3.79,-6.71,1.06,1100,1100,1100,1100,1026,1500,1518,0,727
128531,0,-0.22,-2.27,0.69,0.043,-0.071,0.978,0.00,0.00,0.00,0.00,0.22,2.27,0.03,0.03,0.05,1.00,7.32,-1.68,1100,1100,1100,1100,1026,1500,1518,0,727
128543,0,0.40,-2.45,-0.74,0.047,-0.079,0.963,0.00,0.00,0.00,0.00,-0.40,2.45,0.03,0.03,0.06,-2.77,6.44,1.92,1100,1100,1100,1100,1026,1501,1519,0,727
128555,0,-0.23,-4.70,0.65,0.080,-0.080,0.943,0.00,0.00,0.00,0.00,0.23,4.70,0.03,0.04,0.05,2.43,15.25,-1.57,1100,1100,1100,1100,1026,1500,1519,0,727
128567,0,-0.14,-0.61,-0.29,0.058,-0.086,0.965,0.00,0.00,0.00,0.00,0.14,0.61,0.03,0.04,0.07,-1.51,2.22,0.79,1100,1100,1100,1100,1026,1500,1519,0,727
128579,0,-2.31,-3.92,0.58,0.058,-0.071,0.940,0.00,0.00,0.00,0.00,2.31,3.92,0.03,0.04,0.05,8.29,7.87,-1.39,1100,1100,1100,1100,1026,1500,1519,0,727
128591,0,1.11,-0.42,-0.69,0.061,-0.084,0.971,0.00,0.00,0.00,0.00,-1.11,0.42,0.03,0.04,0.07,-3.98,-3.35,1.79,1100,1100,1100,1100,1026,1500,1519,0,727
128603,0,-0.78,0.13,-0.83,0.080,-0.097,0.948,0.00,0.00,0.00,0.00,0.78,-0.13,0.03,0.04,0.07,3.02,-1.84,2.14,1100,1100,1100,1100,1026,1501,1519,0,727
128615,0,1.14,-4.91,1.01,0.126,-0.085,0.920,0.00,0.00,0.00,0.00,-1.14,4.91,0.03,0.05,0.08,-4.26,11.56,-2.45,1100,1100,1100,1100,1027,1501,1519,0,727
128627,0,2.17,-0.44,-0.09,0.069,-0.064,0.934,0.00,0.00,0.00,0.00,-2.17,0.44,0.03,0.06,0.06,-12.18,-14.20,0.29,1100,1100,1100,1100,1027,1501,1519,0,728
128639,0,0.24,1.74,0.32,0.019,-0.059,1.003,0.00,0.00,0.00,0.00,-0.24,-1.74,0.03,0.06,0.07,0.97,-5.94,-0.74,1100,1100,1100,1100,1027,1501,1519,0,728
128651,0,-1.05,1.22,-1.89,0.012,-0.090,1.011,0.00,0.00,0.00,0.00,1.05,-1.22,0.03,0.05,0.10,4.64,7.21,4.81,1100,1100,1100,1100,1027,1501,1519,0,728
128663,0,-2.01,1.36,1.13,0.007,-0.052,1.009,0.00,0.00,0.00,0.00,2.01,-1.36,0.03,0.04,0.08,8.47,5.40,-2.74,1100,1100,1100,1100,1027,1500,1519,0,728
128675,0,1.19,-1.81,-0.08,0.050,-0.093,0.999,0.00,0.00,0.00,0.00,-1.19,1.81,0.03,0.04,0.08,-3.18,10.39,0.28,1100,1100,1100,1100,1027,1501,1519,0,728
128687,0,-0.85,0.55,-0.23,0.047,-0.103,0.973,0.00,0.00,0.00,0.00,0.85,-0.55,0.03,0.05,0.06,0.92,-10.26,0.64,1100,1100,1100,1100,1027,1501,1519,0,728
128699,0,1.54,-4.11,0.31,0.073,-0.068,0.967,0.00,0.00,0.00,0.00,-1.54,4.11,0.03,0.06,0.09,-5.17,4.24,-0.68,1100,1100,1100,1100,1027,1507,1513,0,728
128711,0,1.68,-4.17,-0.65,0.052,-0.072,0.951,0.00,0.00,0.00,0.00,-1.68,4.17,0.03,0.07,0.08,-9.62,1.62,1.72,1100,1100,1100,1100,1027,1507,1513,0,728
128723,0,-2.23,-3.91,1.36,0.036,-0.068,0.981,0.00,0.00,0.00,0.00,2.23,3.91,0.03,0.08,0.08,10.48,5.37,-3.33,1100,1100,1100,1100,1027,1501,1519,0,732
128735,0,-0.01,-0.95,-1.08,-0.015,-0.084,1.027,0.00,0.00,0.00,0.00,0.01,0.95,0.03,0.08,0.09,-1.42,1.21,2.78,1100,1100,1100,1100,1027,1501,1519,0,732
128747,0,-2.56,3.47,0.56,-0.020,-0.089,0.999,0.00,0.00,0.00,0.00,2.56,-3.47,0.03,0.08,0.07,8.64,-14.37,-1.34,1100,1100,1100,1100,1027,1501,1519,0,732
128759,0,2.16,4.28,-0.27,-0.028,-0.072,1.040,0.00,0.00,0.00,0.00,-2.16,-4.28,0.03,0.07,0.09,-6.71,-13.19,0.77,1100,1100,1100,1100,1026,1500,1519,0,732
128771,0,1.20,0.32,-0.35,-0.046,-0.080,1.033,0.00,0.00,0.00,0.00,-1.20,-0.32,0.03,0.07,0.07,-7.05,6.69,0.95,1100,1100,1100,1100,1026,1500,1519,0,732
128783,0,-2.53,-3.66,1.06,-0.010,-0.064,1.037,0.00,0.00,0.00,0.00,2.53,3.66,0.03,0.07,0.07,11.08,16.11,-2.58,1100,1100,1100,1100,1028,1501,1519,0,732
128795,0,2.05,-2.94,-0.51,0.021,-0.089,1.014,0.00,0.00,0.00,0.00,-2.05,2.94,0.03,0.07,0.06,-9.37,6.21,1.34,1100,1100,1100,1100,1028,1502,1518,0,732
128807,0,-1.13,-5.58,0.95,0.097,-0.103,0.914,0.00,0.00,0.00,0.00,1.13,5.58,0.03,0.09,0.04,3.43,4.39,-2.34,1100,1100,1100,1100,1028,1502,1518,0,732
128819,0,2.45,-5.43,0.65,0.129,-0.093,0.900,0.00,0.00,0.00,0.00,-2.45,5.43,0.03,0.10,0.04,-8.63,-0.47,-1.59,1100,1100,1100,1100,1027,1500,1519,0,732
128831,0,3.37,-3.36,0.75,0.105,-0.081,0.897,0.00,0.00,0.00,0.00,-3.37,3.36,0.03,0.12,0.01,-15.39,-5.65,-1.86,1100,1100,1100,1100,1027,1500,1519,0,732
128843,0,-5.71,-6.67,-0.53,0.159,-0.064,0.867,0.00,0.00,0.00,0.00,5.71,6.67,0.03,0.13,0.01,26.85,9.43,1.33,1100,1100,1100,1100,1026,1502,1519,0,732
128855,0,1.32,-5.16,-0.81,0.142,-0.097,0.911,0.00,0.00,0.00,0.00,-1.32,5.16,0.03,0.13,0.02,-2.23,15.51,2.06,1100,1100,1100,1100,1026,1501,1519,0,732
128867,0,0.22,4.56,0.71,0.109,-0.080,0.909,0.00,0.00,0.00,0.00,-0.22,-4.56,0.03,0.13,0.02,-4.63,-23.02,-1.76,1100,1100,1100,1100,1026,1501,1519,0,732
128879,0,1.56,4.03,0.98,0.097,-0.049,0.950,0.00,0.00,0.00,0.00,-1.56,-4.03,0.03,0.13,0.01,-3.30,-15.39,-2.44,1100,1100,1100,1100,1027,1499,1520,0,732
128891,0,4.36,5.14,0.46,0.025,-0.082,0.992,0.00,0.00,0.00,0.00,-4.36,-5.14,0.03,0.12,0.00,-18.05,-2.71,-1.16,1100,1100,1100,1100,1027,1499,1520,0,732
128903,0,-2.98,2.09,-0.63,0.034,-0.059,0.969,0.00,0.00,0.00,0.00,2.98,-2.09,0.03,0.11,0.01,13.55,6.69,1.57,1100,1100,1100,1100,1027,1500,1518,0,732
128915,0,-1.92,0.34,-1.04,0.015,-0.084,0.999,0.00,0.00,0.00,0.00,1.92,-0.34,0.03,0.10,0.02,11.13,10.81,2.62,1100,1100,1100,1100,1027,1500,1518,0,732
128927,0,-0.53,9.63,-0.20,-0.080,-0.074,1.046,0.00,0.00,0.00,0.00,0.53,-9.63,0.03,0.09,0.04,-2.57,-22.92,0.53,1100,1100,1100,1100,1027,1500,1518,0,727
128939,0,0.16,6.46,1.04,-0.067,-0.032,1.057,0.00,0.00,0.00,0.00,-0.16,-6.46,0.03,0.08,0.03,1.48,-17.37,-2.58,1100,1100,1100,1100,1027,1500,1519,0,727
128951,0,2.95,2.18,-0.22,-0.086,-0.071,1.064,0.00,0.00,0.00,0.00,-2.95,-2.18,0.02,0.08,0.03,-10.79,-0.45,0.58,1100,1100,1100,1100,1027,1500,1519,0,727
128963,0,-1.10,3.93,-1.05,-0.088,-0.063,1.070,0.00,0.00,0.00,0.00,1.10,-3.93,0.03,0.08,0.04,2.91,-11.22,2.68,1100,1100,1100,1100,1027,1500,1519,0,727
128975,0,-1.09,-7.12,0.02,-0.012,-0.082,1.021,0.00,0.00,0.00,0.00,1.09,7.12,0.02,0.08,0.06,9.12,24.81,0.01,1100,1100,1100,1100,1027,1500,1519,0,727
128987,0,3.84,1.18,0.30,0.019,-0.079,1.058,0.00,0.00,0.00,0.00,-3.84,-1.18,0.02,0.08,0.06,-14.04,-5.93,-0.68,1100,1100,1100,1100,1027,1500,1519,0,727
128999,0,-5.35,-3.08,0.09,0.037,-0.046,1.002,0.00,0.00,0.00,0.00,5.35,3.08,0.03,0.09,0.04,19.70,-5.29,-0.18,1100,1100,1100,1100,1027,1501,1518,0,727
129011,0,1.92,-4.56,-0.33,0.089,-0.080,0.989,0.00,0.00,0.00,0.00,-1.92,4.56,0.02,0.09,0.04,-1.17,27.96,0.88,1100,1100,1100,1100,1027,1501,1518,0,727
129023,0,-2.55,-0.23,-0.97,0.106,-0.067,0.962,0.00,0.00,0.00,0.00,2.55,0.23,0.03,0.09,0.05,5.61,-6.14,2.47,1100,1100,1100,1100,1027,1501,1518,0,727
129035,0,-1.66,-5.91,0.16,0.079,-0.076,0.966,0.00,0.00,0.00,0.00,1.66,5.91,0.02,0.10,0.06,11.56,7.44,-0.34,1100,1100,1100,1100,1027,1500,1519,0,727
129047,0,3.48,6.74,0.14,0.020,-0.061,1.021,0.00,0.00,0.00,0.00,-3.48,-6.74,0.02,0.09,0.07,-16.93,-21.74,-0.28,1100,1100,1100,1100,1027,1500,1519,0,727
129059,0,0.70,7.58,0.83,0.011,-0.047,1.038,0.00,0.00,0.00,0.00,-0.70,-7.58,0.02,0.09,0.04,-4.60,-27.83,-2.03,1100,1100,1100,1100,1027,1500,1519,0,727
129071,0,1.76,-1.86,0.75,0.083,-0.051,1.012,0.00,0.00,0.00,0.00,-1.76,1.86,0.02,0.09,0.04,-5.75,8.25,-1.85,1100,1100,1100,1100,1027,1500,1519,0,727
129083,0,2.15,1.69,-1.43,0.073,-0.085,0.992,0.00,0.00,0.00,0.00,-2.15,-1.69,0.02,0.08,0.06,-10.17,4.59,3.63,1100,1100,1100,1100,1027,1500,1519,0,727
129095,0,-4.98,1.45,-0.77,0.030,-0.102,1.014,0.00,0.00,0.00,0.00,4.98,-1.45,0.02,0.08,0.08,23.44,-1.22,2.00,1100,1100,1100,1100,1027,1501,1519,0,727
129107,0,1.79,-1.17,0.59,0.022,-0.108,1.026,0.00,0.00,0.00,0.00,-1.79,1.17,0.02,0.07,0.09,-6.80,20.92,-1.40,1100,1100,1100,1100,1027,1501,1519,0,727
129119,0,1.48,-0.91,0.11,0.017,-0.103,0.996,0.00,0.00,0.00,4.20,-1.48,5.11,0.02,0.08,0.07,-11.34,4.25,-0.20,1100,1100,1100,1100,1027,1500,1521,0,755
129131,0,-1.76,-9.94,0.15,0.076,-0.080,0.954,0.00,0.00,0.00,4.20,1.76,14.14,0.02,0.11,0.06,10.18,19.70,-0.33,1100,1100,1100,1100,1027,1500,1521,0,755
129143,0,-2.64,1.44,-1.05,0.053,-0.101,1.009,0.00,0.00,0.00,0.00,2.64,-1.44,0.02,0.11,0.09,12.70,-7.53,2.71,1100,1100,1100,1100,1029,1500,1519,0,755
129155,0,-1.61,8.71,-0.48,-0.029,-0.098,1.025,0.00,0.00,0.00,0.00,1.61,-8.71,0.03,0.10,0.08,-1.28,-21.83,1.27,1100,1100,1100,1100,1029,1500,1518,0,755
129167,0,1.55,9.26,1.16,-0.052,-0.040,1.098,0.00,0.00,0.00,0.00,-1.55,-9.26,0.02,0.08,0.08,-5.75,-16.08,-2.83,1100,1100,1100,1100,1029,1500,1518,0,755
129179,0,1.24,-4.65,-0.76,-0.008,-0.101,1.039,0.00,0.00,0.00,0.00,-1.24,4.65,0.02,0.07,0.10,-2.28,32.14,2.01,1100,1100,1100,1100,1028,1502,1519,0,755
129191,0,-2.08,3.54,-0.44,-0.020,-0.091,1.040,0.00,0.00,0.00,0.00,2.08,-3.54,0.03,0.08,0.10,2.44,-24.03,1.20,1100,1100,1100,1100,1028,1502,1519,0,755
129203,0,1.96,-4.69,0.83,0.021,-0.088,0.966,0.00,0.00,0.00,0.00,-1.96,4.69,0.03,0.09,0.11,-7.91,2.52,-1.97,1100,1100,1100,1100,1029,1500,1519,0,755
129215,0,1.09,4.37,-0.31,-0.041,-0.081,1.032,0.00,0.00,0.00,0.00,-1.09,-4.37,0.03,0.09,0.12,-4.09,-22.06,0.90,1100,1100,1100,1100,1036,1501,1518,0,755
129227,0,-5.47,0.91,-0.49,-0.039,-0.067,1.031,0.00,0.00,0.00,0.00,5.47,-0.91,0.03,0.08,0.11,21.53,12.36,1.33,1100,1100,1100,1100,1036,1501,1518,0,732
129239,0,0.38,-4.61,-0.84,-0.021,-0.080,1.007,0.00,0.00,0.00,0.00,-0.38,4.61,0.03,0.07,0.12,3.27,35.78,2.23,1100,1100,1100,1100,1038,1501,1518,0,732
129251,0,0.87,2.22,-0.55,-0.013,-0.060,1.027,0.00,0.00,0.00,0.00,-0.87,-2.22,0.03,0.07,0.12,-6.65,0.16,1.50,1100,1100,1100,1100,1038,1501,1518,0,732
129263,0,-5.77,-3.61,-0.21,-0.013,-0.062,0.993,0.00,0.00,0.00,0.00,5.77,3.61,0.03,0.07,0.13,24.25,9.92,0.65,1100,1100,1100,1100,1040,1501,1519,0,732
129275,0,2.07,-0.76,-0.08,-0.002,-0.115,0.997,0.00,0.00,0.00,0.00,-2.07,0.76,0.03,0.07,0.13,-6.71,9.55,0.33,1100,1100,1100,1100,1040,1501,1519,0,732
129287,0,4.27,9.00,0.33,-0.064,-0.059,1.048,0.00,0.00,0.00,0.00,-4.27,-9.00,0.03,0.06,0.13,-22.75,-32.93,-0.71,1100,1100,1100,1100,1040,1501,1519,0,732
129299,0,0.35,8.25,0.08,-0.119,-0.022,1.081,0.00,0.00,0.00,0.00,-0.35,-8.25,0.03,0.04,0.14,-0.54,-6.43,-0.07,1100,1100,1100,1100,1040,1501,1519,0,732
129311,0,0.43,-3.02,-0.78,-0.100,-0.075,1.090,0.00,0.00,0.00,0.00,-0.43,3.02,0.03,0.03,0.15,-0.63,35.40,2.09,1100,1100,1100,1100,1040,1501,1519,0,732
129323,0,-2.06,-2.25,-0.51,-0.065,-0.075,1.050,0.00,0.00,0.00,0.00,2.06,2.25,0.03,0.05,0.17,7.35,-3.66,1.45,1100,1100,1100,1100,1040,1501,1518,0,732
129335,0,-1.44,-3.58,1.25,0.005,-0.082,0.967,0.00,0.00,0.00,0.00,1.44,3.58,0.03,0.06,0.17,6.25,-8.80,-2.96,1100,1100,1100,1100,1040,1501,1518,0,732
129347,0,3.19,2.78,0.31,0.013,-0.077,0.998,0.00,0.00,0.00,0.00,-3.19,-2.78,0.03,0.06,0.15,-14.57,-17.74,-0.62,1100,1100,1100,1100,1040,1501,1518,0,732
129359,0,-2.32,-4.46,-0.06,0.039,-0.060,0.977,0.00,0.00,0.00,0.00,2.32,4.46,0.03,0.07,0.13,12.47,8.58,0.28,1100,1100,1100,1100,1042,1501,1519,0,732
129371,0,-1.19,-4.27,-0.06,0.064,-0.091,0.970,0.00,0.00,0.00,0.00,1.19,4.27,0.03,0.07,0.14,9.84,16.06,0.29,1100,1100,1100,1100,1042,1501,1519,0,732
129383,0,0.64,2.05,-1.59,-0.002,-0.086,0.983,0.00,0.00,0.00,0.00,-0.64,-2.05,0.03,0.06,0.16,-10.54,-4.63,4.13,1100,1100,1100,1100,1046,1501,1518,0,732
129395,0,-1.86,1.07,0.64,-0.010,-0.027,1.015,0.00,0.00,0.00,0.00,1.86,-1.07,0.03,0.06,0.16,7.91,-1.92,-1.43,1100,1100,1100,1100,1046,1501,1518,0,732
129407,0,2.93,-6.05,-0.24,0.063,-0.041,0.959,0.00,0.00,0.00,0.00,-2.93,6.05,0.03,0.07,0.17,-8.78,19.14,0.75,1100,1100,1100,1100,1046,1501,1518,0,732
129419,0,-0.90,-1.50,-0.09,0.049,-0.064,0.944,0.00,0.00,0.00,0.00,0.90,1.50,0.03,0.08,0.14,-2.85,-13.76,0.35,1100,1100,1100,1100,1047,1501,1519,0,732
129431,0,0.51,-9.00,0.98,0.132,-0.066,0.901,0.00,0.00,0.00,0.00,-0.51,9.00,0.03,0.09,0.15,1.30,22.82,-2.29,1100,1100,1100,1100,1047,1501,1519,0,732
129443,0,4.50,4.10,-1.26,0.031,-0.088,0.980,0.00,0.00,0.00,0.00,-4.50,-4.10,0.03,0.09,0.18,-18.32,-25.13,3.32,1100,1100,1100,1100,1047,1501,1519,0,732
129455,0,-2.98,1.67,0.92,0.014,-0.070,0.990,0.00,0.00,0.00,0.00,2.98,-1.67,0.03,0.10,0.17,8.36,-19.71,-2.12,1100,1100,1100,1100,1076,1501,1519,0,732
129467,0,0.31,-7.65,0.52,0.039,-0.066,0.953,0.00,0.00,0.00,0.00,-0.31,7.65,0.03,0.11,0.16,0.16,19.75,-1.15,1100,1100,1100,1100,1076,1501,1519,0,732
129479,0,0.79,5.91,0.17,0.010,-0.087,0.999,0.00,0.00,0.00,0.00,-0.79,-5.91,0.03,0.11,0.13,-5.45,-23.32,-0.30,1100,1100,1100,1100,1076,1501,1519,0,732
129491,0,-4.24,2.98,-0.36,0.070,-0.097,0.955,0.00,0.00,0.00,0.00,4.24,-2.98,0.03,0.10,0.14,19.79,-1.90,1.03,1100,1100,1100,1100,1076,1501,1519,0,732
129503,0,3.00,-3.07,-1.16,0.045,-0.086,0.975,0.00,0.00,0.00,0.00,-3.00,3.07,0.03,0.10,0.16,-9.41,26.53,3.08,1100,1100,1100,1100,1081,1496,1518,0,732
129515,0,-0.20,-3.75,0.74,0.036,-0.082,0.983,0.00,0.00,0.00,0.00,0.20,3.75,0.03,0.10,0.15,-1.58,17.70,-1.70,1100,1100,1100,1100,1080,1497,1519,0,732
129527,0,-5.45,-6.59,0.18,0.073,-0.064,0.991,0.00,0.00,0.00,0.00,5.45,6.59,0.03,0.11,0.13,25.35,16.51,-0.32,1100,1100,1100,1100,1080,1497,1519,0,747
129539,0,-1.60,2.15,-1.20,0.058,-0.120,0.988,0.00,0.00,0.00,0.00,1.60,-2.15,0.03,0.10,0.13,7.31,-7.43,3.13,1100,1100,1100,1100,1094,1501,1517,0,747
129551,0,1.04,14.89,-1.10,-0.006,-0.063,1.035,0.00,0.00,0.00,0.00,-1.04,-14.89,0.03,0.09,0.16,-9.33,-47.56,2.90,1100,1100,1100,1100,1094,1501,1517,0,747
129563,0,4.25,16.04,-0.33,-0.122,-0.003,1.126,0.00,0.00,0.00,0.00,-4.25,-16.04,0.03,0.06,0.19,-14.67,-32.46,1.02,1100,1100,1100,1100,1094,1502,1517,0,747
129575,0,2.75,0.30,0.62,-0.149,-0.048,1.109,0.00,0.00,0.00,0.00,-2.75,-0.30,0.03,0.04,0.21,-9.32,33.85,-1.34,1100,1100,1100,1100,1105,1501,1518,0,747
129587,0,-3.89,5.06,-0.65,-0.162,-0.084,1.131,0.00,0.00,0.00,0.00,3.89,-5.06,0.03,0.04,0.21,10.51,-4.82,1.84,1100,1100,1100,1100,1105,1501,1518,0,747
129599,0,3.25,-3.45,0.43,-0.070,-0.076,1.067,0.00,0.00,0.00,0.00,-3.25,3.45,0.03,0.04,0.21,-11.63,14.62,-0.87,1100,1100,1100,1100,1109,1502,1519,0,747
129611,0,-0.20,-1.60,-1.39,-0.008,-0.100,1.004,0.00,0.00,0.00,0.00,0.20,1.60,0.03,0.05,0.24,-1.43,-7.54,3.72,1100,1100,1100,1100,1109,1502,1519,0,747
129623,0,-5.16,-3.07,0.32,0.024,-0.076,0.995,0.00,0.00,0.00,0.00,5.16,3.07,0.03,0.06,0.23,21.74,-4.38,-0.57,1100,1100,1100,1100,1111,1501,1519,0,732
129635,0,-1.05,-3.89,1.88,0.026,-0.091,0.989,0.00,0.00,0.00,0.00,1.05,3.89,0.03,0.07,0.20,4.24,10.24,-4.50,1100,1100,1100,1100,1125,1501,1519,0,732
129647,0,-0.89,0.19,-0.64,0.006,-0.084,0.992,0.00,0.00,0.00,0.00,0.89,-0.19,0.04,0.07,0.18,-1.30,-12.74,1.77,1100,1100,1100,1100,1125,1501,1519,0,732
129659,0,-0.52,-0.58,-0.88,-0.013,-0.086,1.018,0.00,0.00,0.00,0.00,0.52,0.58,0.03,0.07,0.20,2.98,1.77,2.39,1100,1100,1100,1100,1127,1501,1519,0,732
129671,0,-1.36,-2.80,-1.48,0.037,-0.121,1.007,0.00,0.00,0.00,0.00,1.36,2.80,0.03,0.07,0.25,5.41,11.84,3.96,1100,1100,1100,1100,1127,1501,1519,0,732
129683,0,-0.34,2.48,0.50,0.037,-0.078,0.993,0.00,0.00,0.00,0.00,0.34,-2.48,0.04,0.08,0.24,-3.53,-21.01,-1.00,1100,1100,1100,1100,1127,1501,1519,0,732
129695,0,2.47,1.23,2.36,0.097,-0.069,0.964,0.00,0.00,0.00,0.00,-2.47,-1.23,0.03,0.08,0.20,-8.52,-14.49,-5.71,1100,1100,1100,1100,1139,1499,1519,0,732
129707,0,-0.12,2.68,-0.79,0.089,-0.097,0.974,0.00,0.00,0.00,0.00,0.12,-2.68,0.04,0.08,0.20,-0.03,-15.64,2.17,1100,1100,1100,1100,1139,1499,1519,0,732
129719,0,-2.15,2.42,-1.11,0.056,-0.110,0.963,0.00,0.00,0.00,0.00,2.15,-2.42,0.04,0.08,0.22,8.14,-3.30,2.99,1100,1100,1100,1100,1139,1501,1519,0,732
129731,0,0.67,-1.83,-0.52,0.029,-0.096,0.983,0.00,0.00,0.00,0.00,-0.67,1.83,0.04,0.08,0.25,-0.82,9.80,1.55,1100,1100,1100,1100,1139,1501,1519,0,732
129743,0,1.79,4.94,0.08,-0.021,-0.083,1.042,0.00,0.00,0.00,4.20,-1.79,-0.74,0.04,0.08,0.25,-7.89,-6.41,0.05,1100,1100,1100,1100,1155,1501,1521,0,732
129755,0,-7.13,-1.73,0.83,0.013,-0.087,1.000,0.00,0.00,0.00,0.00,7.13,1.73,0.04,0.09,0.22,28.05,9.32,-1.86,1100,1100,1100,1100,1161,1501,1519,0,732
129767,0,0.42,1.74,-1.34,-0.021,-0.104,1.036,0.00,0.00,0.00,0.00,-0.42,-1.74,0.04,0.07,0.24,-0.06,8.62,3.59,1100,1100,1100,1100,1161,1501,1519,0,732
129779,0,1.89,1.18,-1.41,-0.034,-0.110,1.051,0.00,0.00,0.00,0.00,-1.89,-1.18,0.04,0.07,0.26,-9.94,7.34,3.79,1100,1100,1100,1100,1168,1500,1518,0,732
129791,0,-4.91,-2.59,-0.32,0.004,-0.037,1.040,0.00,0.00,0.00,0.00,4.91,2.59,0.04,0.07,0.29,19.56,8.40,1.10,1100,1100,1100,1100,1168,1500,1518,0,732
129803,0,-0.09,-5.98,0.65,0.050,-0.120,0.987,0.00,0.00,0.00,0.00,0.09,5.98,0.04,0.08,0.29,1.38,19.00,-1.33,1100,1100,1100,1100,1179,1500,1519,0,732
129815,0,6.62,-0.23,0.90,0.023,-0.062,0.971,0.00,0.00,0.00,0.00,-6.62,0.23,0.04,0.08,0.25,-34.20,-17.60,-1.99,1100,1100,1100,1100,1184,1500,1519,0,732
129827,0,-5.47,3.67,0.16,-0.013,0.022,1.029,0.00,0.00,0.00,0.00,5.47,-3.67,0.04,0.09,0.24,26.28,-29.89,-0.16,1197,1197,1171,1171,1184,1500,1519,0,732
129839,0,-0.04,2.82,-2.03,-0.016,-0.081,1.040,0.00,0.00,0.00,0.00,0.04,-2.82,0.04,0.08,0.28,1.05,-3.45,5.35,1197,1197,1171,1171,1185,1500,1519,0,732
129851,0,2.42,-12.40,-0.43,0.132,-0.119,0.881,0.00,0.00,0.00,0.00,-2.42,12.40,0.04,0.09,0.30,-16.78,36.01,1.36,1197,1197,1171,1171,1185,1500,1519,0,732
129863,0,-14.67,-16.30,0.84,0.172,-0.109,0.766,0.00,0.00,0.00,0.00,14.67,16.30,0.04,0.13,0.25,58.36,12.71,-1.85,1197,1197,1171,1171,1185,1500,1519,0,732
129875,0,-0.85,-18.53,0.10,0.113,-0.133,0.865,0.00,0.00,0.00,0.00,0.85,18.53,0.04,0.14,0.22,13.38,59.95,-0.03,1197,1197,1171,1171,1185,1500,1519,0,732
129887,0,10.15,4.78,0.20,0.009,-0.125,1.045,0.00,0.00,0.00,0.00,-10.15,-4.78,0.04,0.14,0.25,-46.02,-14.66,-0.25,1197,1197,1171,1171,1185,1500,1519,0,732
129899,0,-6.94,13.77,-2.40,-0.105,-0.014,1.089,0.00,0.00,0.00,0.00,6.94,-13.77,0.05,0.14,0.33,10.15,-70.05,6.33,1197,1197,1171,1171,1185,1500,1519,0,732
129911,0,-16.45,-20.61,-4.41,-0.040,-0.041,0.920,0.00,0.00,0.00,0.00,16.45,20.61,0.05,0.16,0.40,79.89,70.76,11.42,1197,1197,1171,1171,1185,1500,1519,0,732
129923,0,15.68,-8.89,-3.68,-0.054,-0.079,1.039,0.00,0.00,0.00,0.00,-15.68,8.89,0.03,0.14,0.53,-45.70,53.99,9.72,1178,1368,1100,1198,1197,1500,1518,0,740
129935,0,15.47,18.51,-6.29,0.001,-0.179,1.119,0.00,0.00,0.00,0.00,-15.47,-18.51,0.04,0.16,0.75,-71.44,-95.58,16.47,1178,1368,1100,1198,1196,1499,1519,0,740
129947,0,-7.12,-10.01,-11.39,0.145,-0.188,0.890,0.00,0.00,0.00,0.00,7.12,10.01,0.05,0.20,1.03,14.81,-20.48,29.50,1178,1368,1100,1198,1196,1499,1519,0,740
129959,0,-13.75,-19.56,-9.77,0.080,-0.102,0.959,0.00,0.00,0.00,0.00,13.75,19.56,0.04,0.21,1.30,71.95,59.28,25.72,1178,1368,1100,1198,1201,1500,1520,0,740
129971,0,5.79,-10.31,-10.05,-0.028,-0.098,1.080,0.00,0.00,0.00,0.00,-5.79,10.31,0.02,0.22,1.57,-5.35,24.88,26.69,1178,1368,1100,1198,1201,1500,1520,0,740
129983,0,12.29,9.86,-6.71,0.060,-0.057,1.001,0.00,0.00,0.00,0.00,-12.29,-9.86,0.02,0.21,1.82,-49.08,-26.32,18.60,1178,1368,1100,1198,1202,1500,1519,0,740
129995,0,0.59,40.01,-7.91,-0.023,-0.047,1.043,0.00,0.00,0.00,0.00,-0.59,-40.01,0.03,0.19,2.12,-12.11,-110.00,21.90,1178,1368,1100,1198,1205,1500,1518,0,740
130007,0,-11.47,-9.18,-11.80,-0.066,-0.045,1.055,0.00,0.00,0.00,0.00,11.47,9.18,0.03,0.19,2.41,45.65,42.79,31.91,1178,1368,1100,1198,1205,1500,1518,0,740
130019,0,-8.89,-18.99,-6.85,-0.194,-0.047,1.072,0.00,0.00,0.00,0.00,8.89,18.99,0.03,0.17,2.58,45.30,107.33,19.72,1248,1100,1376,1124,1205,1500,1519,0,730
130031,0,14.45,-8.52,-3.64,-0.036,-0.053,0.995,0.00,0.00,0.00,0.00,-14.45,8.52,0.02,0.18,2.75,-54.61,40.13,11.84,1248,1100,1376,1124,1205,1500,1519,0,730
130043,0,18.38,9.28,-4.01,0.019,-0.109,0.972,0.00,0.00,0.00,0.00,-18.38,-9.28,0.03,0.20,2.90,-82.94,-61.93,12.93,1248,1100,1376,1124,1216,1500,1519,0,730
130055,0,-4.28,-1.15,-5.84,0.089,-0.119,0.921,0.00,0.00,0.00,0.00,4.28,1.15,0.04,0.22,3.10,6.86,-29.14,17.71,1248,1100,1376,1124,1222,1500,1519,0,730
130067,0,-13.06,-13.32,-6.26,0.102,-0.116,0.903,0.00,0.00,0.00,0.00,13.06,13.32,0.03,0.22,3.26,57.32,47.42,18.92,1248,1100,1376,1124,1222,1500,1519,0,730
130079,0,-0.07,-0.13,-5.98,0.020,-0.032,1.091,0.00,0.00,0.00,0.00,0.07,0.13,0.02,0.24,3.44,8.68,-25.94,18.38,1248,1100,1376,1124,1222,1500,1519,0,730
130091,0,0.85,13.36,-7.41,-0.048,-0.054,1.016,0.00,0.00,0.00,0.00,-0.85,-13.36,0.03,0.23,3.67,-2.41,-57.61,22.19,1248,1100,1376,1124,1222,1500,1519,0,730
130103,0,1.39,-9.79,-9.12,0.027,-0.129,0.945,0.00,0.00,0.00,0.00,-1.39,9.79,0.02,0.21,3.92,-4.07,76.97,26.72,1248,1100,1376,1124,1222,1500,1519,0,730
130115,0,-2.53,-13.57,-11.04,-0.221,-0.010,1.037,0.00,0.00,0.00,0.00,2.53,13.57,0.04,0.25,4.22,-5.94,14.27,31.81,1248,1100,1376,1124,1222,1497,1518,0,730
130127,0,-1.89,-31.60,-8.82,-0.130,-0.101,0.973,0.00,0.00,0.00,0.00,1.89,31.60,0.03,0.23,4.43,16.15,110.00,26.50,1105,1371,1119,1293,1222,1497,1518,0,729
130139,0,12.81,32.64,-4.67,-0.201,-0.040,1.177,0.00,0.00,0.00,0.00,-12.81,-32.64,0.02,0.21,4.63,-45.37,-110.00,16.30,1105,1371,1119,1293,1222,1500,1518,0,729
130151,0,12.35,24.27,-1.18,0.012,-0.160,0.937,0.00,0.00,0.00,0.00,-12.35,-24.27,0.03,0.23,4.73,-65.08,-110.00,7.68,1105,1371,1119,1293,1222,1500,1518,0,729
130163,0,-11.16,-10.98,-1.46,0.121,-0.206,0.893,0.00,0.00,0.00,0.00,11.16,10.98,0.05,0.24,4.80,27.78,37.00,8.44,1105,1371,1119,1293,1232,1500,1518,0,729
130175,0,-21.71,-16.42,-4.37,0.017,-0.109,0.996,0.00,0.00,0.00,0.00,21.71,16.42,0.04,0.22,4.86,86.51,80.82,15.78,1105,1371,1119,1293,1235,1500,1519,0,729
130187,0,-15.82,-26.19,-6.01,0.077,-0.079,1.002,0.00,0.00,0.00,0.00,15.82,26.19,0.04,0.22,4.96,67.96,110.00,20.00,1105,1371,1119,1293,1235,1500,1519,0,729
130199,0,-7.20,-11.94,-6.95,-0.043,-0.038,1.081,0.00,0.00,0.00,0.00,7.20,11.94,0.04,0.23,5.10,34.61,24.74,22.48,1105,1371,1119,1293,1246,1501,1519,0,729
130211,0,5.56,3.77,-6.71,-0.070,-0.008,1.122,0.00,0.00,0.00,0.00,-5.56,-3.77,0.03,0.22,5.29,-18.61,-14.95,22.08,1105,1371,1119,1293,1246,1501,1519,0,729
130223,0,14.32,2.79,-9.62,-0.105,-0.020,1.116,0.00,0.00,0.00,0.00,-14.32,-2.79,0.03,0.23,5.54,-56.16,-15.84,29.58,1224,1250,1290,1224,1247,1500,1518,0,729
130235,0,14.15,3.65,-9.50,-0.118,-0.083,1.116,0.00,0.00,0.00,0.00,-14.15,-3.65,0.02,0.19,5.86,-51.47,28.24,29.61,1224,1250,1290,1224,1247,1500,1520,0,729
130247,0,-1.27,-39.63,-8.03,-0.010,-0.153,0.885,0.00,0.00,0.00,0.00,1.27,39.63,0.02,0.23,6.11,5.11,110.00,26.19,1224,1250,1290,1224,1247,1500,1520,0,729
130259,0,-3.02,22.54,-12.01,-0.375,-0.057,1.243,0.00,0.00,0.00,0.00,3.02,-22.54,0.02,0.20,6.44,14.36,-74.76,36.45,1224,1250,1290,1224,1248,1501,1519,0,729
130271,0,-2.80,8.58,-10.09,-0.046,-0.085,1.065,0.00,0.00,0.00,0.00,2.80,-8.58,0.01,0.17,6.75,17.15,17.81,31.97,1224,1250,1290,1224,1248,1501,1519,0,729
130283,0,-1.79,8.05,-8.25,0.024,-0.045,0.951,0.00,0.00,0.00,0.00,1.79,-8.05,0.02,0.23,7.00,-1.95,-95.48,27.62,1224,1250,1290,1224,1253,1499,1519,0,729
130295,0,0.12,56.84,-8.45,-0.192,-0.026,1.154,0.00,0.00,0.00,0.00,-0.12,-56.84,0.02,0.20,7.26,-2.53,-110.00,28.39,1224,1250,1290,1224,1256,1501,1519,0,729
130307,0,3.90,28.44,-6.15,0.044,-0.091,1.046,0.00,0.00,0.00,0.00,-3.90,-28.44,0.02,0.16,7.47,-18.97,-57.59,22.84,1224,1250,1290,1224,1256,1501,1519,0,729
130319,0,11.95,6.21,-6.25,0.153,-0.068,0.980,0.00,0.00,0.00,0.00,-11.95,-6.21,0.02,0.17,7.67,-57.61,-34.83,23.29,1258,1372,1190,1212,1258,1495,1520,0,731
130331,0,9.00,10.24,-6.70,0.115,-0.041,1.077,0.00,0.00,0.00,0.00,-9.00,-10.24,0.02,0.15,7.86,-44.92,-26.14,24.62,1258,1372,1190,1212,1258,1495,1520,0,731
130343,0,0.70,-26.45,-6.72,0.318,-0.098,0.844,0.00,0.00,0.00,0.00,-0.70,26.45,0.03,0.18,8.03,-14.27,79.82,24.84,1258,1372,1190,1212,1260,1499,1520,0,731
130355,0,-6.57,-19.75,-6.35,0.101,-0.071,0.867,0.00,0.00,0.00,0.00,6.57,19.75,0.03,0.22,8.15,17.61,24.75,24.03,1258,1372,1190,1212,1259,1500,1518,0,731
130367,0,-3.90,-1.88,-5.55,-0.037,-0.089,0.958,0.00,0.00,0.00,0.00,3.90,1.88,0.03,0.22,8.25,14.11,-8.18,22.12,1258,1372,1190,1212,1259,1500,1518,0,731
130379,0,-0.03,4.20,-6.93,-0.042,-0.108,0.967,0.00,0.00,0.00,0.00,0.03,-4.20,0.03,0.23,8.40,5.21,-21.13,25.72,1258,1372,1190,1212,1261,1500,1519,0,731
130391,0,-3.67,15.53,-8.20,-0.096,-0.069,1.017,0.00,0.00,0.00,0.00,3.67,-15.53,0.02,0.24,8.59,24.98,-81.11,29.09,1258,1372,1190,1212,1261,1500,1519,0,731
130403,0,-3.06,3.17,-8.76,0.118,-0.040,1.004,0.00,0.00,0.00,0.00,3.06,-3.17,0.02,0.23,8.82,27.34,-4.16,30.73,1258,1372,1190,1212,1271,1500,1519,0,731
130415,0,6.23,-9.43,-9.77,0.304,-0.026,0.910,0.00,0.00,0.00,0.00,-6.23,9.43,0.01,0.27,9.07,-16.20,-9.68,33.49,1258,1372,1190,1212,1272,1500,1519,0,731
130427,0,7.95,-5.55,-11.35,0.157,-0.014,0.957,0.00,0.00,0.00,0.00,-7.95,5.55,0.01,0.30,9.38,-28.50,-40.07,37.75,1172,1348,1266,1302,1272,1500,1519,0,731
130439,0,8.55,8.46,-12.38,-0.011,-0.084,1.072,0.00,0.00,0.00,0.00,-8.55,-8.46,0.01,0.27,9.73,-33.68,-20.06,40.70,1172,1348,1266,1302,1272,1500,1519,0,731
130451,0,7.31,-3.74,-11.06,0.011,-0.215,1.008,0.00,0.00,0.00,0.00,-7.31,3.74,0.00,0.24,10.05,-29.29,55.03,37.71,1172,1348,1266,1302,1272,1500,1519,0,731
130463,0,1.94,-7.91,-9.98,0.029,-0.265,0.967,0.00,0.00,0.00,0.00,-1.94,7.91,0.00,0.24,10.33,-7.97,53.72,35.29,1172,1348,1266,1302,1272,1501,1519,0,731
130475,0,-9.28,-14.87,-10.26,0.044,-0.290,0.915,0.00,0.00,0.00,0.00,9.28,14.87,0.01,0.24,10.60,26.82,72.52,36.25,1172,1348,1266,1302,1273,1500,1519,0,731
130487,0,-13.53,-24.01,-10.85,0.052,-0.243,0.842,0.00,0.00,0.00,0.00,13.53,24.01,0.02,0.25,10.87,34.48,84.81,38.00,1172,1348,1266,1302,1273,1500,1519,0,731
130499,0,-9.23,7.04,-12.89,-0.078,-0.152,1.006,0.00,0.00,0.00,0.00,9.23,-7.04,0.03,0.24,11.19,26.30,-19.15,43.40,1172,1348,1266,1302,1272,1497,1519,0,731
130511,0,-5.14,23.73,-11.75,-0.175,-0.142,1.147,0.00,0.00,0.00,0.00,5.14,-23.73,0.03,0.21,11.52,15.90,-68.52,40.89,1172,1348,1266,1302,1272,1497,1519,0,731
130523,0,-4.99,26.11,-12.66,-0.200,-0.121,1.214,0.00,0.00,0.00,0.00,4.99,-26.11,0.03,0.17,11.82,16.81,-53.71,43.47,1224,1322,1304,1270,1280,1500,1519,0,732
130535,0,-8.35,-3.99,-12.23,0.025,-0.154,1.025,0.00,0.00,0.00,0.00,8.35,3.99,0.04,0.18,12.12,24.79,33.63,42.71,1224,1322,1304,1270,1280,1500,1519,0,732
130547,0,-6.31,-5.24,-14.22,0.075,-0.137,0.990,0.00,0.00,0.00,0.00,6.31,5.24,0.04,0.19,12.43,23.26,11.09,47.99,1224,1322,1304,1270,1280,1500,1519,0,732
130559,0,2.02,4.15,-15.68,0.001,-0.073,1.072,0.00,0.00,0.00,0.00,-2.02,-4.15,0.04,0.21,12.81,-5.15,-46.43,52.01,1224,1322,1304,1270,1280,1500,1519,0,732
130571,0,1.81,24.70,-17.41,-0.160,-0.027,1.197,0.00,0.00,0.00,0.00,-1.81,-24.70,0.03,0.20,13.23,8.20,-97.20,56.76,1224,1322,1304,1270,1280,1500,1519,0,732
130583,0,-1.21,20.49,-17.08,-0.068,-0.001,1.176,0.00,0.00,0.00,0.00,1.21,-20.49,0.03,0.19,13.67,21.91,-71.72,56.38,1224,1322,1304,1270,1284,1501,1519,0,732
130595,0,1.67,13.30,-15.20,0.101,0.019,1.003,0.00,0.00,0.00,0.00,-1.67,-13.30,0.02,0.20,14.09,15.11,-66.97,52.10,1224,1322,1304,1270,1288,1501,1519,0,732
130607,0,2.53,-5.63,-13.57,0.273,0.044,0.876,0.00,0.00,0.00,0.00,-2.53,5.63,0.01,0.25,14.47,8.13,-37.47,48.38,1224,1322,1304,1270,1288,1501,1519,0,732
130619,0,7.35,-23.13,-12.70,0.399,0.022,0.757,0.00,0.00,0.00,0.00,-7.35,23.13,0.01,0.31,14.82,-19.37,-6.44,46.56,1256,1360,1310,1230,1289,1501,1519,0,732
130631,0,14.05,-15.18,-12.77,0.304,0.053,0.794,0.00,0.00,0.00,0.00,-14.05,15.18,0.00,0.35,15.17,-40.90,-23.80,47.10,1256,1360,1310,1230,1289,1501,1519,0,732
130643,0,17.18,-11.69,-12.03,0.175,0.037,0.819,0.00,0.00,0.00,0.00,-17.18,11.69,-0.01,0.37,15.53,-46.47,4.82,45.60,1256,1360,1310,1230,1288,1500,1519,0,732
130655,0,17.77,-13.21,-10.79,0.199,0.026,0.894,0.00,0.00,0.00,0.00,-17.77,13.21,-0.02,0.37,15.85,-50.31,38.41,42.82,1256,1360,1310,1230,1295,1500,1519,0,732
130667,0,16.19,-14.27,-8.76,0.267,-0.040,0.831,0.00,0.00,0.00,0.00,-16.19,14.27,-0.02,0.38,16.15,-62.88,53.67,38.04,1256,1360,1310,1230,1295,1500,1519,0,732
130679,0,16.22,-21.51,-7.01,0.464,-0.061,0.694,0.00,0.00,0.00,0.00,-16.22,21.51,-0.01,0.40,16.43,-77.42,63.73,33.96,1256,1360,1310,1230,1288,1501,1520,0,732
130691,0,10.69,-6.01,-6.48,0.442,-0.085,0.765,0.00,0.00,0.00,0.00,-10.69,6.01,0.00,0.44,16.68,-64.04,-32.56,32.88,1256,1360,1310,1230,1288,1501,1520,0,732
130703,0,9.04,6.82,-5.39,0.228,-0.090,0.886,0.00,0.00,0.00,4.80,-9.04,-2.02,0.01,0.47,16.92,-48.92,-65.54,30.39,1256,1360,1310,1230,1292,1501,1524,0,732
130715,0,7.72,0.16,-4.77,-0.000,-0.132,0.908,0.00,0.00,0.00,0.00,-7.72,-0.16,0.01,0.48,17.18,-34.79,-11.76,29.11,1256,1360,1310,1230,1296,1503,1517,0,732
130727,0,4.53,-8.09,-6.48,-0.177,-0.225,0.959,0.00,0.00,0.00,0.00,-4.53,8.09,-0.01,0.45,17.45,-6.42,77.42,33.66,1203,1500,1169,1303,1296,1503,1517,0,732
130739,0,5.17,3.60,-8.87,-0.396,-0.205,1.110,0.00,0.00,0.00,0.00,-5.17,-3.60,-0.03,0.38,17.72,-4.31,80.58,39.90,1203,1500,1169,1303,1297,1501,1519,0,732
130751,0,14.03,20.03,-11.78,-0.624,-0.175,1.301,0.00,0.00,0.00,0.00,-14.03,-20.03,-0.04,0.32,18.00,-44.42,-0.88,47.46,1203,1500,1169,1303,1297,1501,1519,0,732
130763,0,16.46,-7.80,-10.45,-0.609,-0.109,1.198,0.00,0.00,0.00,0.00,-16.46,7.80,-0.06,0.35,18.25,-55.52,15.91,44.37,1203,1500,1169,1303,1297,1501,1519,0,732
130775,0,7.30,6.80,-11.66,-0.791,-0.020,1.386,0.00,0.00,0.00,0.00,-7.30,-6.80,-0.09,0.31,18.53,11.69,9.14,47.69,1203,1500,1169,1303,1298,1501,1519,0,732
130787,0,7.09,22.35,-9.57,-0.820,0.034,1.543,0.00,0.00,0.00,0.00,-7.09,-22.35,-0.13,0.22,18.79,35.54,37.38,42.73,1203,1500,1169,1303,1298,1501,1519,0,732
130799,0,4.94,27.70,-5.36,-0.782,0.059,1.539,0.00,0.00,0.00,0.00,-4.94,-27.70,-0.17,0.16,18.98,42.08,4.55,32.37,1203,1500,1169,1303,1300,1500,1519,0,732
130811,0,-1.69,4.10,-3.90,-0.590,-0.020,1.404,0.00,0.00,0.00,0.00,1.69,-4.10,-0.20,0.14,19.13,60.46,40.52,28.89,1203,1500,1169,1303,1300,1500,1519,0,732
130823,0,-6.87,-22.44,-6.68,-0.373,-0.045,1.169,0.00,0.00,0.00,0.00,6.87,22.44,-0.24,0.15,19.32,88.45,98.49,36.01,1328,1320,1338,1214,1300,1500,1519,0,732
130835,0,5.44,26.26,-9.29,-0.634,0.017,1.368,0.00,0.00,0.00,0.00,-5.44,-26.26,-0.27,0.11,19.54,36.44,-76.00,42.77,1328,1320,1338,1214,1300,1501,1519,0,732
130847,0,15.12,58.21,-10.60,-0.752,-0.027,1.495,0.00,0.00,0.00,0.00,-15.12,-58.21,-0.31,0.02,19.78,-6.38,-110.00,46.28,1328,1320,1338,1214,1300,1501,1519,0,732
130859,0,14.83,30.15,-8.60,-0.542,-0.015,1.335,0.00,0.00,0.00,0.00,-14.83,-30.15,-0.34,-0.00,20.00,-10.33,-79.41,41.50,1328,1320,1338,1214,1301,1501,1519,0,732
130871,0,17.90,7.61,-6.75,-0.293,-0.022,1.208,0.00,0.00,0.00,0.00,-17.90,-7.61,-0.38,-0.01,20.22,-12.06,-8.86,37.11,1328,1320,1338,1214,1301,1501,1519,0,732
130883,0,24.41,5.05,-4.13,-0.074,0.043,1.100,0.00,0.00,0.00,0.00,-24.41,-5.05,-0.42,-0.00,20.43,-30.28,-23.33,30.75,1328,1320,1338,1214,1303,1501,1519,0,732
130895,0,28.65,31.77,-4.51,-0.132,0.083,1.198,0.00,0.00,0.00,0.00,-28.65,-31.77,-0.46,-0.04,20.67,-49.79,-93.86,31.95,1328,1320,1338,1214,1307,1501,1519,0,732
130907,0,27.97,32.54,-5.79,-0.227,0.083,1.277,0.00,0.00,0.00,0.00,-27.97,-32.54,-0.50,-0.11,20.94,-47.56,-43.93,35.40,1328,1320,1338,1214,1307,1501,1519,0,732
130919,0,28.45,28.93,-9.40,-0.288,0.086,1.281,0.00,0.00,0.00,4.40,-28.45,-24.53,-0.54,-0.18,21.23,-46.02,-6.74,44.74,1302,1402,1298,1222,1306,1501,1522,0,747
130931,0,29.38,44.02,-11.94,-0.444,-0.009,1.319,0.00,0.00,0.00,4.40,-29.38,-39.62,-0.58,-0.28,21.52,-53.35,-30.33,51.37,1302,1402,1298,1222,1306,1501,1522,0,747
130943,0,31.89,34.86,-13.10,-0.542,-0.073,1.382,0.00,0.00,0.00,0.00,-31.89,-34.86,-0.61,-0.35,21.76,-74.92,-25.25,54.52,1302,1402,1298,1222,1309,1501,1519,0,747
130955,0,28.92,12.13,-11.35,-0.554,0.007,1.323,0.00,0.00,0.00,0.00,-28.92,-12.13,-0.65,-0.37,21.99,-57.16,-13.03,50.36,1302,1402,1298,1222,1312,1501,1519,0,747
130967,0,29.16,-12.28,-4.69,-0.275,-0.033,1.176,0.00,0.00,0.00,0.00,-29.16,12.28,-0.70,-0.37,22.10,-36.04,78.61,33.84,1302,1402,1298,1222,1312,1501,1519,0,747
130979,0,31.68,-6.74,1.42,0.020,-0.048,1.038,0.00,0.00,0.00,0.00,-31.68,6.74,-0.75,-0.33,22.12,-47.94,-24.91,18.57,1302,1402,1298,1222,1311,1501,1519,0,747
130991,0,31.56,-26.83,1.27,0.272,-0.157,0.886,0.00,0.00,0.00,0.00,-31.56,26.83,-0.80,-0.26,22.16,-52.88,10.10,18.99,1302,1402,1298,1222,1311,1501,1519,0,747
131003,0,32.73,-5.39,-2.18,0.278,-0.206,0.865,0.00,0.00,0.00,0.00,-32.73,5.39,-0.86,-0.27,22.27,-46.32,-1.21,27.72,1302,1402,1298,1222,1310,1501,1520,0,747
131015,0,41.74,51.44,-7.46,-0.153,-0.121,1.218,0.00,0.00,0.00,0.00,-41.74,-51.44,-0.92,-0.35,22.41,-89.48,-110.00,41.06,1302,1402,1298,1222,1310,1502,1519,0,747
131027,128,47.85,60.73,-10.79,-0.525,0.050,1.490,0.00,0.00,0.00,0.00,-47.85,-60.73,-0.98,-0.44,22.66,-110.00,-110.00,49.64,1182,1364,1342,1352,1310,1502,1519,0,731
131039,0,42.61,15.74,-4.22,-0.598,0.110,1.471,0.00,0.00,0.00,0.00,-42.61,-15.74,-1.04,-0.47,22.84,-87.96,8.08,33.39,1182,1364,1342,1352,1312,1501,1519,0,731
131051,0,34.69,-6.25,0.43,-0.364,0.143,1.384,0.00,0.00,0.00,0.00,-34.69,6.25,-1.09,-0.46,22.92,-53.50,26.39,21.85,1182,1364,1342,1352,1312,1501,1519,0,731
131063,0,34.30,-34.46,3.50,0.009,0.068,1.175,0.00,0.00,0.00,0.00,-34.30,34.46,-1.15,-0.36,22.94,-47.24,20.29,14.19,1182,1364,1342,1352,1311,1501,1520,0,731
131075,0,34.84,-43.81,2.46,0.413,-0.089,0.856,0.00,0.00,0.00,0.00,-34.84,43.81,-1.21,-0.23,22.92,-57.06,0.69,16.78,1182,1364,1342,1352,1313,1502,1518,0,731
131087,0,41.21,-23.91,-2.04,0.548,-0.152,0.808,0.00,0.00,0.00,0.00,-41.21,23.91,-1.27,-0.14,22.91,-89.32,-71.00,28.01,1182,1364,1342,1352,1313,1502,1518,0,731
131099,0,44.62,0.37,-3.04,0.415,-0.061,0.873,0.00,0.00,0.00,0.00,-44.62,-0.37,-1.34,-0.09,22.94,-87.03,-108.06,30.54,1182,1364,1342,1352,1313,1501,1518,0,731
131111,0,47.61,9.48,-0.63,0.212,-0.075,1.051,0.00,0.00,0.00,0.00,-47.61,-9.48,-1.42,-0.11,22.95,-79.30,-44.75,24.53,1182,1364,1342,1352,1313,1501,1518,0,731
131123,0,52.25,6.91,0.87,0.029,-0.071,1.189,0.00,0.00,0.00,0.00,-52.25,-6.91,-1.51,-0.13,23.14,-79.63,0.87,39.87,1255,1419,1347,1271,1323,1501,1518,0,793
131135,0,43.31,-3.78,4.88,-0.173,-0.087,1.247,0.00,0.00,0.00,0.00,-43.31,3.78,-1.62,-0.16,23.37,-19.28,62.76,30.08,1255,1419,1347,1271,1322,1500,1519,0,793
131147,0,38.96,-20.91,6.90,-0.256,-0.167,1.374,0.00,0.00,0.00,0.00,-38.96,20.91,-1.73,-0.16,23.29,10.58,102.61,6.05,1255,1419,1347,1271,1322,1500,1519,0,793
131159,0,39.40,-60.56,6.43,0.037,-0.185,1.096,0.00,0.00,0.00,0.00,-39.40,60.56,-1.86,-0.07,23.19,22.49,110.00,7.11,1255,1419,1347,1271,1323,1501,1518,0,793
131171,0,49.56,-65.80,3.45,-0.158,-0.064,1.075,0.00,0.00,0.00,0.00,-49.56,65.80,-1.99,0.12,23.03,-11.44,22.56,14.40,1255,1419,1347,1271,1323,1501,1518,0,793
131183,0,58.94,-22.11,3.99,-0.542,0.126,1.367,0.00,0.00,0.00,0.00,-58.94,22.11,-2.11,0.27,22.87,-49.72,-110.00,12.90,1255,1419,1347,1271,1323,1501,1518,0,793
131195,0,59.44,-55.38,6.02,-0.507,0.139,1.313,0.00,0.00,0.00,0.00,-59.44,55.38,-2.23,0.46,22.69,-55.47,-67.67,7.65,1255,1419,1347,1271,1323,1501,1519,0,793
131207,0,70.77,-36.45,7.16,-0.524,0.185,1.388,0.00,0.00,0.00,0.00,-70.77,36.45,-2.36,0.59,22.53,-91.41,-73.33,4.63,1255,1419,1347,1271,1323,1501,1519,0,793
131219,0,60.98,-86.12,12.01,-0.221,-0.004,1.179,0.00,0.00,0.00,0.00,-60.98,86.12,-2.49,0.74,22.27,-38.99,110.00,-7.75,1478,1244,1388,1182,1323,1501,1518,0,729
131231,0,57.59,-111.44,10.88,-0.114,-0.131,0.989,0.00,0.00,0.00,0.00,-57.59,111.44,-2.64,0.95,21.97,-13.40,110.00,-5.24,1478,1244,1388,1182,1323,1501,1518,0,729
131243,0,66.81,-101.20,9.55,-0.156,-0.184,0.874,0.00,0.00,0.00,0.00,-66.81,101.20,-2.80,1.12,21.73,-37.16,110.00,-2.15,1478,1244,1388,1182,1323,1501,1519,0,729
131255,0,72.76,-86.57,3.86,-0.167,-0.184,0.939,0.00,0.00,0.00,0.00,-72.76,86.57,-2.97,1.25,21.54,-58.17,110.00,11.89,1478,1244,1388,1182,1323,1500,1519,0,729
131267,0,71.18,-72.06,2.71,-0.289,-0.109,1.062,0.00,0.00,0.00,0.00,-71.18,72.06,-3.14,1.42,21.35,-42.32,45.42,14.58,1478,1244,1388,1182,1323,1500,1519,0,729
131279,0,64.76,-73.61,4.42,-0.333,-0.111,1.141,0.00,0.00,0.00,0.00,-64.76,73.61,-3.31,1.57,21.15,-12.36,69.53,10.11,1478,1244,1388,1182,1323,1500,1519,0,729
131291,0,67.15,-96.05,5.50,-0.163,-0.122,1.120,0.00,0.00,0.00,0.00,-67.15,96.05,-3.48,1.74,20.97,-17.10,110.00,7.23,1478,1244,1388,1182,1323,1500,1519,0,729
131303,0,65.38,-87.37,5.87,-0.086,-0.063,1.114,0.00,0.00,0.00,0.00,-65.38,87.37,-3.65,1.92,20.82,-13.61,88.11,6.13,1478,1244,1388,1182,1323,1501,1518,0,729
131315,0,57.66,-93.79,7.00,-0.047,-0.025,1.145,0.00,0.00,0.00,0.00,-57.66,93.79,-3.81,2.10,20.65,10.66,110.00,3.16,1478,1244,1388,1182,1323,1500,1519,0,729
131327,0,53.58,-78.05,-0.44,-0.313,0.052,1.434,0.00,0.00,0.00,0.00,-53.58,78.05,-3.95,2.20,20.61,-13.75,110.00,21.71,1257,1500,1169,1353,1323,1500,1519,0,731
131339,0,31.95,-45.85,-3.91,-0.434,-0.032,1.428,0.00,0.00,0.00,0.00,-31.95,45.85,-4.06,2.25,20.63,42.91,97.20,30.41,1257,1500,1169,1353,1323,1500,1519,0,731
131351,0,30.23,-69.98,-2.08,-0.364,-0.104,1.243,0.00,0.00,0.00,0.00,-30.23,69.98,-4.17,2.37,20.58,35.15,110.00,25.79,1257,1500,1169,1353,1323,1500,1519,0,731
131363,0,38.40,-27.61,0.11,-0.415,-0.083,1.349,0.00,0.00,0.00,0.00,-38.40,27.61,-4.28,2.49,20.47,-3.33,-78.82,20.19,1257,1500,1169,1353,1323,1500,1519,0,731
131375,0,39.68,-38.11,5.59,-0.249,-0.034,1.182,0.00,0.00,0.00,0.00,-39.68,38.11,-4.39,2.64,20.32,-3.02,-70.79,6.35,1257,1500,1169,1353,1322,1500,1520,0,731
131387,0,37.67,-68.90,8.95,-0.096,-0.048,1.003,0.00,0.00,0.00,0.00,-37.67,68.90,-4.51,2.86,20.10,19.46,-23.05,-2.27,1257,1500,1169,1353,1322,1500,1520,0,731
131399,0,44.81,-62.14,6.39,-0.107,-0.042,1.131,0.00,0.00,0.00,0.00,-44.81,62.14,-4.64,3.03,19.91,7.13,-13.36,3.93,1257,1500,1169,1353,1323,1500,1519,0,731
131411,0,42.55,-50.94,3.28,-0.263,0.148,1.417,0.00,0.00,0.00,0.00,-42.55,50.94,-4.76,3.16,19.79,13.72,-6.33,11.60,1257,1500,1169,1353,1323,1500,1519,0,731
131423,0,19.34,-26.57,-0.19,-0.250,0.207,1.423,0.00,0.00,0.00,0.00,-19.34,26.57,-4.86,3.28,19.71,85.18,-86.43,20.20,1381,1307,1335,1269,1323,1500,1517,0,732
131435,0,24.16,-22.99,-2.72,-0.109,0.320,1.375,0.00,0.00,0.00,0.00,-24.16,22.99,-4.95,3.34,19.69,44.85,-24.03,26.49,1381,1307,1335,1269,1323,1498,1519,0,732
131447,0,18.18,-59.73,-2.95,0.129,0.203,1.059,0.00,0.00,0.00,0.00,-18.18,59.73,-5.02,3.43,19.65,41.03,110.00,27.02,1381,1307,1335,1269,1323,1498,1519,0,732
131459,0,18.25,-45.85,-2.57,0.200,0.156,0.982,0.00,0.00,0.00,0.00,-18.25,45.85,-5.09,3.55,19.60,33.06,21.88,26.02,1381,1307,1335,1269,1323,1496,1519,0,732
131471,0,25.95,-43.00,-1.02,0.304,0.129,0.831,0.00,0.00,0.00,0.00,-25.95,43.00,-5.16,3.68,19.53,-0.37,-23.54,22.07,1381,1307,1335,1269,1323,1496,1519,0,732
131483,0,30.17,-44.70,2.94,0.318,0.070,0.768,0.00,0.00,-8.60,0.00,-38.77,44.70,-5.24,3.84,19.41,-26.18,-45.91,12.06,1381,1307,1335,1269,1322,1457,1505,0,732
131495,0,11.78,-49.46,2.93,0.628,0.153,0.773,0.00,0.00,-9.40,0.00,-21.18,49.46,-5.32,4.01,19.30,41.17,-50.90,11.97,1381,1307,1335,1269,1322,1453,1500,0,732
131507,0,6.55,-36.34,-2.19,0.670,0.103,0.857,0.00,0.00,-9.40,0.00,-15.95,36.34,-5.37,4.10,19.34,30.24,-23.96,24.80,1381,1307,1335,1269,1322,1453,1500,0,732
131519,0,2.08,-21.79,0.51,0.552,0.033,0.863,0.00,0.00,-8.80,0.00,-10.88,21.79,-5.40,4.13,19.45,1.47,25.89,18.18,1328,1314,1366,1280,1322,1456,1490,0,1007
131531,0,10.17,21.48,-2.20,0.218,-0.006,1.091,0.00,0.00,-8.80,0.00,-18.97,-21.48,-5.41,4.12,19.58,-54.63,-97.00,25.08,1328,1314,1366,1280,1322,1456,1490,0,1007
131543,0,15.09,-7.88,-2.82,0.085,-0.083,1.038,0.00,0.00,-12.00,0.00,-27.09,7.88,-5.45,4.11,19.77,-72.62,48.64,26.81,1328,1314,1366,1280,1322,1440,1491,0,1007
131555,0,17.96,-15.88,-6.31,0.062,-0.130,1.116,0.00,0.00,-11.00,0.00,-28.96,15.88,-5.50,4.11,20.00,-60.90,70.20,35.78,1328,1314,1366,1280,1322,1445,1491,0,1007
131567,0,18.42,-40.50,-6.26,0.063,-0.129,0.996,0.00,0.00,-11.00,0.00,-29.42,40.50,-5.55,4.18,20.24,-52.07,91.48,35.88,1328,1314,1366,1280,1322,1445,1491,0,1007
131579,0,21.55,-47.10,-6.94,0.047,-0.185,0.866,0.00,0.00,-11.00,0.00,-32.55,47.10,-5.62,4.26,20.42,-52.86,93.76,37.77,1328,1314,1366,1280,1322,1445,1491,0,1007
131591,0,22.64,-44.93,-9.11,0.033,-0.212,0.844,0.00,0.00,-11.00,0.00,-33.64,44.93,-5.68,4.36,20.56,-56.31,34.32,43.34,1328,1314,1366,1280,1322,1445,1491,0,1007
131603,0,5.05,-14.48,-6.62,0.408,-0.043,0.717,0.00,0.00,-13.40,0.00,-18.45,14.48,-5.74,4.43,20.70,5.79,-61.18,37.25,1328,1314,1366,1280,1322,1433,1491,0,1007
131615,0,3.76,-78.54,-2.63,0.893,-0.065,0.350,0.00,0.00,-13.40,0.00,-17.16,78.54,-5.79,4.62,20.71,-0.03,86.77,27.30,1328,1314,1366,1280,1322,1433,1491,0,1007
131627,0,-9.60,14.02,-7.91,0.531,-0.108,0.732,0.00,0.00,-13.40,0.00,-3.80,-14.02,-5.80,4.65,20.89,4.62,-110.00,40.66,1297,1343,1347,1301,1322,1433,1491,0,736
131639,0,-23.87,-11.97,-7.28,0.741,-0.206,0.581,0.00,0.00,-12.60,0.00,11.27,11.97,-5.81,4.66,21.08,53.60,34.88,39.29,1297,1343,1347,1301,1323,1437,1491,0,736
131651,0,-17.02,11.61,-2.42,0.530,-0.211,0.617,0.00,0.00,-12.60,0.00,4.42,-11.61,-5.83,4.62,21.24,39.45,-0.78,27.28,1297,1343,1347,1301,1323,1437,1491,0,736
131663,0,-19.09,-4.55,-1.69,0.498,-0.284,0.638,0.00,0.00,-12.60,0.00,6.49,4.55,-5.86,4.60,21.37,60.29,68.18,25.60,1297,1343,1347,1301,1322,1437,1491,0,736
131675,0,-13.18,3.20,-5.67,0.244,-0.157,0.699,0.00,0.00,-12.60,0.00,0.58,-3.20,-5.91,4.60,21.54,51.76,-0.12,35.73,1297,1343,1347,1301,1323,1437,1492,0,736
131687,0,10.24,54.17,-7.06,-0.171,0.051,0.977,0.00,0.00,-12.60,0.00,-22.84,-54.17,-5.97,4.48,21.75,-12.30,-88.33,39.41,1297,1343,1347,1301,1323,1437,1492,0,736
131699,0,3.03,33.43,-2.14,0.351,0.168,1.142,0.00,0.00,-12.60,0.00,-15.63,-33.43,-5.99,4.43,21.83,-33.20,-41.70,27.19,1297,1343,1347,1301,1322,1437,1492,0,736
131711,0,-19.77,50.29,-3.29,0.556,0.134,0.763,0.00,0.00,-12.60,0.00,7.17,-50.29,-5.98,4.42,21.90,2.11,-110.00,30.12,1297,1343,1347,1301,1322,1437,1492,0,736
131723,0,-29.46,61.49,-8.53,0.129,0.196,0.970,0.00,0.00,-12.60,0.00,16.86,-61.49,-5.95,4.36,22.05,16.15,-110.00,43.36,1272,1170,1500,1288,1323,1437,1492,0,755
131735,0,-25.99,23.99,-6.05,0.276,0.110,0.739,0.00,0.00,-8.40,0.00,17.59,-23.99,-5.93,4.22,22.20,28.43,110.00,37.32,1272,1170,1500,1288,1323,1458,1494,0,755
131747,0,-11.93,-2.40,-1.26,0.581,-0.029,0.595,0.00,0.00,-8.40,0.00,3.53,2.40,-5.94,4.18,22.30,-0.87,108.94,25.46,1272,1170,1500,1288,1323,1458,1494,0,755
131759,0,-1.77,13.53,-5.17,0.312,-0.035,0.843,0.00,0.00,-8.20,0.00,-6.43,-13.53,-5.93,4.20,22.46,-52.48,-60.55,35.39,1272,1170,1500,1288,1324,1459,1493,0,755
131771,0,-4.15,-34.70,-8.97,0.367,-0.068,0.692,0.00,0.00,-8.20,0.00,-4.05,34.70,-5.94,4.22,22.68,-18.19,110.00,45.10,1272,1170,1500,1288,1324,1459,1493,0,755
131783,0,5.26,-73.29,-7.31,0.749,-0.115,0.540,0.00,0.00,-7.60,0.00,-12.86,73.29,-5.98,4.25,22.76,-17.79,110.00,41.05,1272,1170,1500,1288,1322,1462,1497,0,755
131795,128,37.59,56.97,-7.73,0.164,0.228,1.308,0.00,0.00,-7.40,0.00,-44.99,-56.97,-5.98,4.20,22.91,-110.00,-110.00,42.24,1272,1170,1500,1288,1322,1463,1496,0,755
131807,128,22.45,78.07,-6.12,0.310,0.210,1.144,0.00,0.00,-7.40,0.00,-29.85,-78.07,-5.94,4.11,23.17,-110.00,-110.00,38.48,1272,1170,1500,1288,1322,1463,1496,0,755
131819,128,16.43,80.60,-0.80,0.158,0.185,1.215,0.00,0.00,-8.00,0.00,-24.43,-80.60,-5.89,4.03,23.35,-110.00,-110.00,25.35,1298,1500,1128,1298,1323,1460,1497,0,733
131831,128,2.77,36.01,-6.90,0.201,0.106,1.111,0.00,0.00,-8.00,0.00,-10.77,-36.01,-5.85,3.94,23.58,-110.00,6.43,40.83,1298,1500,1128,1298,1323,1460,1497,0,733
131843,0,-1.77,37.89,-4.46,0.032,0.146,1.181,0.00,0.00,-8.00,0.00,-6.23,-37.89,-5.83,3.87,23.79,-74.78,-30.37,34.92,1298,1500,1128,1298,1322,1460,1497,0,733
131855,0,-9.86,32.71,-5.98,0.044,0.090,1.084,0.00,0.00,-8.00,0.00,1.86,-32.71,-5.81,3.81,23.97,-25.39,-39.90,38.92,1298,1500,1128,1298,1323,1460,1497,0,733
131867,0,-6.66,96.65,-11.86,-0.352,0.179,1.462,0.00,0.00,-8.00,0.00,-1.34,-96.65,-5.79,3.69,24.26,-52.22,-110.00,53.91,1298,1500,1128,1298,1323,1460,1497,0,733
131879,0,-8.92,43.84,-9.91,0.219,0.023,1.023,0.00,0.00,-8.40,0.00,0.52,-43.84,-5.77,3.50,24.64,-47.13,101.80,49.42,1298,1500,1128,1298,1322,1458,1497,0,733
131891,0,-3.68,70.13,-9.14,0.210,-0.023,1.003,0.00,0.00,-8.40,0.00,-4.72,-70.13,-5.74,3.40,24.93,-80.93,-110.00,47.77,1298,1500,1128,1298,1322,1458,1497,0,733
131903,0,-7.06,-12.58,-13.57,0.638,-0.028,0.660,0.00,0.00,-8.40,0.00,-1.34,12.58,-5.70,3.34,25.24,-77.47,110.00,59.18,1298,1500,1128,1298,1322,1458,1497,0,733
131915,0,-10.78,67.16,-16.24,-0.036,0.140,1.040,0.00,0.00,-11.20,0.00,-0.42,-67.16,-5.66,3.22,25.64,-81.83,-110.00,66.24,1298,1500,1128,1298,1324,1444,1496,0,733
131927,0,-18.07,58.67,-12.45,-0.110,0.156,1.019,0.00,0.00,-11.20,0.00,6.87,-58.67,-5.62,3.06,26.05,-43.70,-13.65,57.17,1191,1500,1237,1345,1324,1444,1496,0,735
131939,0,-33.27,7.35,-9.85,0.221,0.145,0.764,0.00,0.00,-10.60,0.00,22.67,-7.35,-5.58,2.99,26.38,28.61,110.00,51.01,1191,1500,1237,1345,1323,1447,1497,0,735
131951,0,-38.58,65.53,-13.03,0.210,0.204,0.860,0.00,0.00,-10.60,0.00,27.98,-65.53,-5.53,2.88,26.80,50.59,-97.45,59.39,1191,1500,1237,1345,1323,1447,1497,0,735
131963,0,-36.25,81.66,-12.30,0.182,0.189,0.897,0.00,0.00,-12.80,0.00,23.45,-81.66,-5.50,2.76,27.24,43.54,-110.00,57.99,1191,1500,1237,1345,1322,1436,1497,0,735
131975,0,-34.54,64.38,-11.93,0.206,0.235,1.009,0.00,0.00,-12.80,0.00,21.74,-64.38,-5.45,2.68,27.68,26.16,-110.00,57.49,1191,1500,1237,1345,1323,1436,1497,0,735
131987,0,-36.15,-5.46,-14.76,0.555,0.185,0.716,0.00,0.00,-12.80,0.00,23.35,5.46,-5.40,2.68,28.11,18.18,62.10,65.01,1191,1500,1237,1345,1323,1436,1497,0,735
131999,0,-34.67,20.52,-18.66,0.428,0.134,0.904,0.00,0.00,-12.80,0.00,21.87,-20.52,-5.34,2.58,28.63,-2.72,32.36,75.29,1191,1500,1237,1345,1322,1436,1497,0,735
132011,0,-27.86,36.81,-18.84,0.442,0.201,1.038,0.00,0.00,-12.80,0.00,15.06,-36.81,-5.27,2.48,29.11,-40.77,-6.41,76.22,1191,1500,1237,1345,1322,1436,1497,0,735
132023,0,-43.37,42.55,-17.96,0.152,0.115,1.161,0.00,0.00,-12.60,0.00,30.77,-42.55,-5.18,2.43,29.57,3.95,-70.33,74.47,1254,1416,1364,1258,1323,1437,1497,0,733
132035,0,-63.10,-9.34,-13.77,0.197,0.098,1.053,0.00,0.00,-12.60,0.00,50.50,9.34,-5.08,2.32,30.08,57.83,110.00,64.50,1254,1416,1364,1258,1323,1437,1497,0,733
132047,0,-63.76,23.73,-12.93,0.098,0.083,1.213,0.00,0.00,-12.60,0.00,51.16,-23.73,-4.98,2.24,30.51,53.77,24.91,62.82,1254,1416,1364,1258,1323,1437,1497,0,733
132059,0,-65.15,12.25,-12.95,0.243,-0.005,0.934,0.00,0.00,-12.40,0.00,52.75,-12.25,-4.89,2.20,30.95,62.54,40.09,63.31,1254,1416,1364,1258,1323,1438,1497,0,733
132071,0,-57.52,41.85,-18.75,0.258,-0.022,1.004,0.00,0.00,-12.40,0.00,45.12,-41.85,-4.79,2.08,31.38,31.46,-10.41,78.27,1254,1416,1364,1258,1323,1438,1497,0,733
132083,0,-63.59,53.14,-19.93,0.108,0.107,1.133,0.00,0.00,-12.40,0.00,51.19,-53.14,-4.70,1.97,31.84,61.41,-53.83,81.67,1254,1416,1364,1258,1323,1438,1497,0,733
132095,0,-70.07,28.66,-13.96,0.132,0.141,1.115,0.00,0.00,-12.20,0.00,57.87,-28.66,-4.60,1.89,32.24,92.95,37.67,67.13,1254,1416,1364,1258,1323,1439,1497,0,733
132107,0,-66.40,21.29,-6.47,0.260,0.172,1.026,0.00,0.00,-12.20,0.00,54.20,-21.29,-4.51,1.81,32.57,75.54,42.49,48.75,1254,1416,1364,1258,1323,1439,1497,0,733
132119,0,-64.36,8.43,-3.90,0.538,0.024,0.896,0.00,0.00,-12.80,0.00,51.56,-8.43,-4.40,1.80,32.82,50.66,11.43,42.56,1242,1304,1426,1320,1323,1436,1497,0,737
132131,0,-49.09,5.00,-6.86,0.725,-0.102,0.672,0.00,0.00,-12.80,0.00,36.29,-5.00,-4.31,1.74,33.11,-4.19,52.39,50.26,1242,1304,1426,1320,1323,1436,1497,0,737
132143,0,-38.53,79.00,-16.60,0.324,0.077,1.075,0.00,0.00,-11.80,0.00,26.73,-79.00,-4.20,1.62,33.47,-63.10,-110.00,74.97,1242,1304,1426,1320,1324,1441,1496,0,737
132155,0,-47.49,30.05,-14.32,0.216,0.095,1.117,0.00,0.00,-12.00,0.00,35.49,-30.05,-4.10,1.48,33.86,-19.87,88.30,69.67,1242,1304,1426,1320,1324,1440,1496,0,737
132167,0,-49.76,13.16,-7.29,0.262,0.011,1.010,0.00,0.00,-12.00,0.00,37.76,-13.16,-3.99,1.36,34.17,-21.44,110.00,52.38,1242,1304,1426,1320,1324,1440,1496,0,737
132179,0,-69.33,21.27,-4.37,0.197,-0.116,0.995,0.00,0.00,-11.80,0.00,57.53,-21.27,-3.86,1.29,34.40,36.26,60.77,45.32,1242,1304,1426,1320,1323,1441,1497,0,737
132191,0,-71.48,17.38,-11.07,0.034,-0.108,0.944,0.00,0.00,-11.80,0.00,59.68,-17.38,-3.75,1.18,34.75,54.54,99.41,62.42,1242,1304,1426,1320,1323,1441,1497,0,737
132203,0,-66.64,65.56,-18.02,-0.354,0.008,1.296,0.00,0.00,-12.60,0.00,54.04,-65.56,-3.64,0.99,35.21,34.70,-10.33,80.27,1242,1304,1426,1320,1323,1437,1497,0,737
132215,0,-82.66,47.93,-18.79,-0.529,0.174,1.410,0.00,0.00,-12.60,0.00,70.06,-47.93,-3.51,0.89,35.67,87.37,-8.17,82.64,1242,1304,1426,1320,1323,1437,1497,0,737
132227,128,-93.60,8.37,-14.52,-0.280,0.021,1.274,0.00,0.00,-12.60,0.00,81.00,-8.37,-3.39,0.82,36.02,110.00,100.98,72.32,1409,1449,1301,1133,1323,1437,1497,0,736
132239,0,-76.50,40.77,-15.36,-0.368,0.021,1.350,0.00,0.00,-12.60,0.00,63.90,-40.77,-3.28,0.75,36.39,77.38,-44.15,74.80,1409,1449,1301,1133,1323,1437,1497,0,736
132251,0,-65.20,76.41,-13.66,-0.814,0.163,1.592,0.00,0.00,-12.60,0.00,52.60,-76.41,-3.16,0.65,36.86,27.87,-110.00,71.01,1409,1449,1301,1133,1323,1437,1497,0,736
132263,0,-69.09,9.40,-12.96,-0.596,0.158,1.405,0.00,0.00,-12.60,0.00,56.49,-9.40,-3.04,0.60,37.32,43.52,60.87,69.72,1409,1449,1301,1133,1323,1437,1497,0,736
132275,0,-45.85,12.76,-13.62,-0.423,0.087,1.285,0.00,0.00,-12.60,0.00,33.25,-12.76,-2.94,0.52,37.70,-32.67,53.88,71.74,1409,1449,1301,1133,1323,1437,1497,0,736
132287,128,-31.62,52.19,-17.46,-0.480,0.170,1.435,0.00,0.00,-12.60,0.00,19.02,-52.19,-2.82,0.47,38.05,-105.33,-110.00,81.70,1409,1449,1301,1133,1323,1437,1497,0,736
132299,0,-36.05,74.44,-19.90,-0.827,0.343,1.683,0.00,0.00,-12.60,0.00,23.45,-74.44,-2.72,0.35,38.54,-75.77,-110.00,88.30,1409,1449,1301,1133,1323,1437,1497,0,736
132311,0,-32.06,0.78,-12.00,-0.593,0.312,1.500,0.00,0.00,-12.60,0.00,19.46,-0.78,-2.62,0.27,38.96,-79.83,110.00,68.96,1409,1449,1301,1133,1323,1437,1497,0,736
132323,0,-37.65,4.52,-4.04,-0.578,0.300,1.364,0.00,0.00,-12.60,0.00,25.05,-4.52,-2.51,0.20,39.33,-67.49,102.73,49.42,1100,1406,1418,1382,1322,1437,1498,0,765
132335,0,-53.15,-4.12,-5.47,-0.392,0.108,1.337,0.00,0.00,-12.60,0.00,40.55,4.12,-2.41,0.17,39.60,-6.31,85.24,53.28,1100,1406,1418,1382,1323,1437,1497,0,765
132347,0,-55.62,5.91,-9.04,-0.606,0.107,1.269,0.00,0.00,-12.60,0.00,43.02,-5.91,-2.31,0.12,39.95,14.79,53.70,62.56,1100,1406,1418,1382,1323,1437,1497,0,765
132359,0,-59.65,-0.32,-17.12,-0.491,0.140,1.277,0.00,0.00,-12.60,0.00,47.05,0.32,-2.20,-0.00,40.36,25.28,110.00,83.16,1100,1406,1418,1382,1323,1437,1497,0,765
132371,0,-61.62,42.83,-17.79,-0.649,0.336,1.573,0.00,0.00,-12.60,0.00,49.02,-42.83,-2.11,-0.08,40.73,37.54,-54.44,85.19,1100,1406,1418,1382,1323,1437,1497,0,765
132383,0,-62.05,-0.15,-6.60,-0.470,0.345,1.325,0.00,0.00,-12.60,0.00,49.45,0.15,-2.00,-0.08,40.95,41.22,36.03,57.45,1100,1406,1418,1382,1323,1437,1497,0,765
132395,0,-71.05,-17.72,-5.57,-0.090,0.291,1.061,0.00,0.00,-12.60,0.00,58.45,17.72,-1.90,-0.08,41.19,86.54,104.13,55.10,1100,1406,1418,1382,1323,1437,1497,0,765
132407,0,-66.55,39.21,-5.38,-0.220,0.223,1.195,0.00,0.00,-12.60,0.00,53.95,-39.21,-1.80,-0.14,41.39,80.00,-65.15,54.83,1100,1406,1418,1382,1323,1437,1497,0,765
132419,0,-66.89,41.41,-7.61,-0.353,0.308,1.327,0.00,0.00,-12.60,0.00,54.29,-41.41,-1.70,-0.17,41.70,85.45,-110.00,60.73,1100,1408,1358,1458,1323,1437,1497,0,736
132431,0,-58.16,24.57,-9.51,-0.264,0.243,1.279,0.00,0.00,-12.60,0.00,45.56,-24.57,-1.62,-0.26,42.00,64.46,22.43,65.78,1100,1408,1358,1458,1323,1437,1497,0,736
132443,0,-41.20,37.78,-8.01,-0.242,0.272,1.328,0.00,0.00,-12.60,0.00,28.60,-37.78,-1.54,-0.33,42.24,-16.18,-60.66,62.26,1100,1408,1358,1458,1323,1437,1497,0,736
132455,0,-35.16,84.69,-9.78,-0.460,0.343,1.581,0.00,0.00,-12.60,0.00,22.56,-84.69,-1.45,-0.41,42.48,-41.41,-110.00,66.93,1100,1408,1358,1458,1323,1437,1497,0,736
132467,0,-31.05,35.48,-3.53,-0.329,0.318,1.384,0.00,0.00,-12.60,0.00,18.45,-35.48,-1.36,-0.47,42.68,-63.40,-39.35,51.51,1100,1408,1358,1458,1323,1437,1497,0,736
132479,0,-42.11,31.16,-6.39,-0.078,0.197,1.303,0.00,0.00,-12.40,0.00,29.71,-31.16,-1.27,-0.59,42.96,-17.95,56.87,58.94,1100,1408,1358,1458,1323,1438,1497,0,736
132491,0,-48.55,71.80,-3.61,-0.372,0.076,1.407,0.00,0.00,-12.40,0.00,36.15,-71.80,-1.16,-0.74,43.15,-4.92,-66.98,52.17,1100,1408,1358,1458,1323,1438,1497,0,736
132503,0,-64.76,23.93,-2.59,-0.376,-0.026,1.240,0.00,0.00,-12.20,0.00,52.56,-23.93,-1.05,-0.83,43.39,44.25,78.05,49.86,1100,1408,1358,1458,1323,1439,1496,0,736
132515,0,-66.16,37.39,-12.82,-0.496,-0.006,1.347,0.00,0.00,-12.00,0.00,54.16,-37.39,-0.94,-1.01,43.73,50.31,106.89,75.77,1100,1408,1358,1458,1324,1440,1496,0,736
132527,0,-68.62,60.26,-11.53,-0.664,0.101,1.497,0.00,0.00,-12.00,0.00,56.62,-60.26,-0.82,-1.14,44.03,44.20,-32.94,72.86,1306,1314,1482,1194,1324,1440,1496,0,745
132539,128,-92.22,-4.75,-8.33,-0.221,0.059,1.199,0.00,0.00,-12.00,0.00,80.22,4.75,-0.67,-1.17,44.26,110.00,110.00,65.08,1306,1314,1482,1194,1327,1440,1496,0,745
132551,128,-102.86,-34.28,-7.71,0.331,-0.102,0.898,0.00,0.00,-12.00,0.00,90.86,34.28,-0.53,-1.17,44.39,110.00,110.00,63.68,1306,1314,1482,1194,1327,1440,1496,0,745
132563,128,-95.07,32.56,-2.98,0.244,-0.108,0.974,0.00,0.00,-12.40,0.00,82.67,-32.56,-0.38,-1.23,44.57,110.00,-58.92,52.02,1306,1314,1482,1194,1323,1438,1499,0,745
132575,128,-100.37,43.37,-5.10,0.279,-0.130,1.135,0.00,0.00,-12.20,0.00,88.17,-43.37,-0.23,-1.31,44.79,110.00,-66.39,57.55,1306,1314,1482,1194,1323,1439,1498,0,745
132587,128,-105.96,45.53,-9.03,0.125,-0.054,1.172,0.00,0.00,-12.20,0.00,93.76,-45.53,-0.07,-1.43,45.10,110.00,-5.49,67.68,1306,1314,1482,1194,1323,1439,1498,0,745
132599,128,-105.87,50.65,-13.54,0.179,0.011,1.166,0.00,0.00,-12.20,0.00,93.67,-50.65,0.09,-1.58,45.40,110.00,13.50,79.24,1306,1314,1482,1194,1323,1439,1498,0,745
132611,128,-105.70,87.74,-12.15,0.094,0.050,1.200,0.00,0.00,-12.20,0.00,93.50,-87.74,0.27,-1.72,45.62,110.00,-110.00,76.00,1306,1314,1482,1194,1323,1439,1498,0,745
132623,0,-105.63,77.78,-7.40,-0.061,0.114,1.169,0.00,0.00,-12.20,0.00,93.43,-77.78,0.46,-1.84,45.85,94.16,-110.00,64.35,1223,1421,1377,1271,1323,1439,1498,0,734
132635,128,-117.29,65.93,-7.07,-0.065,0.123,1.151,0.00,0.00,-12.20,0.00,105.09,-65.93,0.67,-2.01,46.14,110.00,-14.51,63.81,1223,1421,1377,1271,1323,1439,1498,0,734
132647,128,-115.04,84.40,-8.76,-0.243,0.117,1.373,0.00,0.00,-12.20,0.00,102.84,-84.40,0.87,-2.20,46.42,110.00,-45.45,68.32,1223,1421,1377,1271,1323,1439,1498,0,734
132659,128,-120.99,44.71,-6.77,-0.063,0.134,1.134,0.00,0.00,-12.20,0.00,108.79,-44.71,1.09,-2.33,46.71,110.00,50.41,63.63,1223,1421,1377,1271,1323,1439,1498,0,734
132671,128,-118.23,109.09,-10.48,-0.079,0.111,1.285,0.00,0.00,-12.20,0.00,106.03,-109.09,1.30,-2.51,46.87,110.00,-110.00,73.06,1223,1421,1377,1271,1323,1439,1498,0,734
132683,128,-120.04,103.52,-8.49,-0.139,0.226,1.200,0.00,0.00,-12.20,0.00,107.84,-103.52,1.53,-2.68,47.11,105.87,-110.00,68.34,1223,1421,1377,1271,1323,1439,1498,0,734
132695,128,-128.43,103.63,-9.95,-0.078,0.202,1.246,0.00,0.00,-12.20,0.00,116.23,-103.63,1.76,-2.93,47.36,110.00,-62.12,72.25,1223,1421,1377,1271,1323,1439,1499,0,734
132707,128,-121.50,108.97,-7.41,-0.150,0.241,1.360,0.00,0.00,-12.20,0.00,109.30,-108.97,1.98,-3.15,47.62,110.00,-100.47,66.15,1223,1421,1377,1271,1323,1439,1499,0,734
132719,0,-114.20,62.22,-4.86,0.218,0.154,1.109,0.00,0.00,-11.80,0.00,102.40,-62.22,2.20,-3.30,47.82,87.40,6.71,59.96,1183,1289,1475,1345,1323,1441,1502,0,769
132731,0,-90.71,61.15,-5.44,0.421,0.004,0.976,0.00,0.00,-11.80,0.00,78.91,-61.15,2.41,-3.47,47.96,-7.85,-4.48,61.56,1183,1289,1475,1345,1323,1441,1502,0,769
132743,0,-77.16,97.52,-8.54,0.164,0.113,1.186,0.00,0.00,-11.80,0.00,65.36,-97.52,2.63,-3.67,48.20,-65.22,-110.00,69.54,1183,1289,1475,1345,1323,1441,1499,0,769
132755,0,-92.57,39.30,-6.77,0.287,-0.041,1.039,0.00,0.00,-9.80,0.00,82.77,-39.30,2.84,-3.83,48.42,14.08,109.26,65.35,1183,1289,1475,1345,1323,1451,1499,0,769
132767,0,-100.53,-0.20,-5.55,0.460,-0.177,0.840,0.00,0.00,-9.80,0.00,90.73,0.20,3.05,-3.95,48.57,58.16,110.00,62.44,1183,1289,1475,1345,1323,1451,1499,0,769
132779,0,-100.67,46.24,-6.79,0.151,-0.158,1.117,0.00,0.00,-9.00,0.00,91.67,-46.24,3.25,-4.05,48.74,59.72,-26.69,65.71,1183,1289,1475,1345,1323,1455,1494,0,769
132791,0,-97.08,50.70,-5.21,0.041,-0.192,1.188,0.00,0.00,-9.00,0.00,88.08,-50.70,3.43,-4.18,48.92,63.71,-19.75,61.94,1183,1289,1475,1345,1323,1455,1494,0,769
132803,0,-89.38,8.53,-4.22,0.437,-0.253,0.838,0.00,0.00,-8.20,0.00,81.18,-8.53,3.62,-4.25,49.06,42.73,104.69,59.61,1183,1289,1475,1345,1323,1459,1503,0,769
132815,0,-89.62,48.82,-5.57,0.325,-0.128,0.997,0.00,0.00,-8.20,0.00,81.42,-48.82,3.81,-4.27,49.12,43.00,-110.00,63.04,1183,1289,1475,1345,1323,1459,1503,0,769
132827,0,-98.29,12.23,-3.59,0.438,-0.048,0.834,0.00,0.00,-8.20,0.00,90.09,-12.23,4.01,-4.29,49.19,83.78,-19.74,58.18,1231,1281,1475,1305,1323,1459,1503,0,737
132839,0,-99.75,-3.82,-1.26,0.537,-0.113,0.787,0.00,0.00,-7.20,0.00,92.55,3.82,4.21,-4.31,49.24,79.16,50.76,52.39,1231,1281,1475,1305,1324,1464,1502,0,737
132851,0,-86.17,15.32,4.38,0.236,-0.136,1.016,0.00,0.00,-7.20,0.00,78.97,-15.32,4.43,-4.27,49.19,-7.46,-110.00,38.24,1231,1281,1475,1305,1324,1464,1502,0,737
132863,0,-75.85,-37.85,2.79,0.526,-0.155,0.711,0.00,0.00,-7.40,0.00,68.45,37.85,4.64,-4.22,49.25,-58.44,78.83,42.28,1231,1281,1475,1305,1323,1463,1503,0,737
132875,0,-76.82,-30.90,-0.54,0.511,-0.259,0.722,0.00,0.00,-6.00,0.00,70.82,30.90,4.86,-4.20,49.19,-41.69,88.64,50.53,1231,1281,1475,1305,1323,1470,1503,0,737
132887,0,-86.31,-8.24,-1.43,0.014,-0.107,0.968,0.00,0.00,-6.00,0.00,80.31,8.24,5.09,-4.13,49.13,-14.72,-68.26,52.71,1231,1281,1475,1305,1323,1470,1503,0,737
132899,0,-98.44,-12.45,3.61,-0.170,-0.114,1.048,0.00,0.00,-6.20,0.00,92.24,12.45,5.30,-4.10,49.02,45.55,-16.19,39.99,1231,1281,1475,1305,1322,1469,1505,0,737
132911,0,-93.08,-13.10,6.90,-0.064,-0.126,0.957,0.00,0.00,-6.20,0.00,86.88,13.10,5.49,-4.08,48.88,57.01,16.33,31.63,1231,1281,1475,1305,1322,1469,1505,0,737
132923,0,-93.81,-12.11,4.78,-0.094,-0.074,0.995,0.00,0.00,0.00,0.00,93.81,12.11,5.70,-4.05,48.80,84.16,25.86,36.84,1198,1500,1226,1354,1322,1481,1505,0,744
132935,0,-87.09,19.91,4.81,-0.360,-0.027,1.205,0.00,0.00,0.00,0.00,87.09,-19.91,5.89,-4.04,48.70,74.50,-98.43,36.68,1198,1500,1226,1354,1322,1480,1507,0,744
132947,0,-82.72,0.33,4.15,-0.105,0.012,1.148,0.00,0.00,0.00,0.00,82.72,-0.33,6.06,-4.01,48.61,78.74,-37.52,38.24,1198,1500,1226,1354,1322,1480,1507,0,744
132959,0,-65.50,-22.03,7.05,0.111,-0.045,0.929,0.00,0.00,0.00,0.00,65.50,22.03,6.21,-3.96,48.44,38.35,8.92,30.82,1198,1500,1226,1354,1322,1483,1507,0,744
132971,0,-55.12,-29.58,5.60,0.090,-0.042,0.881,0.00,0.00,0.00,0.00,55.12,29.58,6.34,-3.93,48.27,22.25,58.83,34.27,1198,1500,1226,1354,1322,1483,1507,0,744
132983,0,-37.63,-8.34,0.51,-0.079,-0.039,1.103,0.00,0.00,0.00,0.00,37.63,8.34,6.45,-3.97,48.11,-18.14,47.51,46.82,1198,1500,1226,1354,1323,1483,1507,0,744
132995,128,-10.73,8.55,5.20,-0.201,0.064,1.228,0.00,0.00,0.00,0.00,10.73,-8.55,6.54,-3.98,47.91,-110.00,-28.08,34.90,1198,1500,1226,1354,1323,1495,1507,0,744
133007,128,3.29,38.16,10.08,-0.105,0.008,1.206,0.00,0.00,0.00,0.00,-3.29,-38.16,6.61,-4.01,47.59,-110.00,-110.00,22.40,1198,1500,1226,1354,1323,1495,1507,0,744
133019,128,8.14,30.75,16.59,-0.229,-0.108,1.179,0.00,0.00,0.00,0.00,-8.14,-30.75,6.67,-4.02,47.20,-110.00,-110.00,5.73,1318,1500,1108,1318,1323,1500,1507,0,732
133031,0,2.02,-0.47,15.90,-0.306,-0.212,1.180,0.00,0.00,0.00,0.00,-2.02,0.47,6.72,-4.03,46.84,-93.57,24.82,7.10,1318,1500,1108,1318,1323,1500,1507,0,732
133043,0,-1.09,-14.70,14.32,-0.262,-0.216,1.139,0.00,0.00,0.00,0.00,1.09,14.70,6.76,-4.06,46.49,-51.60,110.00,10.70,1318,1500,1108,1318,1323,1501,1507,0,732
133055,0,-0.17,3.56,16.12,-0.256,-0.238,1.146,0.00,0.00,0.00,0.00,0.17,-3.56,6.78,-4.09,46.03,-31.46,41.74,5.75,1318,1500,1108,1318,1323,1499,1501,0,732
133067,0,0.66,-0.22,16.29,-0.189,-0.210,1.104,0.00,0.00,0.00,0.00,-0.66,0.22,6.79,-4.11,45.56,-22.08,37.25,4.84,1318,1500,1108,1318,1323,1499,1501,0,732
133079,0,-0.56,5.53,14.75,-0.187,-0.242,1.108,0.00,0.00,0.00,0.00,0.56,-5.53,6.78,-4.16,45.11,4.52,50.14,8.22,1318,1500,1108,1318,1323,1510,1501,0,732
133091,0,6.12,3.04,16.55,-0.117,-0.303,1.006,0.00,0.00,0.00,0.00,-6.12,-3.04,6.76,-4.24,44.63,4.20,98.37,3.26,1318,1500,1108,1318,1323,1510,1501,0,732
133103,0,21.18,20.46,17.91,-0.098,-0.344,0.998,0.00,0.00,9.80,0.00,-11.38,-20.46,6.74,-4.34,44.11,-36.97,56.98,-0.67,1318,1500,1108,1318,1323,1549,1504,0,732
133115,0,40.31,40.21,17.58,-0.130,-0.341,1.057,0.00,0.00,11.20,0.00,-29.11,-40.21,6.72,-4.45,43.58,-101.42,-22.68,-0.38,1318,1500,1108,1318,1323,1556,1506,0,732
133127,128,55.95,45.81,17.37,-0.082,-0.240,1.066,0.00,0.00,11.20,0.00,-44.75,-45.81,6.68,-4.53,43.06,-110.00,-62.46,-0.35,1291,1363,1285,1353,1323,1556,1506,0,757
133139,128,61.10,47.56,19.36,-0.016,-0.108,1.027,0.00,0.00,10.60,0.00,-50.50,-47.56,6.64,-4.62,42.54,-110.00,-85.12,-5.87,1291,1363,1285,1353,1323,1553,1510,0,757
133151,128,60.64,49.77,22.45,0.049,-0.110,0.984,0.00,0.00,10.60,0.00,-50.04,-49.77,6.59,-4.71,41.96,-110.00,-83.72,-14.16,1291,1363,1285,1353,1323,1553,1510,0,757
133163,128,64.47,53.38,22.55,-0.025,-0.143,1.052,0.00,0.00,12.20,0.00,-52.27,-53.38,6.53,-4.80,41.37,-110.00,-87.24,-15.02,1291,1363,1285,1353,1323,1561,1513,0,757
133175,128,65.79,31.36,23.35,-0.010,-0.116,1.058,0.00,0.00,14.20,0.00,-51.59,-31.36,6.46,-4.87,40.80,-110.00,-13.09,-17.58,1291,1363,1285,1353,1323,1571,1518,0,757
133187,0,55.26,-18.82,27.46,0.367,-0.238,0.629,0.00,0.00,14.20,0.00,-41.06,18.82,6.39,-4.90,40.16,-52.52,110.00,-28.49,1291,1363,1285,1353,1323,1571,1518,0,757
133199,128,110.12,-25.80,-10.55,-0.102,-1.080,0.969,0.00,0.00,15.80,0.00,-94.32,25.80,6.21,-4.89,40.11,-110.00,110.00,66.50,1291,1363,1285,1353,1323,1579,1516,0,757
133211,128,174.27,45.31,-76.75,-0.470,-1.560,1.034,0.00,0.00,15.80,0.00,-158.47,-45.31,5.85,-4.74,41.88,-110.00,-110.00,110.00,1291,1363,1285,1353,1323,1579,1516,0,757
133223,128,213.87,-204.15,-94.29,0.265,-1.059,0.078,0.00,0.00,29.60,0.00,-184.27,204.15,5.42,-4.22,44.62,-110.00,110.00,110.00,1434,1434,1434,1100,1324,1648,1513,0,734
133235,128,233.21,-217.93,-101.67,0.078,-0.852,0.446,0.00,0.00,29.40,0.00,-203.81,217.93,4.99,-3.70,47.62,-110.00,110.00,110.00,1434,1434,1434,1100,1323,1647,1514,0,734
133247,128,228.24,-102.17,-104.54,-0.430,-0.647,1.063,0.00,0.00,29.40,0.00,-198.84,102.17,4.56,-3.22,50.59,-110.00,-110.00,110.00,1434,1434,1434,1100,1323,1647,1514,0,734
133259,128,220.51,-223.44,-98.28,0.041,-0.551,0.495,0.00,0.00,32.40,0.00,-188.11,223.44,4.13,-2.61,53.55,-110.00,8.21,110.00,1434,1434,1434,1100,1322,1662,1507,0,734
133271,0,189.92,-226.10,-95.83,-0.362,-0.519,0.654,0.00,0.00,32.40,0.00,-157.52,226.10,3.74,-2.04,56.44,2.99,36.14,110.00,1434,1434,1434,1100,1322,1662,1507,0,734
133283,0,192.46,-155.47,-92.46,-0.296,-0.308,0.916,0.00,0.00,37.00,0.00,-155.46,155.47,3.33,-1.68,59.21,4.38,6.31,110.00,1434,1434,1434,1100,1324,1685,1509,0,734
133295,0,188.50,-115.33,-88.10,-0.458,-0.135,0.777,0.00,0.00,38.40,0.00,-150.10,115.33,2.91,-1.13,61.97,34.73,-110.00,110.00,1434,1434,1434,1100,1323,1692,1517,0,734
133307,0,201.09,-211.38,-88.57,0.128,-0.278,0.523,0.00,0.00,38.40,0.00,-162.69,211.38,2.47,-0.67,64.59,16.81,110.00,110.00,1434,1434,1434,1100,1323,1692,1517,0,734
133319,128,276.45,-113.66,-65.85,0.209,-0.483,1.197,0.00,0.00,41.80,0.00,-234.65,113.66,1.97,-0.31,66.62,-110.00,-110.00,110.00,1213,1500,1213,1213,1323,1709,1517,0,745
133331,128,305.08,-229.25,-45.96,0.702,-0.642,0.834,0.00,0.00,41.80,0.00,-263.28,229.25,1.32,0.17,68.11,-110.00,110.00,110.00,1213,1500,1213,1213,1323,1709,1517,0,745
133343,128,354.94,-4.62,-25.28,-0.666,-0.415,1.643,0.00,0.00,45.40,0.00,-309.54,4.62,0.59,0.39,68.99,-110.00,-110.00,110.00,1213,1500,1213,1213,1323,1727,1511,0,745
133355,128,363.41,-92.09,-13.54,-0.167,-0.702,1.292,0.00,0.00,45.60,0.00,-317.81,92.09,-0.14,0.56,69.58,-110.00,64.19,103.44,1213,1500,1213,1213,1323,1728,1509,0,745
133367,128,343.76,-101.49,-14.86,-0.284,-0.532,0.774,0.00,0.00,45.60,0.00,-298.16,101.49,-0.82,0.91,70.01,-110.00,-65.15,107.16,1213,1500,1213,1213,1323,1728,1509,0,745
133379,0,322.46,-205.89,-17.65,0.097,-0.289,0.833,0.00,0.00,45.60,0.00,-276.86,205.89,-1.52,1.23,70.50,-59.58,110.00,110.00,1213,1500,1213,1213,1323,1728,1501,0,745
133391,128,181.48,-13.07,-1.59,0.162,0.080,1.324,0.00,0.00,45.60,0.00,-135.88,13.07,-2.04,1.51,70.75,110.00,-110.00,74.74,1213,1500,1213,1213,1323,1728,1501,0,745
133403,128,21.27,50.16,42.54,1.103,-0.137,1.441,0.00,0.00,45.60,0.00,24.33,-50.16,-2.13,1.49,70.03,110.00,-110.00,-36.31,1213,1500,1213,1213,1323,1728,1501,0,745
133415,128,-90.35,101.89,76.05,1.240,-0.237,0.634,0.00,0.00,49.20,0.00,139.55,-101.89,-1.93,1.37,67.85,110.00,-110.00,-110.00,1213,1500,1213,1213,1323,1746,1519,0,745
133427,128,-111.75,121.33,79.93,0.526,-0.294,1.148,0.00,0.00,49.20,0.00,160.95,-121.33,-1.62,1.15,65.38,110.00,-110.00,-110.00,1347,1100,1347,1500,1323,1746,1519,0,737
133439,0,-87.93,13.50,86.32,0.571,-0.307,1.045,0.00,0.00,53.00,0.00,140.93,-13.50,-1.30,0.96,62.72,100.67,110.00,-110.00,1347,1100,1347,1500,1323,1765,1516,0,737
133451,0,-104.43,2.77,92.76,0.484,-0.190,0.731,0.00,0.00,53.00,0.00,157.43,-2.77,-0.92,0.92,60.01,99.83,110.00,-110.00,1347,1100,1347,1500,1323,1765,1516,0,737
133463,128,-127.13,32.01,96.85,-0.405,-0.447,1.168,0.00,0.00,53.60,0.00,180.73,-32.01,-0.54,0.86,57.09,110.00,-16.44,-110.00,1347,1100,1347,1500,1323,1768,1514,0,737
133475,0,-86.92,83.20,89.62,-0.591,-0.215,1.352,0.00,0.00,52.40,0.00,139.32,-83.20,-0.18,0.62,54.36,12.39,-44.62,-110.00,1347,1100,1347,1500,1323,1762,1498,0,737
133487,128,-106.14,12.08,83.94,-0.270,-0.056,0.931,0.00,0.00,52.40,0.00,158.54,-12.08,0.18,0.62,51.73,104.71,22.20,-110.00,1347,1100,1347,1500,1323,1762,1498,0,737
133499,128,-112.20,-131.79,86.83,0.527,-0.186,0.279,0.00,0.00,51.60,0.00,163.80,131.79,0.52,0.71,49.14,110.00,110.00,-110.00,1347,1100,1347,1500,1323,1758,1497,0,737
133511,0,-90.33,-31.69,86.47,-0.387,-0.157,0.866,0.00,0.00,51.60,0.00,141.93,31.69,0.85,0.78,46.54,69.76,32.98,-110.00,1347,1100,1347,1500,1323,1758,1497,0,737
133523,0,-20.35,-64.56,80.54,0.094,-0.058,0.911,0.00,0.00,50.40,0.00,70.75,64.56,1.06,0.83,44.11,-89.57,110.00,-110.00,1500,1321,1105,1321,1323,1752,1497,0,736
133535,0,16.86,6.92,77.71,-0.009,0.023,1.148,0.00,0.00,50.40,0.00,33.54,-6.92,1.16,0.90,41.78,-58.33,-110.00,-110.00,1500,1321,1105,1321,1324,1752,1494,0,736
133547,0,47.37,-3.56,77.88,0.115,-0.009,0.783,0.00,0.00,50.40,0.00,3.03,3.56,1.18,0.93,41.97,-44.21,-51.63,56.98,1500,1321,1105,1321,1324,1752,1494,0,736
133559,0,75.90,-59.39,74.82,0.276,-0.006,0.758,0.00,0.00,49.40,0.00,-26.50,59.39,1.14,1.05,41.35,-63.17,95.42,-110.00,1500,1321,1105,1321,1322,1747,1502,0,736
133571,128,113.70,-19.72,74.58,-0.090,-0.051,0.984,0.00,0.00,49.40,0.00,-64.30,19.72,1.04,1.18,39.11,-110.00,-110.00,-110.00,1500,1321,1105,1321,1322,1747,1502,0,736
133583,128,141.46,-85.08,70.35,-0.029,-0.049,0.805,0.00,0.00,47.60,0.00,-93.86,85.08,0.89,1.37,36.97,-110.00,93.42,-110.00,1500,1321,1105,1321,1324,1738,1501,0,736
133595,128,153.77,-108.70,72.27,0.028,-0.087,0.802,0.00,0.00,40.00,0.00,-113.77,108.70,0.68,1.59,34.81,-110.00,110.00,-110.00,1500,1321,1105,1321,1323,1700,1499,0,736
133607,128,195.11,-99.94,71.13,-0.042,-0.077,0.866,0.00,0.00,40.00,0.00,-155.11,99.94,0.39,1.94,32.67,-110.00,-85.31,-110.00,1500,1321,1105,1321,1323,1700,1499,0,736
133619,128,217.79,-143.23,71.31,0.141,-0.082,0.661,0.00,0.00,39.60,0.00,-178.19,143.23,0.06,2.35,30.56,-110.00,-3.61,-110.00,1500,1326,1100,1326,1323,1698,1499,0,736
133631,128,226.38,-156.59,69.04,0.317,-0.245,0.524,0.00,0.00,39.60,0.00,-186.78,156.59,-0.34,2.75,28.55,-110.00,38.90,-110.00,1500,1326,1100,1326,1323,1698,1499,0,736
133643,128,123.44,-56.40,91.62,0.702,-0.352,1.279,0.00,0.00,38.40,0.00,-85.04,56.40,-0.61,3.12,25.98,110.00,-110.00,-110.00,1500,1326,1100,1326,1323,1692,1502,0,736
133655,128,45.76,-79.83,140.40,0.988,-0.332,0.912,0.00,0.00,38.00,0.00,-7.76,79.83,-0.67,3.46,22.14,110.00,-110.00,-110.00,1500,1326,1100,1326,1323,1690,1503,0,736
133667,0,20.13,6.77,154.10,0.388,-0.214,1.196,0.00,0.00,38.00,0.00,17.87,-6.77,-0.63,3.46,17.68,59.90,-110.00,-110.00,1500,1326,1100,1326,1323,1690,1503,0,736
133679,0,7.70,-134.37,162.12,1.092,-0.363,0.446,0.00,0.00,31.20,0.00,23.50,134.37,-0.59,3.63,12.95,49.51,110.00,-110.00,1500,1326,1100,1326,1323,1656,1518,0,736
133691,0,29.12,-70.69,152.22,0.561,-0.451,0.667,0.00,0.00,31.20,0.00,2.08,70.69,-0.60,3.75,8.48,5.99,99.59,-110.00,1500,1326,1100,1326,1323,1656,1518,0,736
133703,0,61.68,-65.76,153.51,0.443,-0.267,0.661,0.00,0.00,18.20,0.00,-43.48,65.76,-0.68,3.90,4.03,-78.48,50.40,-110.00,1500,1326,1100,1326,1322,1591,1518,0,736
133715,128,86.43,-67.74,152.22,0.362,-0.363,0.830,0.00,0.00,15.40,0.00,-71.03,67.74,-0.80,4.12,-0.36,-110.00,-21.13,-110.00,1500,1326,1100,1326,1322,1577,1518,0,736
133727,128,149.91,39.97,156.53,0.784,-0.454,1.492,0.00,0.00,15.40,0.00,-134.51,-39.97,-1.05,4.23,-5.04,-110.00,-110.00,-110.00,1500,1195,1229,1229,1322,1577,1518,0,737
133739,128,207.16,57.18,154.69,0.992,-0.200,1.075,0.00,0.00,0.00,0.00,-207.16,-57.18,-1.43,4.34,-9.52,-110.00,-110.00,-110.00,1500,1195,1229,1229,1332,1499,1518,0,737
133751,128,212.50,-37.57,159.21,1.394,-0.250,0.657,0.00,0.00,0.00,0.00,-212.50,37.57,-1.90,4.42,-13.95,-110.00,51.43,-110.00,1500,1195,1229,1229,1332,1499,1518,0,737
133763,0,199.60,1.21,164.83,1.033,-0.171,1.009,0.00,0.00,0.00,0.00,-199.60,-1.21,-2.36,4.43,-18.63,-100.11,-34.11,-110.00,1500,1195,1229,1229,1322,1499,1518,0,737
133775,128,199.09,-21.26,171.11,0.922,-0.189,0.733,0.00,0.00,0.00,0.00,-199.09,21.26,-2.78,4.47,-23.63,-110.00,56.22,-110.00,1500,1195,1229,1229,1322,1503,1518,0,737
133787,128,190.95,-37.37,170.54,0.745,-0.155,0.691,0.00,0.00,0.00,0.00,-190.95,37.37,-3.20,4.55,-28.69,-110.00,55.62,-110.00,1500,1195,1229,1229,1322,1503,1518,0,737
133799,128,200.05,112.51,174.94,0.371,-0.093,1.181,0.00,0.00,0.00,0.00,-200.05,-112.51,-3.61,4.47,-33.90,-110.00,-110.00,-110.00,1500,1195,1229,1229,1322,1501,1518,0,737
133811,128,176.08,4.43,181.57,1.094,-0.158,0.396,0.00,0.00,0.00,0.00,-176.08,-4.43,-3.99,4.55,-39.28,-110.00,-101.68,-110.00,1500,1195,1229,1229,1322,1501,1518,0,737
133823,128,175.42,6.70,176.68,0.874,-0.113,0.446,0.00,0.00,0.00,0.00,-175.42,-6.70,-4.38,4.60,-44.60,-110.00,-110.00,-110.00,1500,1108,1316,1316,1322,1501,1518,0,736
133835,128,168.80,-10.86,171.48,0.699,-0.152,0.638,0.00,0.00,0.00,0.00,-168.80,10.86,-4.75,4.60,-49.83,-110.00,28.76,-110.00,1500,1108,1316,1316,1322,1501,1518,0,736
133847,0,154.88,-23.89,170.15,0.557,-0.116,0.479,0.00,0.00,0.00,0.00,-154.88,23.89,-5.10,4.57,-54.96,-86.63,110.00,-110.00,1500,1108,1316,1316,1322,1501,1518,0,736
133859,0,137.58,38.49,166.70,0.180,-0.168,0.958,0.00,0.00,0.00,6.00,-137.58,-32.49,-5.43,4.49,-60.02,-48.86,-45.59,-110.00,1500,1108,1316,1316,1310,1501,1530,0,736
133871,0,124.01,1.35,169.69,0.437,-0.202,0.784,0.00,0.00,0.00,6.00,-124.01,4.65,-5.74,4.45,-65.11,-28.52,92.08,-110.00,1500,1108,1316,1316,1310,1501,1530,0,736
133883,0,130.11,31.40,167.85,0.201,-0.034,0.979,0.00,0.00,0.00,0.00,-130.11,-31.40,-6.04,4.36,-70.11,-88.35,-3.71,-110.00,1500,1108,1316,1316,1322,1501,1518,0,736
