time_ms,flags,gyro_x,gyro_y,gyro_z,accel_x,accel_y,accel_z,roll,pitch,rate_sp_roll,rate_sp_pitch,rate_err_roll,rate_err_pitch,rate_i_roll,rate_i_pitch,rate_i_yaw,pid_roll,pid_pitch,pid_yaw,m1,m2,m3,m4,rc_thr,rc_roll,rc_pitch,battery_mv,loop_us
190847,0,0.03,-0.03,-0.01,0.040,-0.074,0.999,0.00,0.00,0.00,0.00,-0.03,0.03,-0.00,0.00,0.00,-0.08,-0.01,0.03,1000,1000,1000,1000,1024,1501,1518,0,731
190859,0,0.01,-0.07,0.01,0.040,-0.073,1.000,0.00,0.00,0.00,0.00,-0.01,0.07,-0.00,0.00,0.00,-0.07,0.18,-0.03,1000,1000,1000,1000,1024,1501,1518,0,731
190871,0,0.01,-0.04,-0.08,0.040,-0.073,0.999,0.00,0.00,0.00,0.00,-0.01,0.04,-0.00,0.00,0.00,0.02,-0.03,0.19,1000,1000,1000,1000,1024,1501,1518,0,731
190883,0,-0.03,-0.04,-0.05,0.040,-0.073,0.999,0.00,0.00,0.00,0.00,0.03,0.04,-0.00,0.00,0.00,0.07,-0.03,0.14,1000,1000,1000,1000,1024,1501,1518,0,731
190895,0,-0.00,-0.00,-0.02,0.040,-0.073,0.999,0.00,0.00,0.00,0.00,0.00,0.00,0.00,0.00,0.01,-0.01,-0.03,0.06,1000,1000,1000,1000,1024,1501,1518,0,731
190907,0,-0.01,0.01,-0.08,0.040,-0.074,0.999,0.00,0.00,0.00,0.00,0.01,-0.01,-0.00,0.00,0.01,0.03,-0.08,0.20,1000,1000,1000,1000,1024,1501,1518,0,731
190919,0,-0.01,-0.03,-0.07,0.040,-0.074,0.999,0.00,0.00,0.00,0.00,0.01,0.03,0.00,0.00,0.01,-0.05,0.03,0.18,1100,1100,1100,1100,1024,1501,1518,0,731
190931,0,0.01,0.07,0.00,0.040,-0.075,0.998,0.00,0.00,0.00,0.00,-0.01,-0.07,0.00,0.00,0.01,-0.09,-0.33,0.01,1100,1100,1100,1100,1024,1501,1518,0,731
190943,0,0.10,0.17,-0.02,0.040,-0.075,0.998,0.00,0.00,0.00,0.00,-0.10,-0.17,0.00,0.00,0.01,-0.47,-0.60,0.07,1100,1100,1100,1100,1025,1501,1518,0,731
190955,0,0.20,0.21,-0.05,0.040,-0.075,0.998,0.00,0.00,0.00,0.00,-0.20,-0.21,-0.00,0.00,0.01,-0.80,-0.85,0.13,1100,1100,1100,1100,1023,1500,1519,0,731
190967,0,0.19,0.27,0.02,0.039,-0.074,0.999,0.00,0.00,0.00,0.00,-0.19,-0.27,0.00,0.00,0.01,-0.93,-1.26,-0.04,1100,1100,1100,1100,1023,1500,1519,0,731
190979,0,0.23,0.23,-0.16,0.038,-0.074,0.999,0.00,0.00,0.00,0.00,-0.23,-0.23,0.00,0.00,0.02,-1.14,-1.07,0.42,1100,1100,1100,1100,1025,1502,1517,0,731
190991,0,0.09,0.09,0.05,0.038,-0.073,1.000,0.00,0.00,0.00,0.00,-0.09,-0.09,0.00,0.00,0.02,-0.48,-0.51,-0.11,1100,1100,1100,1100,1025,1502,1517,0,731
191003,0,0.03,-0.08,-0.04,0.038,-0.073,0.999,0.00,0.00,0.00,0.00,-0.03,0.08,0.00,0.00,0.02,-0.18,0.18,0.11,1100,1100,1100,1100,1024,1500,1519,0,731
191015,0,-0.02,-0.10,-0.09,0.038,-0.073,1.000,0.00,0.00,0.00,0.00,0.02,0.10,0.00,0.00,0.02,0.21,0.33,0.25,1100,1100,1100,1100,1023,1500,1519,0,731
191027,0,-0.07,-0.11,0.05,0.038,-0.073,0.999,0.00,0.00,0.00,0.00,0.07,0.11,0.00,0.00,0.02,0.49,0.55,-0.10,1100,1100,1100,1100,1023,1500,1519,0,732
191039,0,-0.12,-0.40,-0.17,0.040,-0.071,0.998,0.00,0.00,0.00,0.00,0.12,0.40,0.00,0.00,0.02,0.78,1.67,0.45,1100,1100,1100,1100,1024,1501,1518,0,732
191051,0,-0.26,-0.37,-0.09,0.039,-0.072,1.000,0.00,0.00,0.00,0.00,0.26,0.37,0.00,0.00,0.03,1.22,1.66,0.25,1100,1100,1100,1100,1024,1501,1518,0,732
191063,0,-0.37,-0.76,0.41,0.040,-0.073,0.999,0.00,0.00,0.00,0.00,0.37,0.76,0.00,0.00,0.02,1.01,2.57,-1.00,1100,1100,1100,1100,1024,1501,1518,0,732
191075,0,-0.30,-0.83,-0.56,0.042,-0.078,0.996,0.00,0.00,0.00,0.00,0.30,0.83,0.00,0.00,0.02,0.93,1.73,1.41,1100,1100,1100,1100,1025,1501,1517,0,732
191087,0,-0.09,0.43,0.16,0.040,-0.074,0.994,0.00,0.00,0.00,0.00,0.09,-0.43,0.00,0.00,0.03,0.70,-2.91,-0.36,1100,1100,1100,1100,1025,1501,1517,0,732
191099,0,0.20,0.44,0.27,0.041,-0.070,0.993,0.00,0.00,0.00,0.00,-0.20,-0.44,0.00,0.00,0.02,-0.37,-2.36,-0.64,1100,1100,1100,1100,1024,1501,1518,0,732
191111,0,0.08,0.46,-0.30,0.035,-0.069,1.002,0.00,0.00,0.00,0.00,-0.08,-0.46,0.00,0.01,0.03,-0.11,-3.18,0.79,1100,1100,1100,1100,1024,1501,1518,0,732
191123,0,-0.08,0.66,-0.04,0.018,-0.073,1.010,0.00,0.00,0.00,0.00,0.08,-0.66,0.00,0.00,0.04,-0.48,-0.83,0.13,1100,1100,1100,1100,1024,1501,1518,0,732
191135,0,-0.01,-0.16,-0.27,0.017,-0.074,1.014,0.00,0.00,0.00,0.00,0.01,0.16,0.00,0.00,0.04,0.08,2.50,0.71,1100,1100,1100,1100,1024,1501,1518,0,732
191147,0,-0.15,-0.42,-0.15,0.035,-0.069,0.998,0.00,0.00,0.00,0.00,0.15,0.42,0.00,0.00,0.05,1.50,1.55,0.43,1100,1100,1100,1100,1024,1501,1518,0,732
191159,0,-0.01,-0.22,-0.00,0.032,-0.069,1.002,0.00,0.00,0.00,0.00,0.01,0.22,0.00,0.00,0.05,0.11,1.86,0.06,1100,1100,1100,1100,1024,1501,1518,0,732
191171,0,0.02,-0.53,-0.29,0.042,-0.075,1.001,0.00,0.00,0.00,0.00,-0.02,0.53,0.00,0.00,0.05,-0.69,2.45,0.77,1100,1100,1100,1100,1024,1501,1518,0,732
191183,0,-0.02,0.12,0.06,0.046,-0.076,0.995,0.00,0.00,0.00,0.00,0.02,-0.12,0.00,0.00,0.06,-0.96,0.20,-0.10,1100,1100,1100,1100,1024,1501,1518,0,732
191195,0,-0.26,-0.99,-0.13,0.058,-0.075,0.992,0.00,0.00,0.00,0.00,0.26,0.99,0.00,0.00,0.06,0.52,3.88,0.37,1100,1100,1100,1100,1024,1501,1518,0,732
191207,0,-0.34,0.37,-0.27,0.058,-0.083,0.987,0.00,0.00,0.00,0.00,0.34,-0.37,0.00,0.00,0.06,1.20,-4.33,0.73,1100,1100,1100,1100,1024,1501,1518,0,732
191219,0,-0.37,0.30,0.23,0.033,-0.084,1.005,0.00,0.00,0.00,0.00,0.37,-0.30,0.00,0.00,0.06,0.93,1.24,-0.51,1100,1100,1100,1100,1024,1501,1518,0,732
191231,0,0.38,-0.15,-0.42,0.037,-0.086,1.003,0.00,0.00,0.00,0.00,-0.38,0.15,0.00,0.00,0.07,-0.87,-0.94,1.12,1100,1100,1100,1100,1024,1501,1518,0,732
191243,0,0.48,-1.29,0.04,0.027,-0.077,1.010,0.00,0.00,0.00,0.00,-0.48,1.29,0.00,0.01,0.07,-0.05,3.92,-0.02,1100,1100,1100,1100,1024,1501,1518,0,732
191255,0,1.47,-1.18,0.22,0.020,-0.074,1.004,0.00,0.00,0.00,0.00,-1.47,1.18,-0.00,0.01,0.07,-3.89,2.92,-0.47,1100,1100,1100,1100,1024,1501,1518,0,732
191267,0,1.08,-0.67,-0.42,0.032,-0.064,1.001,0.00,0.00,0.00,0.00,-1.08,0.67,-0.00,0.01,0.08,-1.56,0.03,1.14,1100,1100,1100,1100,1024,1501,1518,0,732
191279,0,0.26,-0.15,-0.46,0.032,-0.068,1.003,0.00,0.00,0.00,0.00,-0.26,0.15,-0.00,0.01,0.09,-0.77,0.18,1.24,1100,1100,1100,1100,1024,1501,1518,0,732
191291,0,-0.37,-1.03,0.14,0.040,-0.073,0.990,0.00,0.00,0.00,0.00,0.37,1.03,-0.00,0.01,0.09,-0.35,0.74,-0.27,1100,1100,1100,1100,1024,1501,1518,0,732
191303,0,-1.08,-0.92,0.39,0.047,-0.063,0.987,0.00,0.00,0.00,0.00,1.08,0.92,-0.00,0.01,0.08,2.74,0.57,-0.89,1100,1100,1100,1100,1024,1501,1518,0,732
191315,0,-0.98,-0.60,-1.09,0.036,-0.079,1.002,0.00,0.00,0.00,0.00,0.98,0.60,0.00,0.01,0.10,1.16,0.75,2.82,1100,1100,1100,1100,1024,1501,1518,0,732
191327,0,0.73,-0.60,-0.22,0.038,-0.081,0.981,0.00,0.00,0.00,0.00,-0.73,0.60,0.00,0.02,0.12,-5.75,-1.44,0.67,1100,1100,1100,1100,1024,1501,1518,0,729
191339,0,-0.29,0.21,0.02,0.017,-0.061,1.006,0.00,0.00,0.00,0.00,0.29,-0.21,0.00,0.02,0.11,0.39,-1.86,0.05,1100,1100,1100,1100,1024,1502,1517,0,729
191351,0,0.15,1.67,-1.35,0.003,-0.083,1.021,0.00,0.00,0.00,0.00,-0.15,-1.67,0.00,0.01,0.15,-0.27,-0.36,3.54,1100,1100,1100,1100,1024,1502,1517,0,729
191363,0,0.61,-1.61,0.38,0.046,-0.082,0.976,0.00,0.00,0.00,0.00,-0.61,1.61,0.00,0.01,0.15,-0.31,5.31,-0.80,1100,1100,1100,1100,1023,1501,1519,0,729
191375,0,0.22,1.52,-1.32,0.022,-0.073,1.034,0.00,0.00,0.00,0.00,-0.22,-1.52,0.00,0.01,0.17,0.17,-3.90,3.48,1100,1100,1100,1100,1023,1501,1519,0,729
191387,0,0.33,-1.76,0.39,0.042,-0.086,0.979,0.00,0.00,0.00,0.00,-0.33,1.76,-0.00,0.01,0.19,0.93,3.93,-0.79,1100,1100,1100,1100,1023,1501,1519,0,729
191399,0,-0.36,-1.86,-1.03,0.050,-0.079,1.009,0.00,0.00,0.00,0.00,0.36,1.86,-0.00,0.02,0.19,1.13,3.08,2.76,1100,1100,1100,1100,1024,1501,1518,0,729
191411,0,-0.28,-0.47,0.20,0.035,-0.076,0.964,0.00,0.00,0.00,0.00,0.28,0.47,-0.00,0.02,0.21,1.21,-0.23,-0.29,1100,1100,1100,1100,1024,1501,1518,0,729
191423,0,-0.81,-0.92,-0.65,0.044,-0.071,1.032,0.00,0.00,0.00,0.00,0.81,0.92,0.00,0.02,0.21,1.62,2.42,1.83,1100,1100,1100,1100,1024,1501,1518,0,730
191435,0,0.35,-0.21,0.15,0.034,-0.078,0.966,0.00,0.00,0.00,0.00,-0.35,0.21,0.00,0.02,0.23,-3.15,1.22,-0.14,1100,1100,1100,1100,1024,1501,1518,0,730
191447,0,-1.07,0.93,-1.08,0.025,-0.072,1.050,0.00,0.00,0.00,0.00,1.07,-0.93,0.00,0.01,0.23,1.68,2.22,2.93,1100,1100,1100,1100,1024,1501,1518,0,730
191459,0,0.83,0.37,0.21,-0.000,-0.083,0.985,0.00,0.00,0.00,0.00,-0.83,-0.37,0.00,0.01,0.26,-4.83,2.93,-0.28,1100,1100,1100,1100,1024,1501,1518,0,730
191471,0,-0.18,3.86,-1.15,-0.043,-0.075,1.100,0.00,0.00,0.00,0.00,0.18,-3.86,0.00,0.00,0.26,-0.44,-4.66,3.14,1100,1100,1100,1100,1024,1501,1518,0,730
191483,0,2.02,-1.10,0.81,-0.030,-0.080,1.001,0.00,0.00,6.40,0.00,4.38,1.10,0.02,0.00,0.27,-5.00,12.88,-1.76,1100,1100,1100,1100,1024,1532,1486,0,730
191495,0,0.42,-2.34,-1.15,-0.003,-0.080,1.060,0.00,0.00,0.00,0.00,-0.42,2.34,0.03,0.01,0.28,-1.43,6.17,3.15,1100,1100,1100,1100,1025,1501,1518,0,730
191507,0,2.80,-1.27,1.57,0.038,-0.084,0.962,0.00,0.00,0.00,0.00,-2.80,1.27,0.02,0.01,0.27,-8.28,-0.46,-3.65,1100,1100,1100,1100,1025,1501,1518,0,730
191519,0,1.68,-0.70,-0.90,0.062,-0.069,1.021,0.00,0.00,0.00,0.00,-1.68,0.70,0.02,0.01,0.29,-6.88,-1.85,2.52,1100,1100,1100,1100,1025,1501,1518,0,732
191531,0,2.35,-0.26,1.60,0.062,-0.055,0.958,0.00,0.00,0.00,0.00,-2.35,0.26,0.02,0.02,0.26,-7.09,-5.26,-3.74,1100,1100,1100,1100,1025,1501,1518,0,732
191543,0,1.21,3.81,-0.44,0.014,-0.061,1.053,0.00,0.00,0.00,0.00,-1.21,-3.81,0.02,0.01,0.28,-5.56,-12.86,1.39,1100,1100,1100,1100,1025,1501,1518,0,732
191555,0,-1.79,1.48,0.40,0.023,-0.046,1.000,0.00,0.00,0.00,0.00,1.79,-1.48,0.02,0.01,0.25,9.40,2.07,-0.75,1100,1100,1100,1100,1025,1501,1518,0,732
191567,0,-0.59,-5.14,0.09,0.068,-0.074,0.988,0.00,0.00,0.00,0.00,0.59,5.14,0.03,0.02,0.26,1.67,14.37,0.03,1100,1100,1100,1100,1025,1501,1518,0,732
191579,0,-1.39,-3.32,0.03,0.046,-0.063,0.982,0.00,0.00,0.00,0.00,1.39,3.32,0.02,0.02,0.23,6.85,2.52,0.16,1100,1100,1100,1100,1025,1501,1518,0,732
191591,0,0.97,-2.13,0.21,0.040,-0.083,1.010,0.00,0.00,0.00,0.00,-0.97,2.13,0.02,0.02,0.24,-2.71,8.90,-0.29,1100,1100,1100,1100,1025,1501,1518,0,732
191603,0,-2.63,-3.00,-1.07,0.031,-0.082,1.005,0.00,0.00,0.00,0.00,2.63,3.00,0.02,0.02,0.23,11.80,13.79,2.90,1100,1100,1100,1100,1025,1501,1518,0,732
191615,0,1.69,-0.75,1.10,0.042,-0.073,1.015,0.00,0.00,0.00,0.00,-1.69,0.75,0.02,0.02,0.22,-3.07,5.01,-2.54,1100,1100,1100,1100,1025,1501,1518,0,732
191627,0,1.62,-3.86,-0.76,0.098,-0.094,0.972,0.00,0.00,0.00,0.00,-1.62,3.86,0.02,0.02,0.23,-6.35,11.44,2.14,1100,1100,1100,1100,1025,1501,1518,0,731
191639,0,0.88,-4.49,1.20,0.121,-0.101,0.915,0.00,0.00,0.00,0.00,-0.88,4.49,0.02,0.04,0.21,0.50,-0.67,-2.78,1100,1100,1100,1100,1024,1501,1518,0,731
191651,0,0.87,-2.85,-0.02,0.093,-0.090,0.940,0.00,0.00,0.00,0.00,-0.87,2.85,0.02,0.05,0.23,-3.21,-8.86,0.28,1100,1100,1100,1100,1024,1501,1518,0,731
191663,0,1.20,2.95,-0.77,-0.001,-0.063,1.022,0.00,0.00,0.00,0.00,-1.20,-2.95,0.01,0.05,0.23,-3.93,-19.16,2.14,1100,1100,1100,1100,1025,1502,1517,0,731
191675,0,2.93,5.05,0.44,-0.011,-0.045,1.032,0.00,0.00,0.00,0.00,-2.93,-5.05,0.01,0.04,0.24,-10.45,-12.93,-0.85,1100,1100,1100,1100,1025,1506,1513,0,731
191687,0,1.02,5.26,-1.32,-0.054,-0.041,1.073,0.00,0.00,0.00,0.00,-1.02,-5.26,0.01,0.03,0.26,-0.45,-5.89,3.56,1100,1100,1100,1100,1025,1506,1513,0,731
191699,0,-2.48,-3.60,-0.20,0.010,-0.062,1.023,0.00,0.00,0.00,0.00,2.48,3.60,0.01,0.03,0.27,13.51,26.43,0.77,1100,1100,1100,1100,1025,1501,1519,0,731
191711,0,-2.88,-0.61,-0.99,0.019,-0.080,1.031,0.00,0.00,0.00,0.00,2.88,0.61,0.01,0.03,0.29,15.13,11.80,2.77,1100,1100,1100,1100,1025,1501,1519,0,731
191723,0,1.05,2.14,-0.12,-0.023,-0.082,1.076,0.00,0.00,0.00,0.00,-1.05,-2.14,0.01,0.02,0.29,-5.62,-7.06,0.58,1100,1100,1100,1100,1025,1502,1517,0,732
191735,0,0.78,-0.47,0.14,0.021,-0.091,1.017,0.00,0.00,0.00,0.00,-0.78,0.47,0.01,0.02,0.30,-3.00,6.86,-0.05,1100,1100,1100,1100,1024,1501,1518,0,732
191747,0,3.97,10.23,-0.81,-0.013,-0.097,1.059,0.00,0.00,0.00,0.00,-3.97,-10.23,0.00,0.00,0.31,-13.03,-26.97,2.34,1100,1100,1100,1100,1024,1501,1518,0,732
191759,0,-0.67,1.77,0.66,0.030,-0.065,1.022,0.00,0.00,0.00,0.00,0.67,-1.77,0.01,0.00,0.31,2.16,2.67,-1.33,1100,1100,1100,1100,1023,1501,1518,0,732
191771,0,1.29,0.63,-0.19,0.031,-0.061,1.035,0.00,0.00,0.00,0.00,-1.29,-0.63,0.00,-0.00,0.32,-1.71,6.25,0.78,1100,1100,1100,1100,1023,1501,1518,0,732
191783,0,1.25,1.79,-0.15,0.030,-0.062,1.060,0.00,0.00,0.00,0.00,-1.25,-1.79,0.01,-0.00,0.31,-6.80,-8.95,0.70,1100,1100,1100,1100,1024,1501,1518,0,732
191795,0,-2.43,-4.05,0.53,0.095,-0.073,0.957,0.00,0.00,0.00,0.00,2.43,4.05,0.00,0.00,0.31,13.44,16.99,-1.02,1100,1100,1100,1100,1024,1502,1517,0,732
191807,0,0.37,-2.22,-1.01,0.088,-0.110,0.982,0.00,0.00,0.00,0.00,-0.37,2.22,0.00,0.00,0.32,-1.42,10.12,2.84,1100,1100,1100,1100,1024,1502,1517,0,732
191819,0,-3.47,-5.10,0.02,0.114,-0.075,0.962,0.00,0.00,0.00,0.00,3.47,5.10,0.01,0.01,0.31,12.86,9.16,0.26,1100,1100,1100,1100,1024,1502,1517,0,732
191831,0,3.05,1.55,-0.08,0.112,-0.109,0.951,0.00,0.00,0.00,0.00,-3.05,-1.55,0.00,0.01,0.32,-9.12,-7.03,0.53,1100,1100,1100,1100,1024,1502,1517,0,732
191843,0,0.93,4.28,0.26,0.085,-0.081,1.002,0.00,0.00,0.00,0.00,-0.93,-4.28,0.00,0.01,0.31,-6.66,-22.44,-0.34,1100,1100,1100,1100,1024,1498,1517,0,732
191855,0,1.65,-1.11,1.20,0.077,-0.051,0.956,0.00,0.00,0.00,0.00,-1.65,1.11,-0.00,0.01,0.31,-1.51,5.58,-2.69,1100,1100,1100,1100,1024,1498,1517,0,732
191867,0,3.96,3.24,-0.80,0.056,-0.097,1.014,0.00,0.00,0.00,0.00,-3.96,-3.24,-0.00,0.00,0.32,-15.55,-7.25,2.31,1100,1100,1100,1100,1024,1498,1517,0,732
191879,0,-0.50,4.33,-0.79,0.036,-0.083,1.033,0.00,0.00,0.00,0.00,0.50,-4.33,-0.01,-0.00,0.32,10.09,-6.31,2.28,1100,1100,1100,1100,1025,1498,1517,0,732
191891,0,1.49,-1.55,-0.24,0.072,-0.122,0.962,0.00,0.00,0.00,0.00,-1.49,1.55,-0.01,-0.01,0.33,5.18,16.48,0.93,1100,1100,1100,1100,1025,1498,1517,0,732
191903,0,-1.44,-4.29,-0.38,0.043,-0.098,1.017,0.00,0.00,0.00,0.00,1.44,4.29,-0.01,-0.01,0.33,6.54,20.68,1.29,1100,1100,1100,1100,1024,1498,1517,0,732
191915,0,1.80,-1.19,0.41,0.041,-0.052,1.011,0.00,0.00,0.00,0.00,-1.80,1.19,-0.02,-0.00,0.33,-2.35,-6.66,-0.69,1100,1100,1100,1100,1024,1498,1517,0,732
191927,0,3.95,-0.30,-0.23,0.069,-0.119,1.014,0.00,0.00,0.00,0.00,-3.95,0.30,-0.02,0.00,0.34,-16.72,-10.47,0.91,1100,1100,1100,1100,1024,1498,1517,0,732
191939,0,-1.56,1.09,0.14,0.060,-0.099,1.001,0.00,0.00,0.00,0.00,1.56,-1.09,-0.02,0.01,0.34,8.95,-12.95,-0.02,1100,1100,1100,1100,1024,1501,1518,0,732
191951,0,1.86,-5.78,0.90,0.078,-0.100,0.914,0.00,0.00,0.00,0.00,-1.86,5.78,-0.02,0.02,0.34,-4.00,12.67,-1.91,1100,1100,1100,1100,1024,1501,1518,0,732
191963,0,-0.25,-6.19,-0.93,0.099,-0.116,0.969,0.00,0.00,0.00,0.00,0.25,6.19,-0.02,0.02,0.34,2.50,21.42,2.67,1100,1100,1100,1100,1024,1500,1518,0,732
191975,0,0.11,-0.72,-0.15,0.079,-0.101,0.963,0.00,0.00,0.00,0.00,-0.11,0.72,-0.02,0.04,0.33,3.66,-15.70,0.70,1100,1100,1100,1100,1024,1501,1518,0,732
191987,0,0.11,-4.87,0.12,0.184,-0.126,0.897,0.00,0.00,0.00,0.00,-0.11,4.87,-0.02,0.04,0.34,1.82,8.32,0.04,1100,1100,1100,1100,1024,1501,1518,0,732
191999,0,0.16,-2.78,0.10,0.152,-0.087,0.926,0.00,0.00,0.00,0.00,-0.16,2.78,-0.03,0.06,0.33,2.23,-6.61,0.07,1100,1100,1100,1100,1024,1501,1518,0,732
192011,0,3.40,-11.04,0.74,0.213,-0.075,0.841,0.00,0.00,0.00,0.00,-3.40,11.04,-0.03,0.07,0.32,-9.86,23.04,-1.52,1100,1100,1100,1100,1024,1501,1518,0,732
192023,0,3.07,-0.89,-0.47,0.137,-0.090,0.947,0.00,0.00,0.00,0.00,-3.07,0.89,-0.03,0.08,0.33,-8.52,-13.03,1.51,1100,1100,1100,1100,1024,1501,1518,0,732
192035,0,-0.19,-1.64,0.05,0.107,-0.089,0.881,0.00,0.00,0.00,0.00,0.19,1.64,-0.04,0.09,0.33,6.07,-15.98,0.20,1100,1100,1100,1100,1024,1502,1517,0,732
192047,0,0.91,-5.52,-0.21,0.109,-0.079,0.915,0.00,0.00,0.00,0.00,-0.91,5.52,-0.04,0.10,0.34,4.82,16.20,0.87,1100,1100,1100,1100,1024,1502,1517,0,732
192059,0,2.02,2.12,-1.99,-0.018,-0.066,0.992,0.00,0.00,0.00,0.00,-2.02,-2.12,-0.04,0.10,0.36,-3.10,-10.61,5.34,1100,1100,1100,1100,1023,1500,1518,0,732
192071,0,1.01,0.78,-0.42,0.021,-0.041,1.014,0.00,0.00,0.00,0.00,-1.01,-0.78,-0.05,0.10,0.38,3.01,-0.85,1.43,1100,1100,1100,1100,1023,1500,1518,0,732
192083,0,4.15,0.72,-1.36,0.027,-0.080,1.025,0.00,0.00,0.00,0.00,-4.15,-0.72,-0.05,0.09,0.43,-9.91,1.97,3.82,1100,1100,1100,1100,1025,1500,1517,0,732
192095,0,-0.20,-2.42,-0.37,0.037,-0.078,0.962,0.00,0.00,0.00,0.00,0.20,2.42,-0.06,0.10,0.44,4.90,2.49,1.38,1100,1100,1100,1100,1024,1499,1519,0,732
192107,0,2.11,-5.16,-0.76,0.082,-0.058,0.944,0.00,0.00,0.00,0.00,-2.11,5.16,-0.06,0.11,0.49,0.23,7.19,2.38,1100,1100,1100,1100,1024,1499,1519,0,732
192119,0,3.83,-0.43,-2.33,0.081,-0.061,0.903,0.00,0.00,0.00,0.00,-3.83,0.43,-0.07,0.12,0.52,-11.15,-11.10,6.35,1100,1100,1100,1100,1024,1500,1518,0,731
192131,0,-1.24,-3.59,-1.24,0.098,-0.015,0.936,0.00,0.00,0.00,0.00,1.24,3.59,-0.07,0.13,0.57,11.78,0.67,3.68,1100,1100,1100,1100,1024,1500,1518,0,731
192143,0,2.81,-6.23,-2.50,0.116,-0.068,0.908,0.00,0.00,0.00,0.00,-2.81,6.23,-0.07,0.13,0.64,-4.06,16.60,6.88,1100,1100,1100,1100,1024,1500,1518,0,731
192155,0,-0.97,-2.69,-1.84,0.119,-0.068,0.927,0.00,0.00,0.00,0.00,0.97,2.69,-0.07,0.15,0.69,6.07,-4.55,5.28,1100,1100,1100,1100,1024,1500,1518,0,731
192167,0,2.29,-4.07,-2.79,0.142,-0.077,0.932,0.00,0.00,0.00,0.00,-2.29,4.07,-0.08,0.15,0.78,0.16,1.27,7.74,1100,1100,1100,1100,1024,1500,1518,0,731
192179,0,2.99,-1.68,-3.22,0.135,-0.121,0.876,0.00,0.00,0.00,0.00,-2.99,1.68,-0.08,0.16,0.86,-8.31,-0.02,8.90,1100,1100,1100,1100,1024,1499,1518,0,731
192191,0,0.10,-0.61,-2.26,0.084,-0.066,0.953,0.00,0.00,0.00,0.00,-0.10,0.61,-0.09,0.16,0.94,8.50,-2.69,6.58,1100,1100,1100,1100,1024,1499,1518,0,731
192203,0,6.65,0.92,-2.86,0.039,-0.089,0.961,0.00,0.00,0.00,0.00,-6.65,-0.92,-0.10,0.16,1.02,-18.06,-7.18,8.17,1100,1100,1100,1100,1024,1499,1518,0,731
192215,0,0.07,2.02,-2.50,-0.017,-0.087,1.037,0.00,0.00,0.00,0.00,-0.07,-2.02,-0.10,0.16,1.10,5.62,-9.19,7.36,1100,1100,1100,1100,1024,1499,1518,0,731
192227,0,1.35,0.79,-2.82,0.018,-0.048,1.033,0.00,0.00,0.00,0.00,-1.35,-0.79,-0.11,0.16,1.19,8.30,-2.50,8.24,1100,1100,1100,1100,1024,1499,1518,0,732
192239,0,1.95,-4.48,-2.29,0.035,-0.067,0.957,0.00,0.00,0.00,0.00,-1.95,4.48,-0.11,0.17,1.26,-3.42,13.17,6.98,1100,1100,1100,1100,1024,1499,1518,0,732
192251,0,0.71,-5.55,-3.22,0.071,-0.035,0.977,0.00,0.00,0.00,0.00,-0.71,5.55,-0.12,0.18,1.35,5.62,12.05,9.41,1100,1100,1100,1100,1024,1499,1518,0,732
192263,0,6.61,-3.54,-2.40,0.086,-0.067,0.921,0.00,0.00,0.00,0.00,-6.61,3.54,-0.13,0.18,1.42,-16.87,3.68,7.42,1100,1100,1100,1100,1024,1499,1518,0,732
192275,0,1.07,0.21,-1.84,0.113,-0.062,0.947,0.00,0.00,0.00,0.00,-1.07,-0.21,-0.13,0.19,1.49,0.74,-15.06,6.10,1100,1100,1100,1100,1024,1499,1518,0,732
192287,0,-1.31,-4.98,-1.07,0.204,-0.025,0.875,0.00,0.00,0.00,0.00,1.31,4.98,-0.13,0.20,1.53,15.44,5.78,4.21,1100,1100,1100,1100,1024,1499,1518,0,732
192299,0,3.24,-4.52,-0.35,0.228,-0.060,0.858,0.00,0.00,0.00,0.00,-3.24,4.52,-0.14,0.21,1.57,-9.57,5.36,2.46,1100,1100,1100,1100,1031,1499,1518,0,732
192311,0,-0.56,-3.19,-1.98,0.225,-0.036,0.913,0.00,0.00,0.00,0.00,0.56,3.19,-0.14,0.23,1.60,2.76,-9.57,6.55,1100,1100,1100,1100,1031,1499,1518,0,732
192323,0,0.87,-10.38,0.72,0.317,-0.075,0.792,0.00,0.00,0.00,0.00,-0.87,10.38,-0.14,0.24,1.59,0.76,29.29,-0.20,1100,1100,1100,1100,1024,1500,1518,0,732
192335,0,0.44,-0.25,-0.66,0.254,-0.079,0.876,0.00,0.00,0.00,0.00,-0.44,0.25,-0.14,0.25,1.61,-3.53,-14.83,3.27,1100,1100,1100,1100,1024,1500,1518,0,732
192347,0,-2.23,-1.34,-0.76,0.204,-0.046,0.874,0.00,0.00,0.00,0.00,2.23,1.34,-0.14,0.25,1.61,11.21,-2.92,3.52,1100,1100,1100,1100,1024,1500,1518,0,732
192359,0,2.33,5.31,0.42,0.150,-0.075,0.928,0.00,0.00,0.00,0.00,-2.33,-5.31,-0.14,0.24,1.62,-8.04,-19.90,0.59,1100,1100,1100,1100,1024,1500,1518,0,732
192371,0,-1.52,1.00,-1.24,0.103,-0.056,0.961,0.00,0.00,0.00,0.00,1.52,-1.00,-0.14,0.24,1.63,5.42,7.40,4.74,1100,1100,1100,1100,1024,1500,1518,0,732
192383,0,2.39,4.24,1.37,0.038,-0.035,1.012,0.00,0.00,0.00,0.00,-2.39,-4.24,-0.15,0.23,1.62,-4.82,-3.53,-1.80,1100,1100,1100,1100,1024,1502,1517,0,732
192395,0,2.86,1.91,-0.41,0.020,-0.058,1.040,0.00,0.00,0.00,0.00,-2.86,-1.91,-0.15,0.22,1.65,-12.37,1.04,2.67,1100,1100,1100,1100,1025,1501,1517,0,732
192407,0,0.30,6.45,-0.60,-0.022,-0.053,1.065,0.00,0.00,0.00,0.00,-0.30,-6.45,-0.15,0.21,1.64,4.14,-9.22,3.15,1100,1100,1100,1100,1025,1501,1517,0,732
192419,0,2.16,3.22,0.62,0.015,-0.072,1.044,0.00,0.00,0.00,0.00,-2.16,-3.22,-0.15,0.21,1.64,-5.36,-8.83,0.10,1100,1100,1100,1100,1025,1501,1518,0,732
192431,0,-2.82,-3.08,-1.12,0.042,-0.079,1.002,0.00,0.00,0.00,0.00,2.82,3.08,-0.15,0.20,1.65,12.96,25.72,4.44,1100,1100,1100,1100,1025,1501,1518,0,732
192443,0,0.63,1.89,0.87,0.029,-0.055,1.034,0.00,0.00,0.00,0.00,-0.63,-1.89,-0.15,0.20,1.64,0.58,-0.40,-0.54,1100,1100,1100,1100,1023,1500,1519,0,732
192455,0,1.49,1.69,-0.30,0.059,-0.077,1.018,0.00,0.00,0.00,0.00,-1.49,-1.69,-0.15,0.20,1.65,-7.59,-3.73,2.40,1100,1100,1100,1100,1024,1500,1519,0,732
192467,0,0.78,4.01,-0.26,0.064,-0.065,1.023,0.00,0.00,0.00,0.00,-0.78,-4.01,-0.16,0.19,1.64,-1.15,-10.45,2.29,1100,1100,1100,1100,1024,1500,1519,0,732
192479,0,1.87,4.76,0.73,0.085,-0.047,1.015,0.00,0.00,0.00,0.00,-1.87,-4.76,-0.16,0.19,1.66,-6.07,-11.97,-0.17,1100,1100,1100,1100,1023,1501,1518,0,732
192491,0,1.07,0.40,-0.90,0.088,-0.033,0.977,0.00,0.00,0.00,0.00,-1.07,-0.40,-0.16,0.18,1.67,-2.64,9.42,3.92,1100,1100,1100,1100,1023,1501,1518,0,732
192503,0,0.99,-1.66,-0.07,0.124,-0.062,0.980,0.00,0.00,0.00,0.00,-0.99,1.66,-0.16,0.18,1.67,-0.59,12.92,1.85,1100,1100,1100,1100,1024,1500,1519,0,732
192515,0,2.08,-3.87,-0.30,0.136,-0.056,0.934,0.00,0.00,0.00,0.00,-2.08,3.87,-0.16,0.19,1.67,-3.61,1.38,2.42,1100,1100,1100,1100,1024,1501,1518,0,732
192527,0,2.30,2.93,-0.70,0.110,-0.069,0.959,0.00,0.00,0.00,0.00,-2.30,-2.93,-0.17,0.18,1.68,-0.79,-2.64,3.43,1100,1100,1100,1100,1024,1501,1518,0,732
192539,0,-0.86,3.66,0.48,0.085,-0.029,0.987,0.00,0.00,0.00,0.00,0.86,-3.66,-0.17,0.18,1.68,4.85,-7.21,0.47,1100,1100,1100,1100,1024,1501,1518,0,732
192551,0,0.93,4.32,-0.43,0.043,-0.028,1.004,0.00,0.00,0.00,0.00,-0.93,-4.32,-0.17,0.17,1.70,1.03,-5.62,2.77,1100,1100,1100,1100,1024,1501,1518,0,732
192563,0,2.25,3.60,-0.96,0.051,-0.049,1.057,0.00,0.00,0.00,0.00,-2.25,-3.60,-0.17,0.16,1.70,-11.57,-6.53,4.12,1100,1100,1100,1100,1024,1501,1518,0,732
192575,0,-2.25,3.35,0.06,0.073,-0.041,1.011,0.00,0.00,0.00,0.00,2.25,-3.35,-0.17,0.15,1.72,11.64,4.53,1.56,1100,1100,1100,1100,1024,1501,1518,0,732
192587,0,2.79,1.13,-0.67,0.048,-0.060,1.030,0.00,0.00,0.00,0.00,-2.79,-1.13,-0.17,0.15,1.74,-10.80,3.68,3.40,1100,1100,1100,1100,1024,1501,1518,0,732
192599,0,-3.22,0.56,-0.43,0.046,-0.049,1.013,0.00,0.00,0.00,0.00,3.22,-0.56,-0.17,0.14,1.74,10.12,9.12,2.83,1100,1100,1100,1100,1027,1501,1518,0,732
192611,0,2.31,6.61,-0.49,-0.018,-0.048,1.043,0.00,0.00,0.00,0.00,-2.31,-6.61,-0.17,0.13,1.76,-5.39,-18.35,2.98,1100,1100,1100,1100,1027,1501,1518,0,732
192623,0,0.60,-0.86,-0.88,0.005,-0.066,1.058,0.00,0.00,0.00,0.00,-0.60,0.86,-0.17,0.13,1.77,-5.86,9.87,3.96,1100,1100,1100,1100,1024,1501,1518,0,732
192635,0,-2.75,-2.40,1.04,0.037,-0.008,1.008,0.00,0.00,0.00,0.00,2.75,2.40,-0.17,0.13,1.77,16.55,13.22,-0.83,1100,1100,1100,1100,1024,1501,1518,0,732
192647,0,3.77,-2.58,-0.08,0.080,-0.030,0.999,0.00,0.00,0.00,0.00,-3.77,2.58,-0.18,0.14,1.78,-14.30,2.27,1.98,1100,1100,1100,1100,1024,1501,1518,0,732
192659,0,-1.88,-3.62,-0.39,0.120,-0.042,0.979,0.00,0.00,0.00,0.00,1.88,3.62,-0.17,0.14,1.77,6.14,4.06,2.74,1100,1100,1100,1100,1024,1501,1518,0,732
192671,0,2.85,-3.28,0.12,0.167,-0.065,0.895,0.00,0.00,0.00,0.00,-2.85,3.28,-0.18,0.15,1.77,-5.08,1.82,1.46,1100,1100,1100,1100,1024,1501,1518,0,732
192683,0,-0.04,-0.91,-0.44,0.158,-0.063,0.924,0.00,0.00,0.00,0.00,0.04,0.91,-0.18,0.16,1.77,-1.95,-5.23,2.86,1100,1100,1100,1100,1024,1501,1518,0,732
192695,0,-3.86,-3.01,0.49,0.146,-0.011,0.891,0.00,0.00,0.00,0.00,3.86,3.01,-0.18,0.16,1.76,19.53,11.14,0.53,1100,1100,1100,1100,1029,1501,1518,0,732
192707,0,3.90,2.14,0.09,0.157,-0.032,0.927,0.00,0.00,0.00,0.00,-3.90,-2.14,-0.18,0.15,1.77,-15.31,-6.69,1.54,1100,1100,1100,1100,1029,1501,1518,0,732
192719,0,-0.79,1.71,-0.79,0.113,-0.022,0.968,0.00,0.00,0.00,0.00,0.79,-1.71,-0.18,0.16,1.78,0.84,-9.50,3.76,1100,1100,1100,1100,1024,1501,1518,0,731
192731,0,1.34,0.88,0.63,0.170,-0.035,0.902,0.00,0.00,0.00,0.00,-1.34,-0.88,-0.18,0.15,1.78,-1.03,-0.32,0.20,1100,1100,1100,1100,1024,1501,1518,0,731
192743,0,0.68,-0.43,-0.48,0.108,-0.016,0.958,0.00,0.00,0.00,0.00,-0.68,0.43,-0.18,0.15,1.80,-5.01,3.63,3.00,1100,1100,1100,1100,1024,1501,1518,0,731
192755,0,-0.90,1.30,-0.74,0.053,-0.010,0.966,0.00,0.00,0.00,0.00,0.90,-1.30,-0.18,0.14,1.80,6.42,7.10,3.66,1100,1100,1100,1100,1024,1501,1518,0,731
192767,0,2.38,3.19,-0.37,0.025,-0.014,1.004,0.00,0.00,0.00,0.00,-2.38,-3.19,-0.18,0.15,1.81,-7.68,-16.74,2.75,1100,1100,1100,1100,1024,1501,1518,0,731
192779,0,-1.16,-2.94,-0.87,0.005,-0.043,1.012,0.00,0.00,0.00,0.00,1.16,2.94,-0.18,0.14,1.82,6.70,17.95,4.00,1100,1100,1100,1100,1024,1501,1518,0,731
192791,0,-0.16,6.85,1.12,-0.052,-0.022,1.039,0.00,0.00,0.00,0.00,0.16,-6.85,-0.19,0.13,1.81,4.24,-15.87,-0.98,1100,1100,1100,1100,1024,1501,1518,0,731
192803,0,1.32,0.17,-0.08,-0.038,-0.040,1.097,0.00,0.00,0.00,0.00,-1.32,-0.17,-0.19,0.13,1.84,-4.10,13.10,2.03,1100,1100,1100,1100,1025,1501,1518,0,731
192815,0,1.54,9.32,-1.39,-0.069,-0.036,1.112,0.00,0.00,0.00,0.00,-1.54,-9.32,-0.19,0.11,1.84,-5.08,-18.87,5.33,1100,1100,1100,1100,1023,1500,1519,0,731
192827,0,1.03,2.30,0.33,0.017,-0.016,1.047,0.00,0.00,0.00,0.00,-1.03,-2.30,-0.19,0.11,1.85,-2.27,-1.70,1.02,1100,1100,1100,1100,1023,1500,1519,0,731
192839,0,0.84,-1.10,-1.09,0.027,-0.051,1.035,0.00,0.00,0.00,0.00,-0.84,1.10,-0.19,0.10,1.87,-0.86,20.49,4.59,1100,1100,1100,1100,1025,1502,1517,0,731
192851,0,-2.66,-3.44,0.53,0.027,-0.029,0.993,0.00,0.00,0.00,0.00,2.66,3.44,-0.19,0.10,1.85,11.86,12.91,0.53,1100,1100,1100,1100,1025,1502,1517,0,731
192863,0,0.09,-0.36,0.17,0.055,-0.034,1.020,0.00,0.00,0.00,4.40,-0.09,4.76,-0.20,0.11,1.86,3.68,1.42,1.44,1100,1100,1100,1100,1020,1501,1522,0,731
192875,0,0.81,4.05,-0.77,0.032,-0.049,0.979,0.00,0.00,0.00,0.00,-0.81,-4.05,-0.19,0.12,1.86,-5.32,-19.28,3.78,1100,1100,1100,1100,1024,1501,1518,0,731
192887,0,0.10,-0.80,1.20,0.073,-0.000,0.959,0.00,0.00,0.00,0.00,-0.10,0.80,-0.20,0.12,1.85,2.75,0.09,-1.14,1100,1100,1100,1100,1024,1501,1518,0,731
192899,0,4.18,-4.17,-0.21,0.087,-0.039,0.943,0.00,0.00,0.00,0.00,-4.18,4.17,-0.20,0.13,1.85,-15.07,14.00,2.37,1100,1100,1100,1100,1023,1501,1518,0,731
192911,0,-0.90,-2.17,0.63,0.075,-0.042,0.934,0.00,0.00,0.00,0.00,0.90,2.17,-0.20,0.13,1.83,2.97,2.31,0.25,1100,1100,1100,1100,1023,1501,1518,0,731
192923,0,-0.63,-2.29,-0.39,0.108,-0.057,0.948,0.00,0.00,0.00,0.00,0.63,2.29,-0.20,0.14,1.85,8.60,1.00,2.82,1100,1100,1100,1100,1024,1494,1518,0,731
192935,0,0.79,1.60,-0.79,0.125,-0.095,0.892,0.00,0.00,0.00,0.00,-0.79,-1.60,-0.20,0.14,1.84,-3.64,-8.84,3.80,1100,1100,1100,1100,1024,1501,1518,0,731
192947,0,-3.07,0.99,1.02,0.139,-0.035,0.919,0.00,0.00,0.00,0.00,3.07,-0.99,-0.20,0.14,1.83,13.54,-4.04,-0.72,1100,1100,1100,1100,1024,1501,1518,0,731
192959,0,4.92,-0.03,-0.16,0.128,-0.063,0.932,0.00,0.00,0.00,0.00,-4.92,0.03,-0.21,0.13,1.84,-17.42,6.10,2.24,1100,1100,1100,1100,1024,1501,1518,0,731
192971,0,1.04,3.79,0.26,0.074,-0.067,1.013,0.00,0.00,0.00,0.00,-1.04,-3.79,-0.20,0.13,1.83,-6.91,-6.67,1.19,1100,1100,1100,1100,1024,1501,1518,0,731
192983,0,0.87,8.98,-0.35,0.057,-0.032,1.065,0.00,0.00,0.00,0.00,-0.87,-8.98,-0.21,0.11,1.85,2.72,-21.10,2.73,1100,1100,1100,1100,1024,1501,1518,0,731
192995,0,2.21,8.56,-0.48,0.026,-0.044,1.022,0.00,0.00,0.00,0.00,-2.21,-8.56,-0.21,0.09,1.86,-9.24,-9.75,3.05,1100,1100,1100,1100,1024,1501,1518,0,731
193007,0,-3.28,5.97,-0.94,0.021,-0.012,1.045,0.00,0.00,0.00,0.00,3.28,-5.97,-0.21,0.08,1.88,15.66,3.53,4.24,1100,1100,1100,1100,1024,1501,1518,0,731
193019,0,2.80,6.35,-1.23,-0.017,-0.033,1.048,0.00,0.00,0.00,0.00,-2.80,-6.35,-0.21,0.06,1.90,-6.91,-0.71,4.99,1100,1100,1100,1100,1024,1501,1518,0,732
193031,0,-0.71,3.95,-0.32,-0.063,-0.038,1.090,0.00,0.00,0.00,0.00,0.71,-3.95,-0.21,0.05,1.91,0.28,7.82,2.72,1100,1100,1100,1100,1024,1501,1518,0,732
193043,0,-0.48,1.51,0.29,-0.033,-0.004,1.078,0.00,0.00,0.00,0.00,0.48,-1.51,-0.21,0.04,1.92,6.88,14.53,1.19,1100,1100,1100,1100,1024,1501,1518,0,732
193055,0,4.63,4.52,0.48,-0.029,-0.040,1.086,0.00,0.00,0.00,0.00,-4.63,-4.52,-0.22,0.03,1.93,-18.57,-8.54,0.73,1100,1100,1100,1100,1024,1501,1518,0,732
193067,0,-1.94,2.76,-1.06,0.013,-0.023,1.091,0.00,0.00,0.00,0.00,1.94,-2.76,-0.21,0.03,1.94,7.48,-11.89,4.58,1100,1100,1100,1100,1024,1501,1518,0,732
193079,0,1.56,-4.02,-0.07,0.108,-0.048,0.943,0.00,0.00,0.00,0.00,-1.56,4.02,-0.22,0.03,1.94,-0.69,15.73,2.12,1100,1100,1100,1100,1024,1501,1518,0,732
193091,0,-0.47,-4.53,-0.41,0.102,-0.058,0.963,0.00,0.00,0.00,0.00,0.47,4.53,-0.22,0.04,1.96,-0.50,16.09,2.98,1100,1100,1100,1100,1024,1501,1518,0,732
193103,0,-3.37,-9.38,-0.51,0.088,0.001,0.931,0.00,0.00,0.00,0.00,3.37,9.38,-0.22,0.05,1.95,16.35,24.77,3.22,1100,1100,1100,1100,1037,1489,1514,0,732
193115,0,3.87,4.22,0.58,0.039,-0.038,1.030,0.00,0.00,0.00,0.00,-3.87,-4.22,-0.22,0.04,1.95,-15.10,-18.99,0.50,1100,1100,1100,1100,1025,1501,1518,0,732
193127,0,-2.41,7.80,-0.74,-0.000,-0.022,1.043,0.00,0.00,0.00,0.00,2.41,-7.80,-0.22,0.04,1.96,6.08,-32.94,3.80,1100,1100,1100,1100,1025,1501,1518,0,731
193139,0,2.62,-0.26,1.21,0.032,-0.017,0.984,0.00,0.00,0.00,0.00,-2.62,0.26,-0.22,0.04,1.95,-5.85,6.92,-1.07,1100,1100,1100,1100,1025,1501,1518,0,731
193151,0,2.09,-1.60,0.43,0.031,-0.040,0.981,0.00,0.00,0.00,0.00,-2.09,1.60,-0.22,0.04,1.97,-12.63,14.17,0.90,1100,1100,1100,1100,1025,1501,1518,0,731
193163,0,-2.84,-6.81,-0.42,0.048,-0.011,0.958,0.00,0.00,0.00,0.00,2.84,6.81,-0.22,0.05,1.95,11.53,21.65,3.00,1100,1100,1100,1100,1024,1500,1519,0,731
193175,0,3.94,-5.55,0.92,0.082,-0.043,0.960,0.00,0.00,0.00,0.00,-3.94,5.55,-0.22,0.06,1.94,-12.71,8.48,-0.37,1100,1100,1100,1100,1023,1500,1519,0,731
193187,0,-1.15,0.24,-0.74,0.086,-0.066,0.954,0.00,0.00,0.00,0.00,1.15,-0.24,-0.22,0.06,1.94,3.43,-10.79,3.79,1100,1100,1100,1100,1023,1500,1519,0,731
193199,0,-1.13,-0.51,1.15,0.113,-0.042,0.916,0.00,0.00,0.00,0.00,1.13,0.51,-0.22,0.06,1.92,10.70,-4.47,-0.96,1100,1100,1100,1100,1024,1501,1517,0,731
193211,0,2.57,1.47,0.36,0.093,-0.061,0.946,0.00,0.00,0.00,0.00,-2.57,-1.47,-0.22,0.06,1.93,-11.69,-4.40,1.02,1100,1100,1100,1100,1024,1501,1517,0,731
193223,0,-0.97,1.59,-0.80,0.029,-0.022,0.982,0.00,0.00,0.00,0.00,0.97,-1.59,-0.23,0.06,1.93,5.34,-4.27,3.94,1100,1100,1100,1100,1024,1501,1518,0,731
193235,0,1.55,3.29,0.34,0.021,-0.016,1.034,0.00,0.00,0.00,0.00,-1.55,-3.29,-0.23,0.06,1.93,-4.27,-9.36,1.09,1100,1100,1100,1100,1024,1501,1518,0,731
193247,0,-2.71,-3.22,-0.16,0.038,-0.039,0.953,0.00,0.00,0.00,0.00,2.71,3.22,-0.22,0.06,1.94,9.16,17.98,2.35,1100,1100,1100,1100,1024,1501,1518,0,731
193259,0,0.59,-3.62,0.13,0.029,-0.030,0.995,0.00,0.00,0.00,0.00,-0.59,3.62,-0.23,0.06,1.93,-1.59,10.74,1.61,1100,1100,1100,1100,1024,1501,1518,0,731
193271,0,0.29,-7.65,0.04,0.061,-0.054,0.951,0.00,0.00,0.00,0.00,-0.29,7.65,-0.22,0.08,1.93,-3.70,10.53,1.83,1100,1100,1100,1100,1024,1501,1518,0,731
193283,0,1.09,5.12,-0.37,0.015,-0.053,0.973,0.00,0.00,0.00,0.00,-1.09,-5.12,-0.23,0.07,1.93,-3.00,-25.97,2.86,1100,1100,1100,1100,1024,1501,1518,0,731
193295,0,-1.17,0.62,0.74,0.035,-0.038,0.971,0.00,0.00,0.00,0.00,1.17,-0.62,-0.22,0.08,1.92,3.43,-15.93,0.06,1100,1100,1100,1100,1024,1501,1518,0,731
193307,0,0.24,-1.98,0.13,0.004,-0.036,0.969,0.00,0.00,0.00,0.00,-0.24,1.98,-0.23,0.08,1.93,1.67,14.44,1.60,1100,1100,1100,1100,1024,1501,1518,0,731
193319,0,1.17,-0.19,-1.29,-0.017,-0.033,1.071,0.00,0.00,0.00,0.00,-1.17,0.19,-0.23,0.08,1.94,-7.40,3.20,5.17,1100,1100,1100,1100,1024,1501,1518,0,731
193331,0,-1.07,-0.37,0.09,0.044,-0.020,1.047,0.00,0.00,0.00,0.00,1.07,0.37,-0.23,0.08,1.94,5.76,2.42,1.72,1100,1100,1100,1100,1024,1501,1518,0,731
193343,0,1.70,4.64,-0.54,0.038,-0.078,1.015,0.00,0.00,0.00,0.00,-1.70,-4.64,-0.23,0.07,1.96,-6.28,-16.63,3.31,1100,1100,1100,1100,1024,1501,1518,0,731
193355,0,-3.11,1.08,-0.21,0.023,-0.053,1.027,0.00,0.00,0.00,0.00,3.11,-1.08,-0.22,0.07,1.96,10.73,2.86,2.48,1100,1100,1100,1100,1024,1501,1518,0,731
193367,0,1.30,2.30,-0.42,-0.019,-0.033,1.014,0.00,0.00,0.00,0.00,-1.30,-2.30,-0.23,0.07,1.98,-2.30,-2.18,3.03,1100,1100,1100,1100,1024,1501,1518,0,731
193379,0,1.55,0.73,-1.28,-0.042,-0.041,1.061,0.00,0.00,0.00,0.00,-1.55,-0.73,-0.23,0.06,2.00,-9.33,6.50,5.19,1100,1100,1100,1100,1024,1501,1518,0,731
193391,0,-2.40,1.29,0.63,-0.076,0.004,1.078,0.00,0.00,0.00,0.00,2.40,-1.29,-0.23,0.05,1.99,11.94,1.92,0.41,1100,1100,1100,1100,1024,1501,1518,0,731
193403,0,2.16,3.24,0.49,-0.078,-0.047,1.043,0.00,0.00,0.00,0.00,-2.16,-3.24,-0.23,0.05,2.00,-7.15,-8.33,0.78,1100,1100,1100,1100,1024,1501,1518,0,731
193415,0,-1.82,-1.25,-0.21,-0.071,-0.045,1.101,0.00,0.00,0.00,0.00,1.82,1.25,-0.23,0.05,1.99,5.24,8.13,2.52,1100,1100,1100,1100,1023,1501,1519,0,731
193427,0,2.71,3.50,-0.21,-0.090,-0.039,1.086,0.00,0.00,0.00,0.00,-2.71,-3.50,-0.23,0.04,1.99,-7.91,-5.17,2.52,1100,1100,1100,1100,1023,1501,1519,0,731
193439,0,1.08,5.07,-0.77,-0.086,-0.055,1.107,0.00,0.00,0.00,0.00,-1.08,-5.07,-0.23,0.04,2.00,-7.83,-17.41,3.92,1100,1100,1100,1100,1024,1501,1518,0,731
193451,0,-2.43,3.02,0.18,-0.111,-0.046,1.093,0.00,0.00,0.00,0.00,2.43,-3.02,-0.23,0.03,2.00,12.84,7.78,1.55,1100,1100,1100,1100,1024,1501,1518,0,731
193463,0,1.75,0.44,0.79,-0.110,-0.063,1.077,0.00,0.00,0.00,0.00,-1.75,-0.44,-0.23,0.02,2.00,-7.75,7.12,0.02,1100,1100,1100,1100,1024,1501,1518,0,731
193475,0,-2.66,-4.04,-0.53,-0.060,-0.059,1.125,0.00,0.00,0.00,0.00,2.66,4.04,-0.23,0.02,2.00,9.30,19.85,3.33,1100,1100,1100,1100,1024,1501,1518,0,731
193487,0,1.40,2.28,0.03,-0.001,-0.013,1.029,0.00,0.00,0.00,0.00,-1.40,-2.28,-0.23,0.03,1.99,-3.87,-18.47,1.90,1100,1100,1100,1100,1024,1501,1518,0,731
193499,0,2.04,-8.74,0.56,0.123,-0.045,0.914,0.00,0.00,0.00,0.00,-2.04,8.74,-0.23,0.04,1.99,-9.55,20.32,0.60,1100,1100,1100,1100,1025,1500,1518,0,731
193511,0,0.38,-8.98,0.01,0.127,-0.038,0.921,0.00,0.00,0.00,0.00,-0.38,8.98,-0.23,0.06,1.98,0.10,13.60,1.95,1100,1100,1100,1100,1025,1500,1518,0,731
193523,0,-0.30,-12.13,1.46,0.204,-0.080,0.856,0.00,0.00,0.00,0.00,0.30,12.13,-0.23,0.08,1.96,4.46,17.99,-1.69,1100,1100,1100,1100,1025,1494,1518,0,751
193535,0,0.08,-0.92,-0.26,0.188,-0.094,0.913,0.00,0.00,0.00,0.00,-0.08,0.92,-0.23,0.09,1.96,-0.34,-19.51,2.61,1100,1100,1100,1100,1024,1501,1517,0,751
193547,0,-1.19,-0.06,0.36,0.216,-0.093,0.819,0.00,0.00,0.00,0.00,1.19,0.06,-0.23,0.10,1.93,4.83,-11.79,1.03,1100,1100,1100,1100,1024,1501,1517,0,751
193559,0,1.74,-0.51,0.36,0.185,-0.085,0.908,0.00,0.00,0.00,0.00,-1.74,0.51,-0.23,0.10,1.93,-5.43,-0.97,1.03,1100,1100,1100,1100,1023,1501,1518,0,751
193571,0,-0.60,-1.65,-0.78,0.124,-0.072,0.942,0.00,0.00,0.00,0.00,0.60,1.65,-0.23,0.10,1.93,0.48,10.69,3.89,1100,1100,1100,1100,1023,1501,1518,0,751
193583,0,-1.99,5.85,1.16,0.082,-0.037,1.005,0.00,0.00,0.00,0.00,1.99,-5.85,-0.23,0.09,1.93,9.58,-13.87,-0.97,1100,1100,1100,1100,1024,1502,1518,0,751
193595,0,2.11,1.44,-0.78,0.091,-0.055,1.020,0.00,0.00,0.00,0.00,-2.11,-1.44,-0.23,0.08,1.95,-9.54,0.55,3.89,1100,1100,1100,1100,1024,1501,1518,0,751
193607,0,-1.33,0.08,-0.39,0.104,-0.072,0.950,0.00,0.00,0.00,0.00,1.33,-0.08,-0.23,0.08,1.94,2.04,8.37,2.92,1100,1100,1100,1100,1024,1501,1518,0,751
193619,0,1.50,-3.36,0.44,0.105,-0.053,0.988,0.00,0.00,0.00,0.00,-1.50,3.36,-0.23,0.09,1.94,-2.94,9.70,0.85,1100,1100,1100,1100,1024,1501,1518,0,739
193631,0,1.40,-1.58,-0.33,0.061,-0.070,0.975,0.00,0.00,0.00,0.00,-1.40,1.58,-0.23,0.08,1.93,-7.63,5.97,2.77,1100,1100,1100,1100,1024,1501,1518,0,739
193643,0,-4.45,1.08,1.28,0.062,-0.035,0.995,0.00,0.00,0.00,0.00,4.45,-1.08,-0.23,0.09,1.92,18.89,-9.72,-1.28,1100,1100,1100,1100,1024,1501,1518,0,739
193655,0,2.32,1.97,-0.10,0.062,-0.032,1.004,0.00,0.00,0.00,0.00,-2.32,-1.97,-0.24,0.09,1.92,-6.38,-10.03,2.17,1100,1100,1100,1100,1024,1501,1518,0,739
193667,0,0.64,-5.19,-0.16,0.052,-0.044,0.950,0.00,0.00,0.00,0.00,-0.64,5.19,-0.23,0.09,1.91,-6.25,14.87,2.32,1100,1100,1100,1100,1024,1501,1518,0,739
193679,0,-1.30,-5.13,0.10,0.063,-0.008,1.006,0.00,0.00,0.00,0.00,1.30,5.13,-0.24,0.10,1.91,8.37,14.92,1.67,1100,1100,1100,1100,1024,1501,1518,0,739
193691,0,2.08,-0.73,-0.21,0.037,-0.066,1.003,0.00,0.00,0.00,0.00,-2.08,0.73,-0.24,0.10,1.91,-8.46,-2.59,2.42,1100,1100,1100,1100,1024,1501,1518,0,739
193703,0,-1.37,0.36,0.72,0.048,-0.082,1.011,0.00,0.00,0.00,0.00,1.37,-0.36,-0.23,0.11,1.90,2.92,-11.00,0.10,1100,1100,1100,1100,1024,1500,1518,0,739
193715,0,1.76,-5.54,-0.18,0.094,-0.075,0.942,0.00,0.00,0.00,0.00,-1.76,5.54,-0.24,0.12,1.91,-4.41,8.66,2.35,1100,1100,1100,1100,1024,1501,1518,0,739
193727,0,1.49,-4.62,-0.52,0.106,-0.093,0.935,0.00,0.00,0.00,0.00,-1.49,4.62,-0.24,0.13,1.91,-7.50,8.58,3.22,1100,1100,1100,1100,1024,1501,1518,0,731
193739,0,-3.18,-3.53,-0.14,0.099,-0.020,0.955,0.00,0.00,0.00,0.00,3.18,3.53,-0.24,0.14,1.91,14.52,-1.24,2.27,1100,1100,1100,1100,1024,1500,1518,0,731
193751,0,2.74,-4.74,0.40,0.084,-0.055,0.895,0.00,0.00,0.00,0.00,-2.74,4.74,-0.24,0.14,1.91,-8.68,9.61,0.92,1100,1100,1100,1100,1024,1500,1518,0,731
193763,0,-1.29,-2.85,-0.25,0.062,-0.060,0.982,0.00,0.00,0.00,0.00,1.29,2.85,-0.24,0.15,1.91,1.89,-0.36,2.54,1100,1100,1100,1100,1024,1501,1518,0,731
193775,0,-0.10,0.16,0.12,0.072,-0.043,0.990,0.00,0.00,0.00,0.00,0.10,-0.16,-0.24,0.15,1.90,4.51,-6.92,1.62,1100,1100,1100,1100,1024,1501,1518,0,731
193787,0,1.92,5.33,0.64,0.063,-0.086,1.013,0.00,0.00,0.00,0.00,-1.92,-5.33,-0.24,0.15,1.90,-10.93,-24.17,0.30,1100,1100,1100,1100,1024,1501,1518,0,731
193799,0,-1.57,5.23,-0.13,0.041,-0.059,1.016,0.00,0.00,0.00,0.00,1.57,-5.23,-0.24,0.15,2.59,3.92,-18.55,110.00,1100,1100,1100,1100,1027,1499,1520,0,731
193811,0,5.18,0.69,0.73,0.037,-0.081,0.977,0.00,0.00,0.00,0.00,-5.18,-0.69,-0.24,0.14,4.66,-16.80,7.57,110.00,1100,1100,1100,1100,1027,1499,1520,0,731
193823,0,1.28,1.20,-0.64,0.013,-0.097,1.033,0.00,0.00,0.00,0.00,-1.28,-1.20,-0.24,0.14,5.36,-7.41,6.24,6.96,1100,1100,1100,1100,1024,1494,1508,0,731
193835,0,-4.51,3.10,-0.72,-0.015,-0.047,1.048,0.00,0.00,0.00,0.00,4.51,-3.10,-0.24,0.12,5.36,26.46,3.54,7.15,1100,1100,1100,1100,1024,1501,1518,0,731
193847,0,2.94,12.11,0.02,-0.053,-0.072,1.106,0.00,0.00,0.00,0.00,-2.94,-12.11,-0.24,0.10,5.37,-9.32,-27.48,5.34,1100,1100,1100,1100,1024,1501,1518,0,731
193859,0,-3.92,5.56,-1.39,-0.036,-0.057,1.077,0.00,0.00,0.00,0.00,3.92,-5.56,-0.24,0.09,5.39,12.90,2.93,8.86,1100,1100,1100,1100,1024,1500,1518,0,731
193871,0,4.24,4.89,0.75,-0.046,-0.045,1.082,0.00,0.00,0.00,0.00,-4.24,-4.89,-0.25,0.07,5.38,-11.69,10.51,3.51,1100,1100,1100,1100,1024,1500,1518,0,731
193883,0,1.90,2.99,-0.44,-0.074,-0.061,1.093,0.00,0.00,0.00,0.00,-1.90,-2.99,-0.24,0.06,5.41,-12.34,11.50,6.49,1100,1100,1100,1100,1024,1501,1518,0,731
193895,0,-2.75,12.40,-0.45,-0.162,-0.015,1.167,0.00,0.00,0.00,5.00,2.75,-7.40,-0.25,0.04,5.41,13.88,-21.01,6.53,1100,1100,1100,1100,1016,1502,1525,0,731
193907,0,4.11,5.91,0.72,-0.093,-0.032,1.103,0.00,0.00,0.00,5.00,-4.11,-0.91,-0.25,0.04,5.42,-16.33,-6.89,3.63,1100,1100,1100,1100,1016,1502,1525,0,731
193919,0,-0.82,-2.82,-0.95,-0.016,-0.027,1.020,0.00,0.00,0.00,0.00,0.82,2.82,-0.25,0.05,5.43,2.65,22.10,7.81,1100,1100,1100,1100,1024,1500,1518,0,751
193931,0,-1.64,-6.85,0.04,0.051,-0.058,0.992,0.00,0.00,0.00,0.00,1.64,6.85,-0.25,0.05,5.42,10.58,23.26,5.33,1100,1100,1100,1100,1024,1500,1518,0,751
193943,0,-1.74,-5.21,-0.08,0.114,-0.088,0.954,0.00,0.00,0.00,0.00,1.74,5.21,-0.25,0.06,5.42,6.66,12.40,5.62,1100,1100,1100,1100,1024,1501,1518,0,751
193955,0,0.90,-1.00,-0.24,0.119,-0.065,0.967,0.00,0.00,0.00,0.00,-0.90,1.00,-0.25,0.07,5.41,-3.33,-11.56,6.00,1100,1100,1100,1100,1024,1501,1518,0,751
193967,0,1.88,-7.17,1.30,0.212,-0.063,0.873,0.00,0.00,0.00,0.00,-1.88,7.17,-0.25,0.08,5.40,-8.44,10.51,2.15,1100,1100,1100,1100,1024,1501,1518,0,751
193979,0,1.03,-7.04,0.06,0.220,-0.057,0.884,0.00,0.00,0.00,0.00,-1.03,7.04,-0.25,0.10,5.40,-3.17,5.50,5.25,1100,1100,1100,1100,1024,1501,1518,0,751
193991,0,0.87,-4.12,0.43,0.183,-0.063,0.883,0.00,0.00,0.00,0.00,-0.87,4.12,-0.25,0.12,5.38,-5.53,-12.87,4.31,1100,1100,1100,1100,1024,1501,1518,0,751
194003,0,-1.27,-8.89,0.88,0.201,-0.050,0.822,0.00,0.00,0.00,0.00,1.27,8.89,-0.25,0.14,5.38,5.34,9.13,3.18,1100,1100,1100,1100,1024,1501,1518,0,751
194015,0,1.15,-6.45,-1.37,0.171,-0.073,0.867,0.00,0.00,0.00,0.00,-1.15,6.45,-0.25,0.15,5.38,-4.42,8.16,8.81,1100,1100,1100,1100,1024,1501,1518,0,751
194027,0,-4.92,-5.56,0.54,0.147,-0.059,0.881,0.00,0.00,0.00,0.00,4.92,5.56,-0.24,0.16,5.37,17.41,6.85,4.02,1100,1100,1100,1100,1024,1501,1518,0,731
194039,0,-0.82,-0.82,-0.29,0.115,-0.076,0.934,0.00,0.00,0.00,0.00,0.82,0.82,-0.25,0.16,5.37,5.03,0.85,6.09,1100,1100,1100,1100,1024,1501,1518,0,731
194051,0,1.56,3.58,-0.05,0.076,-0.085,0.971,0.00,0.00,0.00,0.00,-1.56,-3.58,-0.24,0.15,5.36,-12.79,-15.69,5.47,1100,1100,1100,1100,1024,1501,1518,0,731
194063,0,1.08,6.91,1.00,0.067,-0.048,0.993,0.00,0.00,0.00,0.00,-1.08,-6.91,-0.25,0.14,5.36,-3.14,-17.82,2.87,1100,1100,1100,1100,1024,1501,1518,0,731
194075,0,5.02,4.03,-0.49,0.045,-0.069,0.994,0.00,0.00,0.00,0.00,-5.02,-4.03,-0.25,0.14,5.37,-20.05,-6.13,6.59,1100,1100,1100,1100,1024,1500,1518,0,731
194087,0,-4.11,-0.92,0.60,0.018,-0.061,1.016,0.00,0.00,0.00,0.00,4.11,0.92,-0.24,0.13,5.37,15.67,12.16,3.87,1100,1100,1100,1100,1024,1500,1518,0,731
194099,0,-0.53,-3.64,-0.56,0.006,-0.047,1.019,0.00,0.00,0.00,0.00,0.53,3.64,-0.25,0.14,5.38,5.49,8.88,6.78,1100,1100,1100,1100,1024,1501,1518,0,731
194111,0,-1.13,-3.93,-0.77,0.032,-0.072,1.003,0.00,0.00,0.00,0.00,1.13,3.93,-0.24,0.14,5.38,-1.68,11.77,7.29,1100,1100,1100,1100,1024,1501,1518,0,731
194123,0,-4.08,1.05,-0.18,0.020,-0.025,1.013,0.00,0.00,0.00,0.00,4.08,-1.05,-0.24,0.15,5.38,16.21,-11.07,5.84,1100,1100,1100,1100,1024,1501,1518,0,729
194135,0,1.28,-6.96,-0.41,0.059,-0.075,0.960,0.00,0.00,0.00,0.00,-1.28,6.96,-0.24,0.15,5.39,-7.71,20.81,6.41,1100,1100,1100,1100,1024,1501,1518,0,729
194147,0,-2.16,-0.91,0.33,0.016,-0.056,1.025,0.00,0.00,0.00,0.00,2.16,0.91,-0.24,0.16,5.39,2.47,-1.24,4.57,1100,1100,1100,1100,1024,1501,1518,0,729
194159,0,3.29,1.77,0.41,0.017,-0.033,1.001,0.00,0.00,0.00,0.00,-3.29,-1.77,-0.24,0.16,5.40,-12.54,-18.58,4.37,1100,1100,1100,1100,1024,1501,1518,0,729
194171,0,4.26,1.73,-0.05,0.043,-0.078,1.007,0.00,0.00,0.00,0.00,-4.26,-1.73,-0.24,0.16,5.40,-19.91,-8.79,5.53,1100,1100,1100,1100,1024,1501,1518,0,729
194183,0,-3.63,2.83,-0.87,0.036,-0.072,1.011,0.00,0.00,0.00,0.00,3.63,-2.83,-0.24,0.16,5.41,17.90,-10.81,7.57,1100,1100,1100,1100,1024,1501,1518,0,729
194195,0,-1.91,-7.86,0.45,0.079,-0.098,0.959,0.00,0.00,0.00,0.00,1.91,7.86,-0.24,0.17,5.40,11.02,29.30,4.27,1100,1100,1100,1100,1024,1501,1518,0,729
194207,0,-1.16,-6.11,-0.59,0.086,-0.097,0.988,0.00,0.00,0.00,0.00,1.16,6.11,-0.24,0.17,5.41,1.08,19.37,6.88,1100,1100,1100,1100,1024,1501,1518,0,729
194219,0,0.35,0.19,0.26,0.062,-0.026,0.994,0.00,0.00,0.00,0.00,-0.35,-0.19,-0.24,0.18,5.39,-0.97,-17.31,4.75,1100,1100,1100,1100,1024,1501,1518,0,729
194231,0,3.27,-1.85,0.75,0.107,-0.108,0.976,0.00,0.00,0.00,0.00,-3.27,1.85,-0.24,0.18,5.40,-15.14,-2.31,3.53,1100,1100,1100,1100,1024,1501,1518,0,729
194243,0,-1.91,-0.58,-0.01,0.109,-0.096,0.969,0.00,0.00,0.00,0.00,1.91,0.58,-0.24,0.19,5.38,4.86,-6.63,5.41,1100,1100,1100,1100,1024,1501,1518,0,729
194255,0,0.90,-6.13,1.59,0.120,-0.083,0.912,0.00,0.00,0.00,0.00,-0.90,6.13,-0.24,0.20,5.37,-1.18,13.41,1.41,1100,1100,1100,1100,1024,1501,1518,0,729
194267,0,0.68,-3.98,-0.97,0.130,-0.098,0.951,0.00,0.00,0.00,0.00,-0.68,3.98,-0.24,0.21,5.38,-6.90,6.06,7.81,1100,1100,1100,1100,1024,1501,1518,0,729
194279,0,-2.75,-1.56,-0.44,0.142,-0.074,0.903,0.00,0.00,0.00,0.00,2.75,1.56,-0.24,0.22,5.37,12.83,-6.28,6.46,1100,1100,1100,1100,1023,1501,1518,0,729
194291,0,2.41,-1.19,0.25,0.122,-0.094,0.951,0.00,0.00,0.00,0.00,-2.41,1.19,-0.24,0.22,5.37,-9.55,-0.65,4.75,1100,1100,1100,1100,1023,1501,1518,0,729
194303,0,-3.44,-1.13,-0.69,0.069,-0.074,0.951,0.00,0.00,0.00,0.00,3.44,1.13,-0.24,0.22,5.37,12.46,9.02,7.09,1100,1100,1100,1100,1024,1501,1518,0,729
194315,0,1.39,1.40,1.09,0.087,-0.040,0.974,0.00,0.00,0.00,0.00,-1.39,-1.40,-0.24,0.22,5.36,-2.33,-6.10,2.63,1100,1100,1100,1100,1024,1501,1518,0,729
194327,0,1.46,-0.67,-0.33,0.110,-0.075,0.941,0.00,0.00,0.00,0.00,-1.46,0.67,-0.24,0.22,5.38,-9.24,-3.45,6.21,1100,1100,1100,1100,1024,1501,1518,0,731
194339,0,-1.75,-2.42,-0.26,0.135,-0.078,0.917,0.00,0.00,0.00,0.00,1.75,2.42,-0.24,0.23,5.37,8.25,2.02,6.01,1100,1100,1100,1100,1025,1501,1518,0,731
194351,0,1.57,-5.24,0.97,0.162,-0.069,0.927,0.00,0.00,0.00,0.00,-1.57,5.24,-0.24,0.24,5.37,-6.85,9.96,2.95,1100,1100,1100,1100,1025,1501,1518,0,731
194363,0,-1.20,-4.42,-0.65,0.146,-0.047,0.891,0.00,0.00,0.00,0.00,1.20,4.42,-0.24,0.24,5.37,2.76,7.05,6.99,1100,1100,1100,1100,1024,1501,1518,0,731
194375,0,-0.71,1.40,-0.32,0.157,-0.059,0.944,0.00,0.00,0.00,0.00,0.71,-1.40,-0.24,0.24,5.37,4.46,-5.19,6.16,1100,1100,1100,1100,1024,1501,1518,0,731
194387,0,-0.78,8.14,-0.88,0.073,-0.071,0.980,0.00,0.00,0.00,0.00,0.78,-8.14,-0.24,0.23,5.38,3.54,-26.57,7.58,1100,1100,1100,1100,1024,1501,1518,0,731
194399,0,-0.88,-2.19,-0.39,0.070,-0.073,0.947,0.00,0.00,0.00,0.00,0.88,2.19,-0.24,0.23,5.39,4.30,20.09,6.36,1100,1100,1100,1100,1024,1501,1518,0,731
194411,0,1.72,5.80,0.61,0.021,-0.033,1.039,0.00,0.00,0.00,0.00,-1.72,-5.80,-0.24,0.21,5.39,-6.06,-5.95,3.87,1100,1100,1100,1100,1024,1501,1518,0,731
194423,0,0.83,-5.43,-0.04,-0.010,-0.026,0.978,0.00,0.00,0.00,0.00,-0.83,5.43,-0.24,0.22,5.41,-3.37,24.79,5.50,1100,1100,1100,1100,1024,1501,1518,0,731
194435,0,2.52,6.48,-0.87,-0.048,-0.041,1.103,0.00,0.00,0.00,0.00,-2.52,-6.48,-0.24,0.21,5.41,-13.75,-26.03,7.60,1100,1100,1100,1100,1024,1501,1518,0,731
194447,0,-1.56,3.74,0.25,-0.006,-0.045,1.048,0.00,0.00,0.00,0.00,1.56,-3.74,-0.24,0.20,5.42,8.11,-3.87,4.80,1100,1100,1100,1100,1024,1501,1518,0,731
194459,0,1.05,3.01,-0.60,-0.003,-0.064,1.036,0.00,0.00,0.00,0.00,-1.05,-3.01,-0.24,0.20,5.44,-4.27,2.27,6.93,1100,1100,1100,1100,1024,1501,1518,0,731
194471,0,-4.96,-2.17,-0.34,0.030,-0.048,1.021,0.00,0.00,0.00,0.00,4.96,2.17,-0.24,0.19,5.44,17.55,22.16,6.28,1100,1100,1100,1100,1024,1501,1518,0,731
194483,0,1.62,5.11,-0.52,-0.010,-0.029,1.025,0.00,0.00,0.00,0.00,-1.62,-5.11,-0.24,0.18,5.46,-3.68,-14.09,6.76,1100,1100,1100,1100,1024,1501,1518,0,731
194495,0,1.61,0.92,-1.06,0.011,-0.058,1.056,0.00,0.00,0.00,0.00,-1.61,-0.92,-0.24,0.18,5.47,-10.23,5.65,8.11,1100,1100,1100,1100,1024,1501,1518,0,731
194507,0,-2.47,3.17,0.77,0.012,-0.010,1.035,0.00,0.00,0.00,0.00,2.47,-3.17,-0.24,0.17,5.46,13.61,-1.12,3.54,1100,1100,1100,1100,1024,1501,1518,0,731
194519,0,2.24,3.98,0.03,-0.005,-0.027,1.028,0.00,0.00,0.00,0.00,-2.24,-3.98,-0.24,0.16,5.48,-8.50,-7.77,5.40,1100,1100,1100,1100,1024,1501,1518,0,748
194531,0,-1.23,1.43,-0.61,0.004,-0.023,1.063,0.00,0.00,0.00,0.00,1.23,-1.43,-0.24,0.16,5.48,2.51,5.28,7.00,1100,1100,1100,1100,1024,1501,1518,0,748
194543,0,3.58,6.15,-0.18,0.008,-0.028,1.012,0.00,0.00,0.00,0.00,-3.58,-6.15,-0.25,0.15,5.49,-9.83,-12.66,5.94,1100,1100,1100,1100,1024,1498,1517,0,748
194555,0,0.69,4.90,-0.74,0.009,-0.041,1.042,0.00,0.00,0.00,0.00,-0.69,-4.90,-0.24,0.14,5.50,-5.44,-9.68,7.36,1100,1100,1100,1100,1024,1501,1518,0,748
194567,0,-4.69,1.71,0.26,-0.002,-0.015,1.003,0.00,0.00,0.00,0.00,4.69,-1.71,-0.24,0.13,5.50,22.54,14.91,4.86,1100,1100,1100,1100,1024,1501,1518,0,748
194579,0,2.30,9.06,0.14,-0.048,-0.002,1.049,0.00,0.00,0.00,0.00,-2.30,-9.06,-0.24,0.11,5.51,-9.94,-16.68,5.16,1100,1100,1100,1100,1024,1501,1518,0,748
194591,0,-1.38,0.48,-1.09,-0.054,-0.009,1.092,0.00,0.00,0.00,0.00,1.38,-0.48,-0.24,0.10,5.53,2.59,19.08,8.26,1100,1100,1100,1100,1024,1501,1518,0,748
194603,0,1.36,7.06,-0.03,-0.041,0.011,1.055,0.00,0.00,0.00,0.00,-1.36,-7.06,-0.24,0.09,5.53,-3.38,-16.60,5.61,1100,1100,1100,1100,1024,1502,1517,0,748
194615,0,0.64,-2.62,0.18,0.016,-0.024,0.992,0.00,0.00,0.00,0.00,-0.64,2.62,-0.24,0.09,5.54,-4.59,13.15,5.09,1100,1100,1100,1100,1025,1501,1518,0,748
194627,0,0.05,-1.69,-0.31,-0.012,-0.015,1.014,0.00,0.00,0.00,0.00,-0.05,1.69,-0.24,0.10,5.54,0.76,2.31,6.31,1100,1100,1100,1100,1025,1501,1518,0,729
194639,0,1.17,-10.59,0.47,0.071,-0.034,0.925,0.00,0.00,0.00,0.00,-1.17,10.59,-0.24,0.12,5.54,-3.05,21.60,4.35,1100,1100,1100,1100,1024,1501,1517,0,729
194651,0,0.45,-0.76,-0.62,0.036,-0.053,1.000,0.00,0.00,0.00,0.00,-0.45,0.76,-0.24,0.13,5.55,-1.26,-13.37,7.09,1100,1100,1100,1100,1024,1501,1517,0,729
194663,0,-1.93,-3.00,0.35,0.057,-0.049,0.904,0.00,0.00,0.00,0.00,1.93,3.00,-0.24,0.14,5.53,8.85,-5.17,4.65,1100,1100,1100,1100,1025,1500,1518,0,729
194675,0,0.07,-0.59,0.15,0.028,-0.069,1.010,0.00,0.00,0.00,0.00,-0.07,0.59,-0.25,0.13,5.55,0.40,4.26,5.18,1100,1100,1100,1100,1024,1501,1518,0,729
194687,0,-0.92,4.56,-1.36,-0.051,-0.050,1.073,0.00,0.00,0.00,0.00,0.92,-4.56,-0.24,0.13,5.55,0.41,-14.26,8.95,1100,1100,1100,1100,1024,1501,1518,0,729
194699,0,-1.04,3.37,0.79,0.013,-0.014,1.049,0.00,0.00,0.00,0.00,1.04,-3.37,-0.24,0.12,5.55,3.92,-5.25,3.56,1100,1100,1100,1100,1025,1501,1518,0,729
194711,0,3.11,2.17,-0.47,0.025,-0.056,1.060,0.00,0.00,0.00,0.00,-3.11,-2.17,-0.24,0.12,5.56,-13.68,-0.93,6.75,1100,1100,1100,1100,1025,1501,1518,0,729
194723,0,-0.61,-1.33,0.07,0.053,-0.067,0.975,0.00,0.00,0.00,0.00,0.61,1.33,-0.24,0.12,5.55,0.02,10.93,5.39,1100,1100,1100,1100,1024,1501,1518,0,771
194735,0,0.89,-1.65,0.52,0.093,-0.062,1.010,0.00,0.00,0.00,0.00,-0.89,1.65,-0.24,0.12,5.56,-0.35,6.48,4.27,1100,1100,1100,1100,1024,1501,1518,0,771
194747,0,0.48,3.55,-0.78,0.068,-0.063,0.977,0.00,0.00,0.00,0.00,-0.48,-3.55,-0.24,0.12,5.56,-4.05,-15.12,7.51,1100,1100,1100,1100,1024,1501,1518,0,771
194759,0,-4.61,5.29,0.54,0.054,-0.022,0.995,0.00,0.00,0.00,0.00,4.61,-5.29,-0.24,0.11,5.56,19.65,-13.98,4.21,1100,1100,1100,1100,1024,1501,1518,0,771
194771,0,2.76,4.65,-0.83,0.011,-0.032,1.043,0.00,0.00,0.00,0.00,-2.76,-4.65,-0.24,0.10,5.57,-9.53,0.02,7.65,1100,1100,1100,1100,1024,1501,1518,0,771
194783,0,-0.28,2.85,-0.31,-0.047,-0.037,1.034,0.00,0.00,0.00,0.00,0.28,-2.85,-0.24,0.08,5.57,-4.16,11.55,6.35,1100,1100,1100,1100,1024,1501,1518,0,771
194795,0,-0.87,4.75,-0.23,-0.051,-0.021,1.136,0.00,0.00,0.00,0.00,0.87,-4.75,-0.24,0.07,5.59,6.44,3.09,6.18,1100,1100,1100,1100,1024,1501,1518,0,771
194807,0,2.38,11.92,-0.69,-0.082,-0.061,1.095,0.00,0.00,0.00,0.00,-2.38,-11.92,-0.24,0.05,5.60,-10.16,-28.35,7.34,1100,1100,1100,1100,1024,1501,1518,0,771
194819,0,-1.20,8.11,0.48,-0.050,-0.048,1.096,0.00,0.00,0.00,0.00,1.20,-8.11,-0.24,0.04,5.61,3.48,-16.30,4.42,1100,1100,1100,1100,1022,1501,1518,0,731
194831,0,2.88,-3.78,-0.06,0.002,-0.052,1.018,0.00,0.00,0.00,0.00,-2.88,3.78,-0.25,0.03,5.62,-8.43,34.09,5.78,1100,1100,1100,1100,1022,1501,1518,0,731
194843,0,1.68,1.39,-0.44,-0.019,-0.071,1.076,0.00,0.00,0.00,0.00,-1.68,-1.39,-0.24,0.02,5.63,-8.06,12.12,6.73,1100,1100,1100,1100,1024,1501,1518,0,731
194855,0,-3.49,5.81,-0.80,-0.015,-0.029,1.110,0.00,0.00,0.00,0.00,3.49,-5.81,-0.25,0.02,5.64,17.24,-19.18,7.64,1100,1100,1100,1100,1024,1501,1518,0,731
194867,0,2.16,9.07,0.08,-0.010,-0.051,1.039,0.00,0.00,0.00,0.00,-2.16,-9.07,-0.25,0.00,5.65,-6.47,-19.92,5.45,1100,1100,1100,1100,1024,1501,1518,0,731
194879,0,-1.54,5.26,-1.00,-0.025,-0.025,1.082,0.00,0.00,0.00,0.00,1.54,-5.26,-0.25,-0.01,5.66,4.20,0.07,8.17,1100,1100,1100,1100,1024,1501,1518,0,731
194891,0,0.01,1.86,0.04,-0.042,-0.006,1.066,0.00,0.00,0.00,0.00,-0.01,-1.86,-0.25,-0.02,5.66,4.67,16.33,5.56,1100,1100,1100,1100,1024,1501,1518,0,731
194903,0,3.03,8.91,0.15,-0.104,-0.057,1.132,0.00,0.00,0.00,0.00,-3.03,-8.91,-0.25,-0.04,5.68,-14.22,-11.26,5.30,1100,1100,1100,1100,1024,1501,1518,0,731
194915,0,-1.41,9.90,-0.48,-0.108,-0.045,1.142,0.00,0.00,0.00,0.00,1.41,-9.90,-0.25,-0.06,5.68,4.66,-17.09,6.88,1100,1100,1100,1100,1024,1500,1518,0,731
194927,0,2.57,4.84,0.71,-0.041,-0.076,1.053,0.00,0.00,0.00,0.00,-2.57,-4.84,-0.25,-0.07,5.68,-8.01,3.06,3.90,1100,1100,1100,1100,1024,1500,1518,0,731
194939,0,-1.56,3.50,-1.10,-0.022,-0.057,1.078,0.00,0.00,0.00,0.00,1.56,-3.50,-0.25,-0.08,5.70,2.76,1.61,8.46,1100,1100,1100,1100,1024,1500,1518,0,731
194951,0,-4.14,-1.72,-0.30,0.006,-0.044,1.058,0.00,0.00,0.00,0.00,4.14,1.72,-0.25,-0.08,5.70,19.35,18.46,6.45,1100,1100,1100,1100,1024,1500,1518,0,731
194963,0,2.85,2.35,0.23,0.044,-0.068,1.043,0.00,0.00,0.00,0.00,-2.85,-2.35,-0.25,-0.09,5.71,-13.30,-0.24,5.12,1100,1100,1100,1100,1024,1501,1518,0,731
194975,0,-2.13,-0.07,-0.58,0.076,-0.050,1.045,0.00,0.00,0.00,0.00,2.13,0.07,-0.25,-0.09,5.70,4.30,-1.70,7.16,1100,1100,1100,1100,1025,1501,1518,0,731
194987,0,1.62,1.00,0.96,0.125,-0.073,0.988,0.00,0.00,0.00,0.00,-1.62,-1.00,-0.25,-0.09,5.69,-3.76,0.36,3.30,1100,1100,1100,1100,1025,1501,1518,0,731
194999,0,0.62,0.13,-0.32,0.129,-0.060,0.978,0.00,0.00,0.00,0.00,-0.62,-0.13,-0.25,-0.09,5.71,-6.93,-3.71,6.49,1100,1100,1100,1100,1025,1501,1518,0,731
195011,0,-1.40,-1.30,0.08,0.107,-0.039,0.968,0.00,0.00,0.00,0.00,1.40,1.30,-0.25,-0.09,5.69,5.48,3.17,5.49,1100,1100,1100,1100,1025,1501,1518,0,731
195023,0,2.79,2.10,0.68,0.112,-0.052,0.956,0.00,0.00,0.00,0.00,-2.79,-2.10,-0.25,-0.09,5.70,-12.61,-11.14,3.99,1100,1100,1100,1100,1025,1502,1517,0,731
195035,0,-0.49,-0.86,-1.04,0.126,-0.068,0.975,0.00,0.00,0.00,0.00,0.49,0.86,-0.24,-0.09,5.71,1.13,7.26,8.31,1100,1100,1100,1100,1024,1501,1518,0,731
195047,0,-2.61,1.92,-0.00,0.113,-0.077,0.960,0.00,0.00,0.00,0.00,2.61,-1.92,-0.24,-0.09,5.70,11.01,-6.22,5.71,1100,1100,1100,1100,1024,1501,1518,0,731
195059,0,-2.31,5.65,-0.59,0.086,-0.096,1.017,0.00,0.00,0.00,0.00,2.31,-5.65,-0.24,-0.10,5.71,10.07,-10.18,7.19,1100,1100,1100,1100,1024,1501,1518,0,731
195071,0,-0.47,1.36,-1.01,0.029,-0.106,1.021,0.00,0.00,0.00,0.00,0.47,-1.36,-0.24,-0.11,5.72,1.35,12.61,8.26,1100,1100,1100,1100,1024,1501,1518,0,731
195083,0,-0.37,1.11,1.05,0.002,-0.068,1.055,0.00,0.00,0.00,0.00,0.37,-1.11,-0.24,-0.12,5.71,-0.51,3.12,3.09,1100,1100,1100,1100,1024,1501,1518,0,731
195095,0,1.70,1.32,-0.14,-0.015,-0.064,1.084,0.00,0.00,0.00,0.00,-1.70,-1.32,-0.25,-0.12,5.73,-5.71,1.77,6.08,1100,1100,1100,1100,1024,1501,1518,0,731
195107,0,0.40,10.92,-0.69,-0.051,-0.069,1.120,0.00,0.00,0.00,0.00,-0.40,-10.92,-0.24,-0.13,5.74,-5.49,-40.54,7.46,1100,1100,1100,1100,1024,1501,1518,0,731
195119,0,-1.39,0.12,0.44,0.049,-0.036,1.012,0.00,0.00,0.00,0.00,1.39,-0.12,-0.24,-0.13,5.75,6.24,6.54,4.65,1100,1100,1100,1100,1024,1500,1519,0,756
195131,0,3.97,-1.90,-1.07,0.049,-0.056,1.014,0.00,0.00,0.00,0.00,-3.97,1.90,-0.24,-0.13,5.76,-17.62,14.21,8.43,1100,1100,1100,1100,1024,1500,1519,0,756
195143,0,-4.19,-3.99,0.21,0.039,-0.036,0.983,0.00,0.00,0.00,0.00,4.19,3.99,-0.24,-0.13,5.75,13.29,16.45,5.22,1100,1100,1100,1100,1024,1501,1518,0,756
195155,0,-0.80,0.96,-0.18,0.011,-0.039,1.039,0.00,0.00,0.00,0.00,0.80,-0.96,-0.24,-0.13,5.77,7.70,-4.98,6.23,1100,1100,1100,1100,1024,1501,1518,0,756
195167,0,-0.36,2.45,-0.68,-0.001,-0.075,1.018,0.00,0.00,0.00,0.00,0.36,-2.45,-0.24,-0.13,5.77,-3.27,-8.48,7.47,1100,1100,1100,1100,1024,1501,1518,0,756
195179,0,-3.56,2.26,0.22,0.013,-0.006,1.016,0.00,0.00,0.00,0.00,3.56,-2.26,-0.24,-0.14,5.77,16.22,-7.08,5.21,1100,1100,1100,1100,1024,1501,1518,0,756
195191,0,5.69,0.60,-0.39,0.035,-0.058,0.975,0.00,0.00,0.00,0.00,-5.69,-0.60,-0.24,-0.14,5.78,-20.58,4.47,6.75,1100,1100,1100,1100,1024,1501,1518,0,756
195203,0,-0.56,5.73,-0.07,-0.068,-0.044,1.084,0.00,0.00,0.00,0.00,0.56,-5.73,-0.24,-0.15,5.78,-1.76,-6.96,5.95,1100,1100,1100,1100,1024,1501,1518,0,756
195215,0,0.62,11.13,-0.17,-0.114,-0.030,1.171,0.00,0.00,0.00,0.00,-0.62,-11.13,-0.25,-0.17,5.79,3.28,-20.06,6.22,1100,1100,1100,1100,1024,1501,1518,0,756
195227,0,1.99,11.87,-0.04,-0.088,-0.063,1.146,0.00,0.00,0.00,0.00,-1.99,-11.87,-0.24,-0.20,5.80,-12.31,-19.00,5.89,1100,1100,1100,1100,1024,1501,1518,0,731
195239,0,-4.18,9.09,-0.67,-0.091,-0.030,1.115,0.00,0.00,0.00,0.00,4.18,-9.09,-0.24,-0.21,5.81,16.60,-3.91,7.48,1100,1100,1100,1100,1024,1501,1518,0,731
195251,0,2.26,-1.49,-0.72,-0.061,-0.044,1.051,0.00,0.00,0.00,0.00,-2.26,1.49,-0.24,-0.22,5.82,-7.85,29.29,7.61,1100,1100,1100,1100,1024,1501,1518,0,731
195263,0,-0.99,3.60,-0.90,-0.109,-0.030,1.134,0.00,0.00,0.00,0.00,0.99,-3.60,-0.24,-0.24,5.85,1.38,13.59,8.10,1100,1100,1100,1100,1024,1501,1518,0,731
195275,0,-1.29,6.84,-0.60,-0.112,0.033,1.118,0.00,0.00,0.00,0.00,1.29,-6.84,-0.24,-0.25,5.86,9.27,-18.70,7.37,1100,1100,1100,1100,1024,1501,1518,0,731
195287,0,3.89,8.34,-0.10,-0.068,-0.014,1.095,0.00,0.00,0.00,0.00,-3.89,-8.34,-0.25,-0.27,5.89,-12.92,-9.41,6.13,1100,1100,1100,1100,1024,1501,1518,0,731
195299,0,-0.84,10.08,-1.97,-0.096,0.002,1.120,0.00,0.00,0.00,0.00,0.84,-10.08,-0.25,-0.28,5.92,4.48,-19.99,10.85,1100,1100,1100,1100,1024,1501,1518,0,731
195311,0,0.46,-2.87,0.17,-0.006,-0.023,1.023,0.00,0.00,0.00,0.00,-0.46,2.87,-0.25,-0.29,5.92,4.20,30.13,5.49,1100,1100,1100,1100,1024,1501,1518,0,731
195323,0,2.30,5.85,-0.20,-0.068,-0.025,1.105,0.00,0.00,0.00,0.00,-2.30,-5.85,-0.25,-0.30,5.95,-10.61,-7.81,6.46,1100,1100,1100,1100,1023,1502,1518,0,796
195335,0,-1.42,1.62,-0.52,-0.069,0.002,1.077,0.00,0.00,0.00,0.00,1.42,-1.62,-0.25,-0.31,5.94,5.94,-0.40,7.24,1100,1100,1100,1100,1023,1500,1519,0,796
195347,0,1.72,0.18,0.88,-0.036,-0.032,1.071,0.00,0.00,0.00,0.00,-1.72,-0.18,-0.25,-0.31,5.95,-6.22,1.43,3.74,1100,1100,1100,1100,1023,1500,1519,0,796
195359,0,-2.23,-3.40,-1.52,-0.010,-0.041,1.038,0.00,0.00,0.00,0.00,2.23,3.40,-0.25,-0.30,5.96,6.90,10.72,9.77,1100,1100,1100,1100,1024,1500,1519,0,796
195371,0,-2.37,-7.37,1.00,0.026,0.001,0.982,0.00,0.00,0.00,0.00,2.37,7.37,-0.25,-0.29,5.94,10.42,14.32,3.43,1100,1100,1100,1100,1024,1500,1519,0,796
195383,0,1.43,-2.28,0.30,0.039,-0.014,0.977,0.00,0.00,0.00,0.00,-1.43,2.28,-0.25,-0.29,5.95,-7.10,-0.81,5.20,1100,1100,1100,1100,1023,1502,1518,0,796
195395,0,0.53,0.76,-0.66,-0.007,-0.008,0.994,0.00,0.00,0.00,0.00,-0.53,-0.76,-0.25,-0.28,5.94,-3.26,-13.33,7.59,1100,1100,1100,1100,1024,1500,1518,0,796
195407,0,1.14,-1.39,1.02,0.009,-0.020,1.021,0.00,0.00,0.00,0.00,-1.14,1.39,-0.25,-0.28,5.93,-3.02,3.67,3.37,1100,1100,1100,1100,1024,1500,1518,0,796
195419,0,-0.93,-0.87,-0.91,0.004,-0.034,0.998,0.00,0.00,0.00,0.00,0.93,0.87,-0.25,-0.28,5.95,3.81,2.84,8.21,1100,1100,1100,1100,1024,1500,1518,0,729
195431,0,-0.70,2.22,0.66,-0.011,-0.043,1.028,0.00,0.00,0.00,0.00,0.70,-2.22,-0.25,-0.28,5.93,1.90,-6.40,4.28,1100,1100,1100,1100,1024,1500,1518,0,729
195443,0,0.06,-1.32,0.29,0.023,-0.055,0.981,0.00,0.00,0.00,0.00,-0.06,1.32,-0.25,-0.28,5.94,-3.07,3.40,5.21,1100,1100,1100,1100,1024,1501,1518,0,729
195455,0,0.82,-2.18,-0.69,0.012,-0.088,0.993,0.00,0.00,0.00,0.00,-0.82,2.18,-0.25,-0.28,5.94,-5.07,10.88,7.66,1100,1100,1100,1100,1024,1501,1518,0,729
195467,0,-2.34,-0.91,0.28,0.015,-0.036,1.039,0.00,0.00,0.00,0.00,2.34,0.91,-0.24,-0.28,5.94,6.41,0.26,5.23,1100,1100,1100,1100,1024,1501,1518,0,729
195479,0,-1.48,2.32,-0.55,-0.019,-0.017,1.022,0.00,0.00,0.00,0.00,1.48,-2.32,-0.24,-0.28,5.95,5.71,-7.32,7.32,1100,1100,1100,1100,1024,1501,1518,0,729
195491,0,0.91,-0.03,-0.76,0.003,-0.026,1.049,0.00,0.00,0.00,0.00,-0.91,0.03,-0.24,-0.28,5.95,-6.60,0.78,7.85,1100,1100,1100,1100,1024,1501,1518,0,729
195503,0,-1.59,1.94,0.28,-0.017,-0.022,1.020,0.00,0.00,0.00,0.00,1.59,-1.94,-0.24,-0.28,5.96,7.81,-5.77,5.25,1100,1100,1100,1100,1024,1501,1518,0,729
195515,0,2.86,-1.92,0.11,-0.033,-0.045,1.034,0.00,0.00,0.00,0.00,-2.86,1.92,-0.25,-0.28,5.97,-10.90,2.62,5.70,1100,1100,1100,1100,1029,1501,1518,0,729
195527,0,-1.03,0.20,0.02,-0.052,-0.034,1.038,0.00,0.00,0.00,0.00,1.03,-0.20,-0.24,-0.29,5.97,1.78,5.54,5.92,1100,1100,1100,1100,1029,1501,1518,0,900
195539,0,2.02,4.62,-0.09,-0.083,-0.032,1.035,0.00,0.00,0.00,0.00,-2.02,-4.62,-0.25,-0.29,5.97,-3.95,-18.61,6.20,1100,1100,1100,1100,1024,1501,1518,0,900
195551,0,0.82,-2.10,-0.73,-0.043,-0.077,1.033,0.00,0.00,0.00,0.00,-0.82,2.10,-0.24,-0.28,5.98,-6.94,7.09,7.81,1100,1100,1100,1100,1024,1501,1518,0,900
195563,0,-5.28,-0.86,0.59,-0.043,-0.036,1.031,0.00,0.00,0.00,0.00,5.28,0.86,-0.24,-0.28,5.96,24.48,6.17,4.49,1100,1100,1100,1100,1024,1501,1518,0,900
195575,0,2.36,0.11,0.25,-0.006,-0.041,1.026,0.00,0.00,0.00,0.00,-2.36,-0.11,-0.25,-0.29,5.97,-8.14,1.34,5.34,1100,1100,1100,1100,1024,1500,1518,0,900
195587,0,-1.99,3.75,-1.00,-0.002,-0.045,1.055,0.00,0.00,0.00,0.00,1.99,-3.75,-0.24,-0.29,5.97,3.42,-14.49,8.47,1100,1100,1100,1100,1024,1500,1518,0,900
195599,0,2.89,7.29,0.22,0.022,-0.047,1.001,0.00,0.00,0.00,0.00,-2.89,-7.29,-0.25,-0.30,5.98,-6.31,-15.57,5.43,1100,1100,1100,1100,1024,1501,1518,0,900
195611,0,2.75,4.15,-0.58,-0.018,-0.059,1.072,0.00,0.00,0.00,0.00,-2.75,-4.15,-0.25,-0.31,5.99,-14.78,-7.16,7.45,1100,1100,1100,1100,1024,1501,1518,0,900
195623,0,-5.88,-4.00,0.16,-0.017,-0.026,1.005,0.00,0.00,0.00,0.00,5.88,4.00,-0.25,-0.32,5.99,25.03,31.87,5.58,1100,1100,1100,1100,1024,1501,1518,0,731
195635,0,3.02,7.32,0.06,-0.057,-0.013,1.071,0.00,0.00,0.00,0.00,-3.02,-7.32,-0.25,-0.32,6.01,-9.49,-21.76,5.87,1100,1100,1100,1100,1024,1501,1518,0,731
195647,0,0.35,-1.92,-1.28,-0.043,-0.041,1.046,0.00,0.00,0.00,0.00,-0.35,1.92,-0.25,-0.32,6.02,-5.45,10.49,9.21,1100,1100,1100,1100,1024,1501,1518,0,731
195659,0,-1.84,1.12,0.18,0.022,-0.046,1.006,0.00,0.00,0.00,0.00,1.84,-1.12,-0.25,-0.32,6.01,9.71,-3.88,5.55,1100,1100,1100,1100,1024,1501,1518,0,731
195671,0,-0.81,-2.72,0.15,0.051,-0.056,0.993,0.00,0.00,0.00,0.00,0.81,2.72,-0.25,-0.32,6.02,1.47,3.05,5.64,1100,1100,1100,1100,1024,1501,1518,0,731
195683,0,-1.80,-0.54,-0.02,0.017,-0.047,0.994,0.00,0.00,0.00,0.00,1.80,0.54,-0.24,-0.31,6.01,4.56,-5.14,6.07,1100,1100,1100,1100,1024,1502,1517,0,731
195695,0,0.71,-6.01,1.22,0.113,-0.039,0.912,0.00,0.00,0.00,0.00,-0.71,6.01,-0.24,-0.30,6.00,-3.92,13.79,2.94,1100,1100,1100,1100,1024,1501,1518,0,731
195707,0,3.11,-5.09,-0.17,0.127,-0.070,0.949,0.00,0.00,0.00,0.00,-3.11,5.09,-0.25,-0.29,6.00,-14.29,0.79,6.42,1100,1100,1100,1100,1024,1501,1518,0,731
195719,0,0.32,-2.89,-0.16,0.156,-0.081,0.879,0.00,0.00,0.00,7.00,-0.32,9.89,-0.24,-0.27,5.99,-3.87,1.54,6.39,1100,1100,1100,1100,1007,1501,1535,0,769
195731,0,-0.42,-1.54,0.81,0.156,-0.061,0.900,0.00,0.00,0.00,7.00,0.42,8.54,-0.24,-0.25,5.99,4.08,-4.90,3.96,1100,1100,1100,1100,1007,1501,1535,0,769
195743,0,0.53,-1.76,-0.93,0.118,-0.087,0.898,0.00,0.00,0.00,0.00,-0.53,1.76,-0.24,-0.24,6.00,-2.94,-0.38,8.32,1100,1100,1100,1100,1024,1500,1519,0,769
195755,0,-4.74,0.12,0.18,0.098,-0.053,0.934,0.00,0.00,0.00,0.00,4.74,-0.12,-0.24,-0.24,5.99,18.44,-7.61,5.54,1100,1100,1100,1100,1023,1501,1518,0,769
195767,0,1.00,0.26,-0.63,0.057,-0.071,0.986,0.00,0.00,0.00,0.00,-1.00,-0.26,-0.25,-0.24,6.00,-1.21,7.54,7.58,1100,1100,1100,1100,1023,1501,1518,0,769
195779,0,0.25,4.96,-0.38,-0.020,-0.076,1.029,0.00,0.00,0.00,0.00,-0.25,-4.96,-0.24,-0.26,6.00,-6.60,-5.52,6.95,1100,1100,1100,1100,1024,1501,1518,0,769
195791,0,0.19,9.10,0.66,-0.054,-0.055,1.126,0.00,0.00,0.00,0.00,-0.19,-9.10,-0.25,-0.28,6.02,1.59,-13.31,4.37,1100,1100,1100,1100,1024,1501,1518,0,769
195803,0,5.90,16.37,-0.63,-0.129,-0.076,1.143,0.00,0.00,0.00,0.00,-5.90,-16.37,-0.25,-0.30,6.03,-26.04,-36.96,7.59,1100,1100,1100,1100,1024,1501,1518,0,769
195815,0,-3.16,10.81,0.01,-0.131,-0.030,1.157,0.00,0.00,0.00,0.00,3.16,-10.81,-0.24,-0.32,6.04,11.91,-12.65,6.00,1100,1100,1100,1100,1024,1501,1518,0,769
195827,0,0.20,2.08,-1.09,-0.107,-0.027,1.127,0.00,0.00,0.00,0.00,-0.20,-2.08,-0.25,-0.33,6.06,3.85,18.84,8.79,1100,1100,1100,1100,1024,1501,1518,0,731
195839,0,-1.76,-2.25,-0.70,-0.129,-0.033,1.096,0.00,0.00,0.00,0.00,1.76,2.25,-0.24,-0.34,6.06,2.87,28.79,7.81,1100,1100,1100,1100,1024,1501,1518,0,731
195851,0,-2.01,-0.80,-0.28,-0.110,-0.003,1.145,0.00,0.00,0.00,0.00,2.01,0.80,-0.24,-0.35,6.08,10.90,12.56,6.78,1100,1100,1100,1100,1024,1501,1518,0,731
195863,0,2.87,3.43,-0.65,-0.106,-0.053,1.093,0.00,0.00,0.00,0.00,-2.87,-3.43,-0.24,-0.36,6.08,-13.01,-5.71,7.71,1100,1100,1100,1100,1024,1501,1518,0,731
195875,0,-2.56,7.76,0.28,-0.095,-0.022,1.121,0.00,0.00,0.00,0.00,2.56,-7.76,-0.24,-0.36,6.09,8.77,-28.84,5.39,1100,1100,1100,1100,1024,1501,1518,0,731
195887,0,3.02,0.44,0.62,-0.028,-0.018,1.017,0.00,0.00,0.00,0.00,-3.02,-0.44,-0.25,-0.36,6.09,-9.72,-2.74,4.54,1100,1100,1100,1100,1024,1501,1518,0,731
195899,0,2.30,-7.11,0.12,-0.015,-0.073,0.988,0.00,0.00,0.00,0.00,-2.30,7.11,-0.24,-0.35,6.09,-13.85,24.65,5.80,1100,1100,1100,1100,1024,1501,1518,0,731
195911,0,-3.29,-9.25,-0.70,-0.012,-0.057,1.016,0.00,0.00,0.00,0.00,3.29,9.25,-0.24,-0.34,6.09,15.47,25.91,7.85,1100,1100,1100,1100,1024,1501,1518,0,731
195923,0,-0.56,-8.04,0.93,-0.019,-0.084,1.000,0.00,0.00,0.00,0.00,0.56,8.04,-0.24,-0.32,6.46,1.77,9.06,52.74,1100,1100,1100,1100,1024,1498,1518,0,739
195935,0,-3.76,-6.56,-0.23,0.009,-0.078,1.007,0.00,0.00,0.00,0.00,3.76,6.56,-0.24,-0.31,7.05,8.90,-0.34,56.23,1100,1100,1100,1100,1024,1501,1518,0,739
195947,0,0.78,0.22,0.54,0.000,-0.040,1.006,0.00,0.00,0.00,0.00,-0.78,-0.22,-0.24,-0.30,7.02,-3.50,-23.51,5.66,1100,1100,1100,1100,1024,1501,1518,0,739
195959,0,2.35,-2.48,0.88,0.039,-0.083,0.980,0.00,0.00,0.00,0.00,-2.35,2.48,-0.24,-0.28,7.02,-14.20,-9.69,4.81,1100,1100,1100,1100,1024,1501,1518,0,739
195971,0,-2.93,-5.58,-0.23,0.071,-0.075,0.956,0.00,0.00,0.00,0.00,2.93,5.58,-0.24,-0.28,7.00,10.29,15.46,7.58,1100,1100,1100,1100,1024,1501,1518,0,739
195983,0,2.70,-4.74,1.59,0.087,-0.073,0.946,0.00,0.00,0.00,0.00,-2.70,4.74,-0.24,-0.27,6.99,-9.77,4.75,3.01,1100,1100,1100,1100,1023,1501,1519,0,739
195995,0,1.01,-0.49,-1.12,0.073,-0.094,0.980,0.00,0.00,0.00,0.00,-1.01,0.49,-0.23,-0.26,7.01,-8.47,-6.73,9.80,1100,1100,1100,1100,1025,1501,1518,0,739
196007,0,-2.88,1.54,-0.26,0.078,-0.072,0.965,0.00,0.00,0.00,0.00,2.88,-1.54,-0.24,-0.27,6.99,14.68,-6.55,7.63,1100,1100,1100,1100,1025,1501,1518,0,739
196019,0,0.19,3.98,0.40,0.052,-0.088,0.999,0.00,0.00,0.00,0.00,-0.19,-3.98,-0.24,-0.27,7.00,-0.63,-7.06,6.00,1100,1100,1100,1100,1024,1502,1517,0,731
196031,0,-3.13,1.78,-1.37,0.013,-0.061,0.998,0.00,0.00,0.00,0.00,3.13,-1.78,-0.23,-0.28,7.01,10.14,3.71,10.43,1100,1100,1100,1100,1024,1502,1517,0,731
196043,0,2.23,1.41,0.68,0.029,-0.059,1.043,0.00,0.00,0.00,0.00,-2.23,-1.41,-0.24,-0.29,7.01,-7.13,6.13,5.32,1100,1100,1100,1100,1023,1501,1519,0,731
196055,0,1.04,-1.81,-0.98,0.037,-0.074,1.005,0.00,0.00,0.00,0.00,-1.04,1.81,-0.23,-0.29,7.04,-7.19,9.22,9.48,1100,1100,1100,1100,1024,1502,1517,0,731
196067,0,-1.77,-1.13,0.11,0.032,-0.065,1.007,0.00,0.00,0.00,0.00,1.77,1.13,-0.24,-0.29,7.03,7.69,0.80,6.75,1100,1100,1100,1100,1024,1502,1517,0,731
196079,0,1.69,-0.80,0.77,0.052,-0.061,0.997,0.00,0.00,0.00,0.00,-1.69,0.80,-0.24,-0.28,7.04,-7.44,-5.49,5.11,1100,1100,1100,1100,1025,1502,1517,0,731
196091,0,2.08,0.97,-0.90,0.029,-0.047,0.971,0.00,0.00,0.00,0.00,-2.08,-0.97,-0.24,-0.28,7.04,-8.73,-10.06,9.30,1100,1100,1100,1100,1025,1502,1517,0,731
196103,0,-1.02,-3.20,0.19,0.068,-0.038,1.001,0.00,0.00,0.00,0.00,1.02,3.20,-0.24,-0.27,7.04,5.73,9.40,6.57,1100,1100,1100,1100,1024,1501,1518,0,731
196115,0,-3.41,-0.81,-0.56,0.055,-0.067,0.962,0.00,0.00,0.00,0.00,3.41,0.81,-0.24,-0.28,7.05,15.96,9.23,8.45,1100,1100,1100,1100,1025,1500,1518,0,731
196127,0,-0.90,2.38,-0.17,-0.003,-0.064,1.044,0.00,0.00,0.00,0.00,0.90,-2.38,-0.24,-0.28,7.04,1.62,-8.45,7.47,1100,1100,1100,1100,1025,1500,1518,0,731
196139,0,1.33,2.50,0.66,0.037,-0.063,1.023,0.00,0.00,0.00,0.00,-1.33,-2.50,-0.24,-0.29,6.29,-7.43,1.60,-110.00,1100,1100,1100,1100,1234,1501,1518,0,731
196151,0,3.52,5.43,0.13,0.047,-0.079,1.020,0.00,0.00,0.00,0.00,-3.52,-5.43,-0.24,-0.29,4.05,-15.27,-16.42,-110.00,1100,1100,1100,1100,1234,1501,1518,0,731
196163,0,-1.63,1.09,-0.03,0.052,-0.064,1.033,0.00,0.00,0.00,0.00,1.63,-1.09,-0.23,-0.30,3.30,3.92,0.26,3.37,1100,1100,1100,1100,1024,1501,1518,0,731
196175,0,-1.05,-1.42,0.00,0.048,-0.042,0.950,0.00,0.00,0.00,0.00,1.05,1.42,-0.23,-0.29,3.30,6.67,5.24,3.30,1100,1100,1100,1100,1024,1501,1518,0,731
196187,0,1.68,-5.59,-1.49,0.088,-0.074,0.950,0.00,0.00,0.00,0.00,-1.68,5.59,-0.23,-0.29,3.32,-8.28,19.90,7.04,1100,1100,1100,1100,1024,1501,1518,0,731
196199,0,-4.42,-4.25,-1.12,0.083,-0.046,0.936,0.00,0.00,0.00,0.00,4.42,4.25,-0.23,-0.28,3.33,18.19,10.81,6.12,1100,1100,1100,1100,1024,1501,1518,0,731
196211,0,0.29,-6.59,0.72,0.087,-0.078,0.898,0.00,0.00,0.00,0.00,-0.29,6.59,-0.24,-0.28,3.33,2.73,24.05,1.52,1100,1100,1100,1100,1024,1501,1518,0,731
196223,0,-1.31,-3.58,-0.99,0.084,-0.081,0.980,0.00,0.00,0.00,0.00,1.31,3.58,-0.23,-0.29,3.35,3.46,19.74,5.83,1100,1100,1100,1100,1024,1501,1518,0,732
196235,0,-5.49,-3.77,-0.43,0.053,-0.037,0.977,0.00,0.00,0.00,0.00,5.49,3.77,-0.23,-0.29,3.33,24.88,15.41,4.40,1100,1100,1100,1100,1024,1501,1518,0,732
196247,0,3.05,1.21,1.22,0.109,-0.037,0.989,0.00,0.00,0.00,0.00,-3.05,-1.21,-0.24,-0.27,3.32,-10.53,-20.67,0.27,1100,1100,1100,1100,1024,1501,1518,0,732
196259,0,1.53,12.31,-1.03,0.053,-0.054,1.040,0.00,0.00,0.00,0.00,-1.53,-12.31,-0.23,-0.28,3.34,-9.77,-52.28,5.92,1100,1100,1100,1100,1024,1501,1518,0,732
196271,0,1.13,11.03,0.25,-0.001,-0.046,1.058,0.00,0.00,0.00,0.00,-1.13,-11.03,-0.23,-0.29,3.33,-4.61,-28.36,2.69,1100,1100,1100,1100,1024,1501,1518,0,732
196283,0,3.76,4.61,1.34,0.029,-0.045,1.029,0.00,0.00,0.00,0.00,-3.76,-4.61,-0.24,-0.30,3.33,-14.32,-11.68,-0.03,1100,1100,1100,1100,1024,1501,1518,0,732
196295,0,6.47,6.86,-0.38,-0.076,-0.037,1.092,0.00,0.00,0.00,0.00,-6.47,-6.86,-0.24,-0.30,3.34,-26.58,-20.81,4.30,1100,1100,1100,1100,1024,1501,1518,0,732
196307,0,1.98,3.50,0.35,-0.031,-0.063,1.106,0.00,0.00,0.00,0.00,-1.98,-3.50,-0.23,-0.30,3.33,-10.78,-9.03,2.46,1100,1100,1100,1100,1024,1501,1518,0,732
196319,0,-2.52,-4.44,0.69,0.080,-0.048,1.006,0.00,0.00,0.00,0.00,2.52,4.44,-0.24,-0.29,3.32,15.11,9.66,1.60,1100,1100,1100,1100,1032,1501,1518,0,744
196331,0,4.89,-7.00,0.38,0.109,-0.088,0.953,0.00,0.00,0.00,0.00,-4.89,7.00,-0.24,-0.28,3.32,-15.90,15.08,2.39,1100,1100,1100,1100,1032,1501,1518,0,744
196343,0,-1.51,-1.18,0.26,0.094,-0.077,0.994,0.00,0.00,0.00,0.00,1.51,1.18,-0.23,-0.28,3.32,-0.44,-5.97,2.66,1100,1100,1100,1100,1022,1501,1520,0,744
196355,0,-2.14,-2.94,0.85,0.085,-0.006,0.948,0.00,0.00,0.00,0.00,2.14,2.94,-0.24,-0.27,3.32,12.65,1.72,1.20,1100,1100,1100,1100,1024,1501,1518,0,744
196367,0,7.15,2.18,-0.64,0.077,-0.069,1.015,0.00,0.00,0.00,0.00,-7.15,-2.18,-0.24,-0.28,3.33,-32.40,-11.27,4.94,1100,1100,1100,1100,1024,1501,1518,0,744
196379,0,-1.96,-0.32,-0.43,0.071,-0.037,0.977,0.00,0.00,0.00,0.00,1.96,0.32,-0.23,-0.27,3.33,3.11,-5.09,4.40,1100,1100,1100,1100,1024,1501,1518,0,744
196391,0,1.48,-6.80,0.24,0.149,-0.060,0.920,0.00,0.00,0.00,0.00,-1.48,6.80,-0.24,-0.26,3.34,1.05,15.82,2.73,1100,1100,1100,1100,1024,1501,1518,0,744
196403,0,1.17,0.97,-0.63,0.117,-0.073,0.961,0.00,0.00,0.00,0.00,-1.17,-0.97,-0.23,-0.26,3.34,-8.33,-7.43,4.93,1100,1100,1100,1100,1024,1501,1518,0,744
196415,0,-5.61,0.06,0.21,0.103,-0.014,0.924,0.00,0.00,0.00,0.00,5.61,-0.06,-0.24,-0.26,3.33,26.22,1.85,2.82,1100,1100,1100,1100,1025,1500,1518,0,744
196427,0,5.66,8.27,-0.06,0.063,-0.011,0.991,0.00,0.00,0.00,0.00,-5.66,-8.27,-0.24,-0.27,3.35,-18.55,-30.37,3.51,1100,1100,1100,1100,1025,1500,1518,0,732
196439,0,0.05,-3.25,-0.96,0.088,-0.027,0.936,0.00,0.00,0.00,0.00,-0.05,3.25,-0.24,-0.26,3.35,-4.18,11.37,5.76,1100,1100,1100,1100,1023,1501,1519,0,732
196451,0,-3.04,-0.05,0.06,0.096,-0.036,0.934,0.00,0.00,0.00,0.00,3.04,0.05,-0.24,-0.26,3.35,17.58,-3.47,3.20,1100,1100,1100,1100,1023,1501,1519,0,732
196463,0,-1.35,-4.61,-0.28,0.131,-0.077,0.940,0.00,0.00,0.00,0.00,1.35,4.61,-0.24,-0.26,3.36,4.01,12.71,4.06,1100,1100,1100,1100,1023,1501,1518,0,732
196475,0,-2.53,4.21,-0.42,0.055,-0.078,0.967,0.00,0.00,0.00,0.00,2.53,-4.21,-0.24,-0.26,3.36,5.38,-18.55,4.41,1100,1100,1100,1100,1024,1501,1518,0,732
196487,0,1.47,0.98,1.17,0.104,-0.048,0.938,0.00,0.00,0.00,0.00,-1.47,-0.98,-0.24,-0.26,3.36,-7.97,-0.60,0.42,1100,1100,1100,1100,1024,1501,1518,0,732
196499,0,3.92,-3.23,0.11,0.123,-0.077,0.960,0.00,0.00,0.00,0.00,-3.92,3.23,-0.24,-0.25,3.36,-17.33,0.66,3.10,1100,1100,1100,1100,1024,1501,1518,0,732
196511,0,0.04,-4.05,-0.32,0.143,-0.095,0.919,0.00,0.00,0.00,0.00,-0.04,4.05,-0.24,-0.24,3.36,-2.74,8.74,4.15,1100,1100,1100,1100,1024,1501,1518,0,732
196523,0,-1.25,-2.87,0.25,0.152,-0.077,0.936,0.00,0.00,0.00,0.00,1.25,2.87,-0.24,-0.24,3.36,8.70,6.54,2.74,1100,1100,1100,1100,1025,1501,1517,0,750
196535,0,1.55,3.83,-1.06,0.090,-0.093,0.984,0.00,0.00,0.00,0.00,-1.55,-3.83,-0.24,-0.25,3.37,-6.28,-11.88,6.03,1100,1100,1100,1100,1024,1501,1518,0,750
196547,0,-5.76,3.70,0.28,0.064,-0.056,0.987,0.00,0.00,0.00,0.00,5.76,-3.70,-0.23,-0.25,3.37,21.26,-11.87,2.68,1100,1100,1100,1100,1024,1501,1518,0,750
196559,0,0.85,0.89,-0.13,0.072,-0.041,1.011,0.00,0.00,0.00,0.00,-0.85,-0.89,-0.24,-0.26,3.38,0.65,3.40,3.70,1100,1100,1100,1100,1024,1501,1518,0,750
196571,0,0.77,-3.48,-0.44,0.048,-0.061,0.968,0.00,0.00,0.00,0.00,-0.77,3.48,-0.23,-0.25,3.37,-10.19,8.03,4.47,1100,1100,1100,1100,1024,1501,1518,0,750
196583,0,-2.23,-5.65,1.10,0.048,-0.004,0.996,0.00,0.00,0.00,0.00,2.23,5.65,-0.24,-0.24,3.37,9.64,17.74,0.62,1100,1100,1100,1100,1024,1501,1518,0,750
196595,0,5.78,-5.68,0.06,0.048,-0.051,0.966,0.00,0.00,0.00,0.00,-5.78,5.68,-0.24,-0.23,3.37,-24.77,1.58,3.23,1100,1100,1100,1100,1024,1501,1518,0,750
196607,0,-2.16,-6.37,0.66,0.080,-0.050,0.928,0.00,0.00,0.00,0.00,2.16,6.37,-0.23,-0.21,3.35,4.93,0.75,1.69,1100,1100,1100,1100,1024,1501,1518,0,750
196619,0,0.55,-5.13,-0.33,0.133,-0.046,0.912,0.00,0.00,0.00,0.00,-0.55,5.13,-0.24,-0.20,3.36,4.80,-4.09,4.17,1100,1100,1100,1100,1024,1501,1518,0,729
196631,0,-0.15,-4.80,-0.61,0.157,-0.080,0.859,0.00,0.00,0.00,0.00,0.15,4.80,-0.23,-0.18,3.35,-2.75,-2.78,4.86,1100,1100,1100,1100,1024,1501,1518,0,729
196643,0,-5.19,-2.25,0.66,0.132,-0.026,0.898,0.00,0.00,0.00,0.00,5.19,2.25,-0.23,-0.18,3.34,24.09,1.34,1.69,1100,1100,1100,1100,1024,1501,1518,0,729
196655,0,5.40,0.66,0.13,0.073,-0.058,0.937,0.00,0.00,0.00,0.00,-5.40,-0.66,-0.24,-0.18,3.34,-21.09,-1.28,3.01,1100,1100,1100,1100,1024,1501,1518,0,729
196667,0,-0.55,1.54,0.03,0.008,-0.061,1.041,0.00,0.00,0.00,0.00,0.55,-1.54,-0.24,-0.19,3.34,-1.67,6.27,3.28,1100,1100,1100,1100,1024,1501,1518,0,729
196679,0,1.80,11.04,-0.51,-0.019,-0.002,1.092,0.00,0.00,0.00,0.00,-1.80,-11.04,-0.24,-0.20,3.36,-1.43,-34.49,4.64,1100,1100,1100,1100,1024,1501,1518,0,729
196691,0,1.49,8.20,-0.06,-0.011,-0.047,1.039,0.00,0.00,0.00,0.00,-1.49,-8.20,-0.24,-0.21,3.36,-9.99,-19.24,3.51,1100,1100,1100,1100,1024,1501,1518,0,729
196703,0,-3.79,6.13,-0.61,-0.026,-0.007,1.046,0.00,0.00,0.00,0.00,3.79,-6.13,-0.24,-0.23,3.38,16.32,-1.99,4.91,1100,1100,1100,1100,1024,1501,1518,0,729
196715,0,1.70,-9.92,-0.40,0.035,-0.046,0.965,0.00,0.00,0.00,0.00,-1.70,9.92,-0.24,-0.22,3.39,-5.07,43.34,4.38,1100,1100,1100,1100,1024,1501,1518,0,729
196727,0,-2.16,-6.10,-0.66,0.036,-0.035,1.013,0.00,0.00,0.00,0.00,2.16,6.10,-0.24,-0.22,3.40,5.61,27.10,5.05,1100,1100,1100,1100,1024,1501,1518,0,744
196739,0,-1.27,1.71,-0.33,0.031,0.031,0.992,0.00,0.00,0.00,0.00,1.27,-1.71,-0.24,-0.21,3.41,7.84,-21.90,4.24,1100,1100,1100,1100,1025,1510,1508,0,744
196751,0,4.77,1.69,0.24,0.081,-0.028,0.965,0.00,0.00,0.00,0.00,-4.77,-1.69,-0.24,-0.22,3.42,-18.80,-9.13,2.81,1100,1100,1100,1100,1025,1510,1508,0,744
196763,0,-0.23,5.35,-0.95,0.048,-0.022,1.010,0.00,0.00,0.00,0.00,0.23,-5.35,-0.24,-0.22,3.44,0.42,-20.87,5.80,1100,1100,1100,1100,1023,1501,1519,0,744
196775,0,-0.28,-4.38,0.36,0.130,-0.049,0.942,0.00,0.00,0.00,0.00,0.28,4.38,-0.24,-0.22,3.44,5.77,17.61,2.53,1100,1100,1100,1100,1024,1501,1518,0,744
196787,0,-0.25,0.97,-0.42,0.087,-0.062,0.986,0.00,0.00,0.00,0.00,0.25,-0.97,-0.24,-0.22,3.46,-0.54,3.54,4.50,1100,1100,1100,1100,1024,1501,1518,0,744
196799,0,-3.11,2.89,-0.70,0.063,-0.027,0.969,0.00,0.00,0.00,0.00,3.11,-2.89,-0.24,-0.22,3.45,12.23,-9.94,5.20,1100,1100,1100,1100,1024,1502,1518,0,744
196811,0,2.49,2.87,0.29,0.040,-0.053,1.040,0.00,0.00,0.00,0.00,-2.49,-2.87,-0.24,-0.23,3.47,-9.64,-1.45,2.73,1100,1100,1100,1100,1024,1502,1518,0,744
196823,0,-1.24,1.67,-1.12,0.019,-0.048,1.052,0.00,0.00,0.00,0.00,1.24,-1.67,-0.24,-0.24,3.48,1.70,6.07,6.28,1100,1100,1100,1100,1025,1501,1518,0,732
196835,0,0.02,3.05,1.20,0.018,-0.007,1.063,0.00,0.00,0.00,0.00,-0.02,-3.05,-0.24,-0.24,3.47,2.08,-7.83,0.48,1100,1100,1100,1100,1024,1501,1518,0,732
196847,0,2.44,1.37,-0.46,0.032,-0.036,1.046,0.00,0.00,0.00,0.00,-2.44,-1.37,-0.24,-0.24,3.49,-12.71,-5.15,4.65,1100,1100,1100,1100,1024,1501,1518,0,732
196859,0,-2.45,6.91,-0.61,0.021,-0.026,1.017,0.00,0.00,0.00,0.00,2.45,-6.91,-0.24,-0.25,3.48,10.76,-20.66,5.02,1100,1100,1100,1100,1024,1501,1518,0,732
196871,0,0.99,-4.51,0.39,0.065,-0.049,0.997,0.00,0.00,0.00,0.00,-0.99,4.51,-0.24,-0.24,3.49,-1.79,16.33,2.51,1100,1100,1100,1100,1024,1501,1518,0,732
196883,0,-1.20,-5.99,-1.29,0.044,-0.051,0.961,0.00,0.00,0.00,0.00,1.20,5.99,-0.24,-0.24,3.50,2.18,27.09,6.72,1100,1100,1100,1100,1024,1501,1518,0,732
196895,0,-0.13,2.20,0.63,0.012,0.001,1.032,0.00,0.00,0.00,0.00,0.13,-2.20,-0.24,-0.25,3.49,3.07,-11.23,1.93,1100,1100,1100,1100,1024,1501,1518,0,732
196907,0,3.86,3.42,-0.04,0.020,-0.035,1.037,0.00,0.00,0.00,0.00,-3.86,-3.42,-0.24,-0.25,3.51,-16.57,-11.41,3.61,1100,1100,1100,1100,1024,1501,1518,0,732
196919,0,-0.87,7.20,-0.10,-0.007,-0.056,1.027,0.00,0.00,0.00,4.20,0.87,-3.00,-0.24,-0.25,3.50,1.98,-25.45,3.75,1100,1100,1100,1100,1021,1500,1521,0,821
196931,0,-0.71,1.67,0.25,0.026,-0.054,1.067,0.00,0.00,0.00,4.20,0.71,2.53,-0.24,-0.24,3.51,4.84,6.05,2.90,1100,1100,1100,1100,1021,1500,1521,0,821
196943,0,-0.84,2.82,-1.14,0.014,-0.074,1.012,0.00,0.00,0.00,0.00,0.84,-2.82,-0.24,-0.25,3.52,0.60,4.48,6.38,1100,1100,1100,1100,1024,1500,1518,0,821
196955,0,-1.17,2.73,0.11,0.022,-0.049,1.038,0.00,0.00,0.00,0.00,1.17,-2.73,-0.24,-0.26,3.52,4.52,-0.53,3.25,1100,1100,1100,1100,1024,1501,1517,0,821
196967,0,3.07,-1.57,-0.01,0.046,-0.049,0.994,0.00,0.00,0.00,0.00,-3.07,1.57,-0.24,-0.26,3.53,-12.16,12.94,3.57,1100,1100,1100,1100,1024,1501,1517,0,821
196979,0,1.17,0.24,-0.26,0.013,-0.077,1.018,0.00,0.00,0.00,0.00,-1.17,-0.24,-0.24,-0.27,3.53,-6.15,12.64,4.19,1100,1100,1100,1100,1024,1501,1517,0,821
196991,0,-3.34,3.40,-0.51,0.020,-0.035,1.088,0.00,0.00,0.00,0.00,3.34,-3.40,-0.24,-0.28,3.54,15.58,-4.58,4.83,1100,1100,1100,1100,1024,1501,1517,0,821
197003,0,0.86,9.05,-0.42,0.011,-0.046,1.034,0.00,0.00,0.00,0.00,-0.86,-9.05,-0.24,-0.30,3.55,-2.21,-19.53,4.60,1100,1100,1100,1100,1025,1502,1517,0,821
197015,0,-0.59,13.12,-0.55,-0.000,-0.028,1.094,0.00,0.00,0.00,0.00,0.59,-13.12,-0.24,-0.31,3.56,-1.48,-34.09,4.93,1100,1100,1100,1100,1024,1502,1517,0,821
197027,0,0.97,1.98,0.04,0.014,-0.021,1.015,0.00,0.00,0.00,0.00,-0.97,-1.98,-0.24,-0.32,3.57,-1.32,16.40,3.46,1100,1100,1100,1100,1024,1502,1517,0,731
197039,0,2.31,3.63,-0.34,-0.056,-0.031,1.074,0.00,0.00,0.00,0.00,-2.31,-3.63,-0.24,-0.34,3.59,-11.75,9.92,4.43,1100,1100,1100,1100,1025,1501,1518,0,731
197051,0,-3.02,4.55,-0.80,-0.083,0.009,1.092,0.00,0.00,0.00,0.00,3.02,-4.55,-0.24,-0.35,3.59,13.85,-0.16,5.60,1100,1100,1100,1100,1025,1501,1518,0,731
197063,0,3.11,10.09,0.11,-0.139,-0.020,1.119,0.00,0.00,0.00,0.00,-3.11,-10.09,-0.24,-0.37,3.61,-9.42,-17.53,3.34,1100,1100,1100,1100,1024,1501,1518,0,731
197075,0,-1.99,8.24,-0.76,-0.167,-0.041,1.156,0.00,0.00,0.00,0.00,1.99,-8.24,-0.24,-0.38,3.62,5.09,-11.36,5.51,1100,1100,1100,1100,1024,1501,1518,0,731
197087,0,-1.00,5.18,0.14,-0.137,-0.024,1.150,0.00,0.00,0.00,0.00,1.00,-5.18,-0.24,-0.40,3.62,8.11,4.54,3.27,1100,1100,1100,1100,1024,1501,1518,0,731
197099,0,2.59,4.99,-0.19,-0.134,-0.061,1.134,0.00,0.00,0.00,0.00,-2.59,-4.99,-0.24,-0.41,3.64,-14.60,0.31,4.11,1100,1100,1100,1100,1024,1501,1518,0,731
197111,0,-2.96,1.96,-0.79,-0.103,-0.041,1.126,0.00,0.00,0.00,0.00,2.96,-1.96,-0.24,-0.42,3.64,10.51,7.40,5.61,1100,1100,1100,1100,1024,1501,1518,0,731
197123,0,2.83,-1.38,0.68,-0.052,-0.077,1.096,0.00,0.00,0.00,0.00,-2.83,1.38,-0.24,-0.42,3.64,-10.33,14.57,1.94,1100,1100,1100,1100,1024,1501,1518,0,745
197135,0,-3.40,-2.88,-0.62,-0.006,-0.095,1.104,0.00,0.00,0.00,0.00,3.40,2.88,-0.24,-0.42,3.65,7.44,8.92,5.20,1100,1100,1100,1100,1028,1497,1519,0,745
197147,0,-2.07,0.79,0.36,0.040,-0.026,1.076,0.00,0.00,0.00,0.00,2.07,-0.79,-0.24,-0.41,3.64,10.72,-17.00,2.74,1100,1100,1100,1100,1028,1497,1519,0,745
197159,0,3.22,-3.28,0.00,0.141,-0.087,0.977,0.00,0.00,0.00,0.00,-3.22,3.28,-0.24,-0.40,3.65,-18.36,-5.50,3.65,1100,1100,1100,1100,1023,1501,1519,0,745
197171,0,-3.27,-9.19,-0.36,0.195,-0.040,0.905,0.00,0.00,0.00,0.00,3.27,9.19,-0.23,-0.39,3.64,11.32,21.02,4.53,1100,1100,1100,1100,1023,1501,1519,0,745
197183,0,3.12,-11.80,0.96,0.206,-0.066,0.890,0.00,0.00,0.00,0.00,-3.12,11.80,-0.24,-0.37,3.63,-8.50,24.33,1.22,1100,1100,1100,1100,1023,1499,1519,0,745
197195,0,-1.50,-7.17,-0.75,0.203,-0.068,0.908,0.00,0.00,0.00,0.00,1.50,7.17,-0.23,-0.36,3.64,1.53,6.14,5.52,1100,1100,1100,1100,1024,1499,1519,0,745
197207,0,-1.40,4.02,0.15,0.190,-0.020,0.912,0.00,0.00,0.00,0.00,1.40,-4.02,-0.24,-0.35,3.63,10.10,-34.95,3.25,1100,1100,1100,1100,1024,1499,1519,0,745
197219,0,4.33,1.15,0.36,0.246,-0.068,0.867,0.00,0.00,0.00,0.00,-4.33,-1.15,-0.24,-0.34,3.64,-18.93,-16.42,2.73,1100,1100,1100,1100,1024,1500,1518,0,728
197231,0,-2.17,-2.54,-0.37,0.222,-0.036,0.848,0.00,0.00,0.00,0.00,2.17,2.54,-0.24,-0.34,3.63,9.04,4.06,4.56,1100,1100,1100,1100,1024,1500,1518,0,728
197243,0,1.77,-3.93,0.52,0.200,-0.059,0.908,0.00,0.00,0.00,0.00,-1.77,3.93,-0.24,-0.33,3.63,-4.19,10.45,2.33,1100,1100,1100,1100,1024,1500,1518,0,728
197255,0,-1.74,-0.25,-0.82,0.158,-0.067,0.924,0.00,0.00,0.00,0.00,1.74,0.25,-0.24,-0.34,3.64,3.36,1.43,5.68,1100,1100,1100,1100,1024,1500,1518,0,728
197267,0,-0.18,3.71,-0.09,0.121,-0.057,0.948,0.00,0.00,0.00,0.00,0.18,-3.71,-0.24,-0.34,3.64,3.85,-11.35,3.86,1100,1100,1100,1100,1024,1500,1518,0,728
197279,0,2.33,-0.30,0.35,0.108,-0.072,0.958,0.00,0.00,0.00,0.00,-2.33,0.30,-0.24,-0.34,3.64,-11.57,4.61,2.77,1100,1100,1100,1100,1024,1500,1518,0,728
197291,0,-2.51,-0.63,-0.22,0.051,-0.050,0.988,0.00,0.00,0.00,0.00,2.51,0.63,-0.24,-0.34,3.64,10.84,5.11,4.20,1100,1100,1100,1100,1024,1500,1518,0,728
197303,0,1.87,0.53,0.64,0.071,-0.020,1.015,0.00,0.00,0.00,0.00,-1.87,-0.53,-0.24,-0.34,3.63,-6.13,-8.81,2.03,1100,1100,1100,1100,1024,1500,1518,0,728
197315,0,0.37,-4.36,0.07,0.126,-0.034,0.906,0.00,0.00,0.00,0.00,-0.37,4.36,-0.24,-0.33,3.64,-3.33,9.87,3.46,1100,1100,1100,1100,1024,1500,1518,0,728
197327,0,-0.33,-5.29,-0.24,0.157,-0.032,0.896,0.00,0.00,0.00,0.00,0.33,5.29,-0.24,-0.32,3.63,2.55,7.02,4.22,1100,1100,1100,1100,1024,1500,1518,0,728
197339,0,-0.50,-7.55,0.57,0.177,-0.064,0.881,0.00,0.00,9.00,-5.60,9.50,1.95,-0.23,-0.32,3.62,6.08,9.54,2.21,1100,1100,1100,1100,1024,1545,1472,0,728
197351,0,-0.83,-7.13,-0.19,0.175,-0.084,0.852,0.00,0.00,9.00,-5.60,9.83,1.53,-0.20,-0.32,3.62,6.97,10.23,4.08,1100,1100,1100,1100,1024,1545,1472,0,728
197363,0,1.03,-2.68,0.92,0.232,-0.042,0.866,0.00,0.00,0.00,0.00,-1.03,2.68,-0.21,-0.30,3.60,-3.93,-15.34,1.31,1100,1100,1100,1100,1024,1500,1518,0,728
197375,0,2.14,-5.11,0.32,0.259,-0.062,0.827,0.00,0.00,0.00,0.00,-2.14,5.11,-0.21,-0.29,3.60,-7.01,-1.97,2.80,1100,1100,1100,1100,1024,1500,1518,0,728
197387,0,-0.47,0.19,-0.55,0.256,-0.062,0.849,0.00,0.00,0.00,0.00,0.47,-0.19,-0.21,-0.28,3.60,1.70,-17.09,4.98,1100,1100,1100,1100,1024,1500,1518,0,728
197399,0,-1.09,-7.01,0.75,0.289,-0.062,0.833,0.00,0.00,0.00,0.00,1.09,7.01,-0.21,-0.27,3.59,7.27,17.47,1.72,1100,1100,1100,1100,1024,1501,1517,0,728
197411,0,2.52,0.48,-1.01,0.196,-0.069,0.867,0.00,0.00,0.00,0.00,-2.52,-0.48,-0.21,-0.27,3.61,-11.29,-3.69,6.13,1100,1100,1100,1100,1024,1501,1517,0,728
197423,0,-1.99,0.04,-0.44,0.157,-0.044,0.930,0.00,0.00,0.00,0.00,1.99,-0.04,-0.21,-0.27,3.61,7.30,2.10,4.69,1100,1100,1100,1100,1024,1501,1518,0,729
197435,0,1.17,9.13,0.03,0.067,-0.037,1.008,0.00,0.00,0.00,0.00,-1.17,-9.13,-0.21,-0.29,3.63,-2.67,-20.87,3.55,1100,1100,1100,1100,1024,1501,1518,0,729
197447,0,-1.83,8.59,-0.66,0.005,-0.029,1.039,0.00,0.00,0.00,0.00,1.83,-8.59,-0.20,-0.30,3.63,2.05,-22.01,5.29,1100,1100,1100,1100,1024,1501,1518,0,729
197459,0,-0.96,2.65,0.54,0.016,0.014,1.048,0.00,0.00,0.00,0.00,0.96,-2.65,-0.21,-0.31,3.64,5.10,7.58,2.29,1100,1100,1100,1100,1024,1501,1518,0,729
197471,0,3.54,-0.91,-0.65,-0.014,-0.017,1.011,0.00,0.00,0.00,0.00,-3.54,0.91,-0.21,-0.31,3.66,-17.84,15.25,5.28,1100,1100,1100,1100,1024,1501,1518,0,729
197483,0,-3.27,-5.81,-0.56,-0.025,-0.014,1.030,0.00,0.00,0.00,0.00,3.27,5.81,-0.20,-0.31,3.66,11.16,26.07,5.07,1100,1100,1100,1100,1024,1501,1518,0,729
197495,0,2.60,-2.62,0.10,-0.051,-0.025,1.069,0.00,0.00,0.00,0.00,-2.60,2.62,-0.21,-0.31,3.66,-7.69,1.46,3.41,1100,1100,1100,1100,1023,1500,1519,0,729
197507,0,-1.51,-1.43,-0.15,-0.039,-0.050,1.027,0.00,0.00,0.00,0.00,1.51,1.43,-0.20,-0.30,3.66,1.16,-13.88,4.03,1100,1100,1100,1100,1023,1500,1519,0,729
197519,0,-3.10,-4.33,1.17,0.040,-0.010,0.992,0.00,0.00,0.00,0.00,3.10,4.33,-0.20,-0.28,3.64,16.27,-5.57,0.72,1100,1100,1100,1100,1024,1501,1517,0,731
197531,0,3.27,-9.83,0.48,0.100,-0.063,0.885,0.00,0.00,0.00,0.00,-3.27,9.83,-0.20,-0.26,3.64,-15.85,14.80,2.43,1100,1100,1100,1100,1024,1501,1517,0,731
197543,0,-3.20,-13.04,-0.27,0.108,-0.040,0.928,0.00,0.00,0.00,0.00,3.20,13.04,-0.20,-0.24,3.62,9.49,26.47,4.31,1100,1100,1100,1100,1024,1497,1518,0,731
197555,0,2.91,-8.84,0.51,0.134,-0.057,0.921,0.00,0.00,0.00,0.00,-2.91,8.84,-0.20,-0.22,3.61,-9.20,5.61,2.32,1100,1100,1100,1100,1026,1501,1517,0,731
197567,0,-0.27,0.15,0.04,0.131,-0.079,0.928,0.00,0.00,0.00,0.00,0.27,-0.15,-0.20,-0.21,3.60,-4.69,-26.60,3.50,1100,1100,1100,1100,1026,1501,1517,0,731
197579,0,-2.53,-0.42,0.15,0.157,-0.040,0.910,0.00,0.00,0.00,0.00,2.53,0.42,-0.20,-0.20,3.59,14.05,-11.19,3.22,1100,1100,1100,1100,1024,1501,1518,0,731
197591,0,2.84,-0.32,0.06,0.148,-0.063,0.898,0.00,0.00,0.00,0.00,-2.84,0.32,-0.20,-0.20,3.60,-12.73,-2.52,3.45,1100,1100,1100,1100,1024,1501,1518,0,731
197603,0,-3.67,-6.17,-0.44,0.144,-0.053,0.904,0.00,0.00,0.00,0.00,3.67,6.17,-0.20,-0.20,3.60,14.67,23.19,4.71,1100,1100,1100,1100,1024,1501,1518,0,731
197615,0,1.15,-1.52,0.21,0.119,-0.015,0.949,0.00,0.00,0.00,0.00,-1.15,1.52,-0.20,-0.19,3.59,-0.75,-1.10,3.06,1100,1100,1100,1100,1024,1501,1518,0,731
197627,0,0.46,-8.14,0.55,0.180,-0.055,0.843,0.00,0.00,0.00,0.00,-0.46,8.14,-0.20,-0.18,3.59,-6.41,16.26,2.22,1100,1100,1100,1100,1024,1501,1518,0,732
197639,0,0.32,-8.26,-0.39,0.174,-0.017,0.886,0.00,0.00,0.00,0.00,-0.32,8.26,-0.20,-0.16,3.58,-0.41,5.18,4.57,1100,1100,1100,1100,1025,1501,1518,0,732
197651,0,1.74,-12.67,0.69,0.221,-0.067,0.790,0.00,0.00,0.00,0.00,-1.74,12.67,-0.20,-0.13,3.57,-8.19,13.90,1.84,1100,1100,1100,1100,1025,1501,1518,0,732
197663,0,-1.67,-2.57,-0.22,0.178,-0.043,0.863,0.00,0.00,0.00,0.00,1.67,2.57,-0.20,-0.12,3.58,5.83,-18.54,4.13,1100,1100,1100,1100,1024,1500,1518,0,732
197675,0,-1.56,-7.99,0.27,0.186,-0.036,0.811,0.00,0.00,0.00,0.00,1.56,7.99,-0.20,-0.09,3.56,6.82,-0.17,2.88,1100,1100,1100,1100,1024,1500,1518,0,732
197687,0,0.79,-6.42,0.31,0.170,-0.072,0.856,0.00,0.00,0.00,0.00,-0.79,6.42,-0.20,-0.09,3.57,-4.24,13.65,2.79,1100,1100,1100,1100,1024,1500,1518,0,732
197699,0,-0.17,-1.75,-1.44,0.081,-0.038,0.957,0.00,0.00,0.00,0.00,0.17,1.75,-0.20,-0.08,3.58,-0.96,-8.42,7.17,1100,1100,1100,1100,1024,1500,1518,0,732
197711,0,1.17,-0.77,1.37,0.127,-0.046,0.928,0.00,0.00,0.00,0.00,-1.17,0.77,-0.20,-0.08,3.56,-3.87,-1.98,0.14,1100,1100,1100,1100,1024,1500,1518,0,732
197723,0,0.87,4.48,-0.27,0.079,-0.062,0.982,0.00,0.00,0.00,0.00,-0.87,-4.48,-0.20,-0.08,3.58,-5.01,-21.71,4.25,1100,1100,1100,1100,1024,1500,1518,0,731
197735,0,-1.17,0.68,-0.26,0.071,-0.054,0.948,0.00,0.00,0.00,0.00,1.17,-0.68,-0.20,-0.08,3.57,5.18,0.87,4.22,1100,1100,1100,1100,1024,1500,1518,0,731
197747,0,0.68,4.08,0.26,0.022,-0.047,1.026,0.00,0.00,0.00,0.00,-0.68,-4.08,-0.20,-0.09,3.58,-2.73,-8.11,2.94,1100,1100,1100,1100,1024,1500,1518,0,731
197759,0,-1.17,0.26,-1.52,-0.006,-0.037,1.027,0.00,0.00,0.00,0.00,1.17,-0.26,-0.20,-0.09,3.59,2.68,7.71,7.40,1100,1100,1100,1100,1024,1500,1518,0,731
197771,0,-1.32,-0.48,0.97,-0.014,-0.007,1.048,0.00,0.00,0.00,0.00,1.32,0.48,-0.20,-0.09,3.58,4.72,2.68,1.16,1100,1100,1100,1100,1024,1500,1518,0,731
197783,0,0.15,-4.11,-0.30,0.000,-0.037,1.010,0.00,0.00,0.00,0.00,-0.15,4.11,-0.20,-0.09,3.60,-2.36,11.17,4.36,1100,1100,1100,1100,1024,1500,1518,0,731
197795,0,-0.89,-1.69,-0.06,-0.010,-0.048,1.025,0.00,0.00,0.00,0.00,0.89,1.69,-0.20,-0.08,3.59,1.08,-0.99,3.73,1100,1100,1100,1100,1025,1500,1518,0,731
197807,0,0.43,-4.19,0.66,0.041,-0.056,1.015,0.00,0.00,0.00,0.00,-0.43,4.19,-0.20,-0.08,3.59,-1.38,8.86,1.95,1100,1100,1100,1100,1025,1500,1518,0,731
197819,0,1.38,3.00,-0.88,0.034,-0.057,0.992,0.00,0.00,0.00,0.00,-1.38,-3.00,-0.20,-0.07,3.59,-6.24,-19.36,5.79,1100,1100,1100,1100,1025,1500,1518,0,735
197831,0,-2.63,-2.07,0.90,0.071,-0.037,0.976,0.00,0.00,0.00,0.00,2.63,2.07,-0.20,-0.07,3.58,11.08,-0.91,1.33,1100,1100,1100,1100,1025,1500,1518,0,735
197843,0,-0.36,-5.10,-0.05,0.079,-0.048,0.934,0.00,0.00,0.00,0.00,0.36,5.10,-0.20,-0.06,3.59,1.88,15.63,3.71,1100,1100,1100,1100,1025,1500,1518,0,735
197855,0,0.29,-5.72,-0.39,0.050,-0.046,0.980,0.00,0.00,0.00,0.00,-0.29,5.72,-0.19,-0.05,3.58,-4.35,14.08,4.54,1100,1100,1100,1100,1025,1499,1518,0,735
197867,0,0.24,-2.62,0.33,0.054,-0.042,1.030,0.00,0.00,0.00,0.00,-0.24,2.62,-0.20,-0.05,3.58,-1.17,1.21,2.75,1100,1100,1100,1100,1025,1499,1518,0,735
197879,0,0.11,1.34,-0.09,0.060,-0.088,0.966,0.00,0.00,0.00,0.00,-0.11,-1.34,-0.19,-0.04,3.58,-2.13,-18.78,3.81,1100,1100,1100,1100,1025,1500,1518,0,735
197891,0,-1.56,-0.50,0.81,0.052,-0.079,1.017,0.00,0.00,0.00,0.00,1.56,0.50,-0.19,-0.04,3.57,4.20,-3.68,1.54,1100,1100,1100,1100,1025,1500,1518,0,735
197903,0,1.47,-4.60,0.11,0.041,-0.054,0.952,0.00,0.00,0.00,0.00,-1.47,4.60,-0.19,-0.03,3.57,-6.76,7.35,3.30,1100,1100,1100,1100,1025,1500,1517,0,735
197915,0,0.44,-8.43,-0.48,0.044,-0.064,0.985,0.00,0.00,0.00,0.00,-0.44,8.43,-0.19,-0.02,3.57,-4.04,19.79,4.77,1100,1100,1100,1100,1025,1500,1518,0,735
197927,0,-2.74,-2.02,-0.16,0.013,-0.020,1.032,0.00,0.00,0.00,0.00,2.74,2.02,-0.19,-0.01,3.56,11.71,-5.43,3.97,1100,1100,1100,1100,1025,1500,1518,0,757
197939,0,-1.25,-2.93,0.78,-0.010,-0.053,0.959,0.00,0.00,0.00,0.00,1.25,2.93,-0.19,-0.00,3.56,4.51,1.42,1.62,1100,1100,1100,1100,1028,1500,1518,0,757
197951,0,-0.93,-2.53,-0.49,-0.003,-0.045,1.059,0.00,0.00,0.00,0.00,0.93,2.53,-0.19,-0.00,3.57,0.45,6.16,4.79,1100,1100,1100,1100,1028,1500,1518,0,757
197963,0,3.16,7.27,-0.05,-0.051,-0.026,1.039,0.00,0.00,0.00,0.00,-3.16,-7.27,-0.19,-0.01,3.56,-11.98,-30.23,3.70,1100,1100,1100,1100,1025,1500,1518,0,757
197975,0,2.78,4.41,-0.06,-0.049,-0.049,1.057,0.00,0.00,0.00,0.00,-2.78,-4.41,-0.19,-0.01,3.57,-13.30,-16.73,3.71,1100,1100,1100,1100,1025,1500,1518,0,757
197987,0,-2.47,2.28,-0.31,-0.075,-0.041,1.052,0.00,0.00,0.00,0.00,2.47,-2.28,-0.19,-0.02,3.57,11.80,14.34,4.35,1100,1100,1100,1100,1025,1500,1518,0,757
197999,0,0.16,2.46,0.84,-0.136,-0.046,1.079,0.00,0.00,0.00,0.00,-0.16,-2.46,-0.19,-0.03,3.57,1.36,1.94,1.48,1100,1100,1100,1100,1026,1500,1518,0,757
198011,0,-2.39,-5.44,-1.49,-0.100,-0.071,1.144,0.00,0.00,0.00,0.00,2.39,5.44,-0.19,-0.04,3.59,6.67,33.91,7.31,1100,1100,1100,1100,1026,1500,1518,0,757
198023,0,0.78,13.65,-0.01,-0.109,-0.039,1.132,0.00,0.00,0.00,0.00,-0.78,-13.65,-0.19,-0.05,3.57,-1.93,-44.01,3.61,1100,1100,1100,1100,1026,1500,1518,0,731
198035,0,2.00,3.70,0.35,-0.016,-0.063,1.063,0.00,0.00,0.00,0.00,-2.00,-3.70,-0.19,-0.05,3.59,-10.93,-9.96,2.71,1100,1100,1100,1100,1026,1500,1518,0,731
198047,0,-1.46,-0.85,-0.25,-0.012,-0.053,1.038,0.00,0.00,0.00,0.00,1.46,0.85,-0.19,-0.06,3.58,5.02,16.20,4.21,1100,1100,1100,1100,1026,1500,1518,0,731
198059,0,1.28,-4.28,0.94,0.021,-0.058,1.008,0.00,0.00,0.00,0.00,-1.28,4.28,-0.19,-0.06,3.59,-4.55,21.51,1.24,1100,1100,1100,1100,1026,1500,1518,0,731
198071,0,0.43,3.81,-1.73,0.011,-0.055,1.076,0.00,0.00,0.00,0.00,-0.43,-3.81,-0.19,-0.06,3.60,-3.82,-10.37,7.92,1100,1100,1100,1100,1026,1500,1518,0,731
198083,0,-2.11,7.45,0.22,0.021,-0.047,1.022,0.00,0.00,0.00,0.00,2.11,-7.45,-0.19,-0.07,3.59,9.75,-19.54,3.05,1100,1100,1100,1100,1027,1500,1518,0,731
198095,0,0.23,6.61,-0.16,0.036,-0.062,1.037,0.00,0.00,0.00,0.00,-0.23,-6.61,-0.19,-0.09,3.62,-0.31,-8.07,4.02,1100,1100,1100,1100,1035,1500,1518,0,731
198107,0,-1.00,1.56,-0.96,-0.012,-0.050,1.047,0.00,0.00,0.00,0.00,1.00,-1.56,-0.19,-0.09,3.62,2.79,8.65,6.03,1100,1100,1100,1100,1035,1500,1518,0,731
198119,0,2.13,2.58,0.48,-0.012,-0.041,1.068,0.00,0.00,0.00,0.00,-2.13,-2.58,-0.19,-0.11,3.63,-7.53,9.07,2.42,1100,1100,1100,1100,1035,1500,1518,0,728
198131,0,0.84,4.87,-1.39,-0.040,-0.048,1.107,0.00,0.00,0.00,0.00,-0.84,-4.87,-0.19,-0.12,3.65,-4.00,-8.17,7.13,1100,1100,1100,1100,1035,1500,1518,0,728
198143,0,-0.89,5.79,0.44,-0.063,-0.056,1.079,0.00,0.00,0.00,0.00,0.89,-5.79,-0.19,-0.12,3.64,4.07,-11.14,2.55,1100,1100,1100,1100,1037,1500,1518,0,728
198155,0,-0.52,1.08,0.42,-0.035,-0.050,1.043,0.00,0.00,0.00,4.40,0.52,3.32,-0.19,-0.12,3.66,1.51,3.51,2.62,1100,1100,1100,1100,1033,1501,1522,0,728
198167,0,1.02,-4.55,-0.89,-0.031,-0.059,1.033,0.00,0.00,0.00,4.40,-1.02,8.95,-0.19,-0.11,3.66,-4.10,20.97,5.89,1100,1100,1100,1100,1033,1501,1522,0,728
198179,0,-1.22,-4.98,0.49,0.005,-0.040,1.032,0.00,0.00,0.00,0.00,1.22,4.98,-0.19,-0.10,3.66,2.96,8.45,2.44,1100,1100,1100,1100,1038,1500,1518,0,728
198191,0,-2.09,-2.83,-0.47,0.025,-0.062,1.003,0.00,0.00,0.00,0.00,2.09,2.83,-0.19,-0.09,3.65,9.71,4.37,4.84,1100,1100,1100,1100,1038,1500,1518,0,728
198203,0,1.02,4.59,0.67,-0.008,-0.064,1.049,0.00,0.00,0.00,0.00,-1.02,-4.59,-0.19,-0.09,3.64,-7.20,-26.59,1.96,1100,1100,1100,1100,1050,1500,1518,0,728
198215,0,0.17,-0.21,0.68,0.076,-0.068,0.974,0.00,0.00,0.00,0.00,-0.17,0.21,-0.19,-0.09,3.64,-2.25,0.53,1.95,1100,1100,1100,1100,1050,1500,1519,0,728
198227,0,3.99,5.61,-0.59,0.027,-0.074,1.032,0.00,0.00,0.00,0.00,-3.99,-5.61,-0.19,-0.10,3.65,-15.45,-16.00,5.13,1100,1100,1100,1100,1050,1500,1519,0,731
198239,0,-0.56,2.10,-0.15,0.033,-0.067,1.021,0.00,0.00,0.00,0.00,0.56,-2.10,-0.19,-0.11,3.65,1.02,4.11,4.01,1100,1100,1100,1100,1050,1500,1519,0,731
198251,0,-4.00,-7.52,-0.01,0.039,-0.050,0.965,0.00,0.00,0.00,0.00,4.00,7.52,-0.19,-0.10,3.65,20.47,32.37,3.68,1100,1100,1100,1100,1050,1500,1519,0,731
198263,0,1.26,-2.12,-0.51,0.026,-0.080,1.020,0.00,0.00,0.00,0.00,-1.26,2.12,-0.19,-0.10,3.65,-6.45,10.83,4.93,1100,1100,1100,1100,1055,1500,1517,0,731
198275,0,-3.08,-2.21,0.47,0.060,-0.051,0.999,0.00,0.00,0.00,0.00,3.08,2.21,-0.18,-0.09,3.64,9.38,-8.37,2.46,1100,1100,1100,1100,1069,1499,1519,0,731
198287,0,2.78,-4.55,0.31,0.151,-0.082,0.910,0.00,0.00,0.00,0.00,-2.78,4.55,-0.19,-0.08,3.64,-8.42,6.25,2.85,1100,1100,1100,1100,1069,1499,1519,0,731
198299,0,-0.15,-0.71,0.27,0.154,-0.073,0.955,0.00,0.00,0.00,0.00,0.15,0.71,-0.18,-0.07,3.63,-5.11,-15.20,2.94,1100,1100,1100,1100,1069,1500,1518,0,731
198311,0,-0.30,-4.30,1.06,0.160,-0.030,0.893,0.00,0.00,0.00,0.00,0.30,4.30,-0.19,-0.06,3.62,4.07,5.84,0.97,1100,1100,1100,1100,1069,1500,1518,0,731
198323,0,4.66,1.71,-0.83,0.142,-0.076,0.962,0.00,0.00,0.00,0.00,-4.66,-1.71,-0.19,-0.06,3.63,-21.95,-11.14,5.70,1100,1100,1100,1100,1071,1500,1518,0,731
198335,0,-4.92,-0.49,-0.54,0.111,-0.048,0.926,0.00,0.00,0.00,0.00,4.92,0.49,-0.18,-0.06,3.62,19.44,4.70,4.99,1100,1100,1100,1100,1072,1500,1517,0,731
198347,0,-0.50,-4.39,-0.00,0.087,-0.061,0.947,0.00,0.00,0.00,0.00,0.50,4.39,-0.19,-0.07,3.64,5.94,23.95,3.65,1100,1100,1100,1100,1072,1500,1517,0,731
198359,0,-2.03,-3.73,-0.67,0.062,-0.051,0.982,0.00,0.00,0.00,0.00,2.03,3.73,-0.18,-0.06,3.64,3.03,13.04,5.32,1100,1100,1100,1100,1094,1500,1518,0,731
198371,0,0.50,3.96,0.89,0.007,0.005,0.992,0.00,0.00,0.00,0.00,-0.50,-3.96,-0.19,-0.06,3.63,0.03,-28.27,1.41,1100,1100,1100,1100,1094,1500,1518,0,731
198383,0,6.02,-4.20,0.09,0.087,-0.059,0.943,0.00,0.00,0.00,0.00,-6.02,4.20,-0.19,-0.05,3.64,-25.89,2.47,3.42,1100,1100,1100,1100,1099,1500,1518,0,731
198395,0,-2.14,-4.22,-0.06,0.062,-0.046,0.935,0.00,0.00,0.00,0.00,2.14,4.22,-0.18,-0.04,3.63,8.43,6.42,3.77,1100,1100,1100,1100,1106,1500,1518,0,731
198407,0,-0.65,-12.13,0.69,0.100,-0.065,0.909,0.00,0.00,0.00,0.00,0.65,12.13,-0.19,-0.02,3.62,7.07,25.04,1.89,1100,1100,1100,1100,1106,1500,1518,0,731
198419,0,-0.94,-4.33,-0.64,0.086,-0.081,0.972,0.00,0.00,0.00,0.00,0.94,4.33,-0.18,-0.01,3.63,0.17,3.86,5.22,1100,1100,1100,1100,1106,1500,1518,0,731
198431,0,-1.70,2.61,0.37,0.057,-0.060,0.960,0.00,0.00,0.00,0.00,1.70,-2.61,-0.18,-0.01,3.61,7.21,-24.73,2.68,1100,1100,1100,1100,1106,1500,1518,0,731
198443,0,3.25,-0.52,0.13,0.107,-0.086,0.968,0.00,0.00,0.00,0.00,-3.25,0.52,-0.19,-0.01,3.62,-13.58,-0.01,3.30,1100,1100,1100,1100,1115,1500,1518,0,731
198455,0,-1.11,-1.15,-0.08,0.049,-0.060,0.986,0.00,0.00,0.00,0.00,1.11,1.15,-0.18,-0.00,3.61,2.53,0.40,3.82,1100,1100,1100,1100,1115,1500,1518,0,731
198467,0,0.19,1.04,0.80,0.064,-0.016,0.986,0.00,0.00,0.00,0.00,-0.19,-1.04,-0.19,-0.00,3.61,2.03,-6.90,1.62,1100,1100,1100,1100,1115,1500,1518,0,731
198479,0,1.67,0.96,-0.37,0.050,-0.022,1.014,0.00,0.00,0.00,0.00,-1.67,-0.96,-0.19,-0.00,3.62,-8.17,-3.34,4.54,1100,1100,1100,1100,1126,1500,1518,0,731
198491,0,0.01,0.26,-0.57,0.066,-0.038,0.970,0.00,0.00,0.00,0.00,-0.01,-0.26,-0.19,-0.01,3.62,0.54,7.81,5.03,1100,1100,1100,1100,1126,1500,1518,0,731
198503,0,0.71,-0.47,-0.35,0.038,-0.042,1.010,0.00,0.00,0.00,0.00,-0.71,0.47,-0.19,-0.01,3.63,-0.53,3.55,4.49,1100,1100,1100,1100,1126,1500,1518,0,731
198515,0,0.39,3.02,-0.66,-0.017,-0.053,1.032,0.00,0.00,0.00,0.00,-0.39,-3.02,-0.19,-0.02,3.64,-0.88,0.89,5.30,1100,1100,1100,1100,1145,1500,1518,0,731
198527,0,-3.26,7.82,0.47,-0.036,-0.015,1.048,0.00,0.00,0.00,0.00,3.26,-7.82,-0.19,-0.03,3.64,12.59,-24.03,2.47,1100,1100,1100,1100,1145,1500,1518,0,731
198539,0,1.01,3.83,-0.38,-0.052,-0.028,1.086,0.00,0.00,0.00,0.00,-1.01,-3.83,-0.19,-0.04,3.66,-2.70,3.22,4.62,1100,1100,1100,1100,1145,1500,1518,0,731
198551,0,1.45,0.52,-0.88,-0.067,-0.046,1.077,0.00,0.00,0.00,0.00,-1.45,-0.52,-0.19,-0.04,3.66,-11.98,7.98,5.87,1100,1100,1100,1100,1145,1500,1518,0,731
198563,0,-0.58,-4.32,0.49,-0.025,-0.012,1.063,0.00,0.00,0.00,0.00,0.58,4.32,-0.19,-0.04,3.66,3.85,21.13,2.43,1100,1100,1100,1100,1147,1512,1506,0,731
198575,0,4.60,0.12,-0.31,-0.055,-0.041,1.074,0.00,0.00,0.00,0.00,-4.60,-0.12,-0.19,-0.04,3.67,-18.79,-7.19,4.44,1100,1100,1100,1100,1147,1499,1518,0,731
198587,0,-5.39,-2.46,0.27,-0.026,-0.051,1.012,0.00,0.00,0.00,0.00,5.39,2.46,-0.18,-0.03,3.66,19.41,-1.04,2.98,1100,1100,1100,1100,1147,1499,1518,0,731
198599,0,-0.81,-3.15,-0.23,-0.013,-0.029,1.014,0.00,0.00,0.00,0.00,0.81,3.15,-0.19,-0.02,3.67,8.28,-0.42,4.25,1100,1100,1100,1100,1163,1500,1518,0,731
198611,0,0.72,-11.73,-0.43,0.032,-0.056,0.943,0.00,0.00,0.00,0.00,-0.72,11.73,-0.18,-0.00,3.66,-8.81,27.81,4.74,1100,1100,1100,1100,1163,1500,1518,0,731
198623,0,-2.45,-10.67,0.99,0.061,0.012,0.971,0.00,0.00,0.00,0.00,2.45,10.67,-0.18,0.02,3.65,10.77,15.83,1.17,1164,1164,1182,1170,1170,1501,1517,0,732
198635,0,5.10,-6.23,0.65,0.069,-0.057,0.937,0.00,0.00,0.00,0.00,-5.10,6.23,-0.19,0.04,3.64,-20.49,-6.96,2.02,1164,1164,1182,1170,1169,1500,1518,0,732
198647,0,-2.30,-5.49,0.59,0.102,-0.066,0.941,0.00,0.00,0.00,0.00,2.30,5.49,-0.18,0.05,3.62,5.74,-5.89,2.14,1164,1164,1182,1170,1169,1500,1518,0,732
198659,0,3.06,1.73,0.08,0.120,-0.043,0.955,0.00,0.00,0.00,0.00,-3.06,-1.73,-0.19,0.06,3.62,-4.33,-25.00,3.43,1164,1164,1182,1170,1172,1500,1518,0,732
198671,0,3.72,0.86,-0.39,0.164,-0.104,0.900,0.00,0.00,0.00,0.00,-3.72,-0.86,-0.19,0.07,3.62,-18.69,-15.56,4.60,1164,1164,1182,1170,1172,1500,1518,0,732
198683,0,-6.38,8.02,-0.28,0.089,-0.051,0.992,0.00,0.00,0.00,0.00,6.38,-8.02,-0.19,0.06,3.62,27.85,-33.11,4.33,1164,1164,1182,1170,1172,1500,1518,0,732
198695,0,4.17,0.46,-0.08,0.187,-0.057,0.916,0.00,0.00,0.00,0.00,-4.17,-0.46,-0.19,0.07,3.62,-8.88,0.12,3.83,1164,1164,1182,1170,1190,1500,1518,0,732
198707,0,3.49,6.46,0.05,0.111,-0.096,0.961,0.00,0.00,0.00,0.00,-3.49,-6.46,-0.19,0.08,3.62,-21.37,-36.73,3.49,1164,1164,1182,1170,1190,1500,1518,0,732
198719,0,-7.38,16.81,-0.11,0.010,-0.029,1.098,0.00,0.00,0.00,0.00,7.38,-16.81,-0.18,0.06,3.61,26.87,-59.49,3.89,1104,1228,1162,1274,1192,1500,1518,0,732
198731,0,3.62,13.35,-0.73,0.013,0.027,1.097,0.00,0.00,0.00,0.00,-3.62,-13.35,-0.19,0.06,3.62,-5.75,-49.44,5.46,1104,1228,1162,1274,1192,1500,1518,0,732
198743,0,6.61,9.95,0.07,0.022,-0.089,1.070,0.00,0.00,0.00,0.00,-6.61,-9.95,-0.19,0.07,3.63,-32.40,-55.66,3.46,1104,1228,1162,1274,1201,1500,1518,0,732
198755,0,-8.39,3.98,-0.85,-0.013,-0.082,1.072,0.00,0.00,0.00,0.00,8.39,-3.98,-0.18,0.07,3.63,26.19,-25.92,5.75,1104,1228,1162,1274,1202,1500,1518,0,732
198767,0,-7.19,-8.79,-1.09,0.023,-0.027,0.991,0.00,0.00,0.00,0.00,7.19,8.79,-0.19,0.07,3.63,39.82,40.96,6.35,1104,1228,1162,1274,1202,1500,1518,0,732
198779,0,11.97,-19.63,0.84,0.238,-0.101,0.822,0.00,0.00,0.00,0.00,-11.97,19.63,-0.19,0.08,3.63,-40.65,77.71,1.52,1104,1228,1162,1274,1213,1500,1518,0,732
198791,0,10.07,-0.81,0.03,0.291,-0.098,0.873,0.00,0.00,0.00,0.00,-10.07,0.81,-0.19,0.09,3.66,-52.82,-20.66,3.58,1104,1228,1162,1274,1213,1500,1518,0,732
198803,0,-14.15,-6.58,-1.56,0.257,-0.083,0.874,0.00,0.00,0.00,0.00,14.15,6.58,-0.18,0.13,3.69,48.32,-21.21,7.60,1104,1228,1162,1274,1213,1500,1518,0,732
198815,0,-8.06,-16.57,-1.76,0.290,-0.077,0.774,0.00,0.00,0.00,0.00,8.06,16.57,-0.19,0.15,3.73,47.19,35.11,8.12,1104,1228,1162,1274,1221,1500,1518,0,732
198827,0,13.09,8.81,-1.96,0.204,0.008,0.867,0.00,0.00,0.00,0.00,-13.09,-8.81,-0.20,0.15,3.78,-46.04,-49.46,8.69,1171,1165,1293,1255,1221,1500,1518,0,731
198839,0,5.78,-5.46,-1.94,0.269,-0.066,0.796,0.00,0.00,0.00,0.00,-5.78,5.46,-0.19,0.16,3.84,-32.83,3.97,8.70,1171,1165,1293,1255,1225,1500,1518,0,731
198851,0,0.62,5.87,-2.71,0.235,-0.113,0.899,0.00,0.00,0.00,0.00,-0.62,-5.87,-0.19,0.13,3.94,1.83,12.89,10.71,1171,1165,1293,1255,1225,1500,1518,0,731
198863,0,-4.81,5.48,-3.33,0.023,-0.008,1.004,0.00,0.00,0.00,0.00,4.81,-5.48,-0.18,0.14,4.04,5.40,-34.98,12.38,1171,1165,1293,1255,1229,1500,1518,0,731
198875,0,-7.59,-6.42,-4.78,0.299,-0.178,0.916,0.00,0.00,0.00,0.00,7.59,6.42,-0.19,0.13,4.16,38.50,47.94,16.10,1171,1165,1293,1255,1230,1500,1518,0,731
198887,0,-5.03,-12.65,-4.03,0.130,-0.078,0.850,0.00,0.00,0.00,0.00,5.03,12.65,-0.18,0.17,4.25,15.56,-3.63,14.33,1171,1165,1293,1255,1230,1500,1518,0,731
198899,0,-0.60,8.55,-4.93,0.234,-0.083,0.965,0.00,0.00,0.00,0.00,0.60,-8.55,-0.19,0.13,4.38,8.80,6.37,16.71,1171,1165,1293,1255,1237,1500,1518,0,731
198911,0,7.65,1.12,-1.85,0.177,-0.060,0.881,0.00,0.00,0.00,0.00,-7.65,-1.12,-0.19,0.17,4.45,-31.41,-51.24,9.09,1171,1165,1293,1255,1237,1500,1518,0,731
198923,0,9.62,23.08,-0.78,0.092,-0.108,1.013,0.00,0.00,0.00,0.00,-9.62,-23.08,-0.19,0.14,4.54,-43.05,-70.01,6.49,1166,1280,1232,1294,1243,1500,1518,0,731
198935,0,1.38,-12.03,0.06,0.185,-0.150,0.847,0.00,0.00,0.00,0.00,-1.38,12.03,-0.18,0.16,4.58,-12.00,39.12,4.44,1166,1280,1232,1294,1246,1500,1519,0,731
198947,0,-9.28,5.68,-0.90,0.036,-0.068,1.008,0.00,0.00,0.00,0.00,9.28,-5.68,-0.18,0.15,4.61,29.59,-22.18,6.86,1166,1280,1232,1294,1246,1500,1519,0,731
198959,0,-8.85,2.65,-1.35,0.085,-0.044,1.015,0.00,0.00,0.00,0.00,8.85,-2.65,-0.18,0.14,4.62,38.33,0.26,8.00,1166,1280,1232,1294,1247,1499,1518,0,731
198971,0,-8.01,1.76,-2.73,0.077,-0.043,1.007,0.00,0.00,0.00,0.00,8.01,-1.76,-0.18,0.13,4.66,35.66,4.26,11.47,1166,1280,1232,1294,1247,1499,1518,0,731
198983,0,-0.44,-3.22,-1.27,0.125,0.001,0.967,0.00,0.00,0.00,0.00,0.44,3.22,-0.19,0.14,4.68,7.07,3.30,7.86,1166,1280,1232,1294,1249,1500,1518,0,731
198995,0,2.72,4.29,-0.22,0.072,-0.036,1.019,0.00,0.00,0.00,0.00,-2.72,-4.29,-0.19,0.14,4.70,-2.30,-9.91,5.25,1166,1280,1232,1294,1252,1500,1517,0,731
199007,0,4.55,-9.93,0.47,0.170,-0.065,0.917,0.00,0.00,0.00,0.00,-4.55,9.93,-0.19,0.14,4.73,-19.07,40.76,3.55,1166,1280,1232,1294,1252,1500,1517,0,731
199019,0,8.70,-9.38,0.36,0.120,-0.047,0.920,0.00,0.00,0.00,0.00,-8.70,9.38,-0.19,0.16,4.76,-36.67,8.17,3.86,1292,1282,1226,1204,1251,1500,1518,0,732
199031,0,7.55,10.73,-0.30,0.001,-0.070,1.053,0.00,0.00,0.00,0.00,-7.55,-10.73,-0.20,0.15,4.80,-25.29,-39.30,5.55,1292,1282,1226,1204,1251,1500,1518,0,732
199043,0,3.07,2.26,-0.25,0.108,-0.080,0.976,0.00,0.00,0.00,0.00,-3.07,-2.26,-0.20,0.13,4.82,-9.39,10.63,5.43,1292,1282,1226,1204,1257,1500,1518,0,732
199055,0,0.62,-12.47,-1.42,0.214,-0.078,0.836,0.00,0.00,0.00,0.00,-0.62,12.47,-0.20,0.16,4.83,-2.06,28.68,8.38,1292,1282,1226,1204,1259,1500,1518,0,732
199067,0,-1.59,-8.50,-3.20,0.119,-0.066,0.903,0.00,0.00,0.00,0.00,1.59,8.50,-0.20,0.18,4.86,7.15,6.77,12.86,1292,1282,1226,1204,1259,1500,1518,0,732
199079,0,-3.29,1.97,-3.69,-0.009,-0.035,1.037,0.00,0.00,0.00,0.00,3.29,-1.97,-0.20,0.16,4.93,14.84,11.14,14.15,1292,1282,1226,1204,1261,1500,1518,0,732
199091,0,-3.90,-1.99,-1.57,-0.004,-0.024,1.046,0.00,0.00,0.00,0.00,3.90,1.99,-0.20,0.14,4.95,15.19,40.04,8.88,1292,1282,1226,1204,1261,1500,1518,0,732
199103,0,-2.64,-8.51,-0.44,0.068,-0.061,0.983,0.00,0.00,0.00,0.00,2.64,8.51,-0.20,0.14,4.93,8.19,40.51,6.04,1292,1282,1226,1204,1273,1500,1518,0,732
199115,0,-2.64,-9.64,-1.18,0.134,-0.082,0.947,0.00,0.00,0.00,0.00,2.64,9.64,-0.20,0.16,4.95,6.62,18.45,7.89,1292,1282,1226,1204,1280,1500,1518,0,732
199127,0,-2.80,-5.67,-1.65,0.120,-0.063,0.917,0.00,0.00,0.00,0.00,2.80,5.67,-0.20,0.19,4.99,8.52,-15.28,9.11,1327,1245,1339,1209,1280,1500,1518,0,732
199139,0,-3.20,7.75,-0.91,0.001,-0.022,0.964,0.00,0.00,0.00,0.00,3.20,-7.75,-0.20,0.20,5.04,15.26,-56.40,7.31,1327,1245,1339,1209,1280,1500,1518,0,732
199151,0,-2.70,24.43,-0.05,-0.129,0.001,1.057,0.00,0.00,0.00,0.00,2.70,-24.43,-0.20,0.18,5.08,19.83,-85.74,5.20,1327,1245,1339,1209,1280,1500,1518,0,732
199163,0,-3.22,28.60,0.95,-0.156,-0.013,1.110,0.00,0.00,0.00,0.00,3.22,-28.60,-0.21,0.14,5.09,24.81,-65.70,2.72,1327,1245,1339,1209,1283,1500,1518,0,732
199175,0,-3.52,22.54,1.18,-0.083,-0.021,1.121,0.00,0.00,0.00,0.00,3.52,-22.54,-0.21,0.11,5.09,25.78,-36.99,2.14,1327,1245,1339,1209,1289,1500,1518,0,732
199187,0,-2.10,5.58,0.85,0.095,-0.020,1.044,0.00,0.00,0.00,0.00,2.10,-5.58,-0.22,0.10,5.10,19.27,2.74,2.97,1327,1245,1339,1209,1289,1500,1518,0,732
199199,0,1.33,-8.65,0.21,0.245,-0.009,0.970,0.00,0.00,0.00,0.00,-1.33,8.65,-0.22,0.12,5.13,4.45,17.67,4.61,1327,1245,1339,1209,1291,1500,1518,0,732
199211,0,2.85,-15.06,-0.94,0.287,0.003,0.930,0.00,0.00,0.00,0.00,-2.85,15.06,-0.22,0.15,5.19,-4.07,16.78,7.53,1327,1245,1339,1209,1291,1500,1518,0,732
199223,0,4.11,-10.78,-2.08,0.169,0.024,0.986,0.00,0.00,0.00,0.00,-4.11,10.78,-0.23,0.17,5.26,-8.64,8.37,10.47,1346,1320,1290,1212,1292,1500,1518,0,732
199235,0,5.97,-0.18,-3.35,-0.010,0.041,1.119,0.00,0.00,0.00,0.00,-5.97,0.18,-0.23,0.15,5.37,-14.96,8.77,13.76,1346,1320,1290,1212,1292,1500,1518,0,732
199247,0,8.28,3.38,-4.18,-0.120,0.056,1.198,0.00,0.00,0.00,0.00,-8.28,-3.38,-0.23,0.11,5.50,-22.81,41.10,15.96,1346,1320,1290,1212,1292,1500,1518,0,732
199259,0,10.37,4.42,-4.66,-0.166,0.064,1.225,0.00,0.00,0.00,0.00,-10.37,-4.42,-0.24,0.06,5.66,-28.96,56.20,17.32,1346,1320,1290,1212,1292,1500,1518,0,732
199271,0,12.55,5.55,-5.23,-0.178,0.059,1.223,0.00,0.00,0.00,0.00,-12.55,-5.55,-0.25,0.01,5.83,-34.59,52.10,18.91,1346,1320,1290,1212,1292,1500,1518,0,732
199283,0,14.39,7.14,-5.67,-0.179,0.059,1.224,0.00,0.00,0.00,0.00,-14.39,-7.14,-0.26,-0.03,6.03,-37.07,37.10,20.22,1346,1320,1290,1212,1292,1500,1518,0,732
199295,0,15.41,9.69,-6.03,-0.207,0.075,1.246,0.00,0.00,0.00,0.00,-15.41,-9.69,-0.28,-0.05,6.27,-36.38,13.99,21.33,1346,1320,1290,1212,1302,1499,1518,0,732
199307,0,16.98,11.81,-6.32,-0.234,0.093,1.288,0.00,0.00,0.00,0.00,-16.98,-11.81,-0.30,-0.08,6.53,-37.19,3.64,22.33,1346,1320,1290,1212,1302,1499,1518,0,732
199319,0,18.30,16.98,-6.72,-0.261,0.115,1.336,0.00,0.00,0.00,0.00,-18.30,-16.98,-0.32,-0.12,6.82,-38.03,-8.15,23.61,1308,1370,1278,1248,1301,1500,1519,0,732
199331,0,18.28,18.24,-7.09,-0.241,0.121,1.348,0.00,0.00,0.00,0.00,-18.28,-18.24,-0.34,-0.16,7.11,-33.51,-5.93,24.84,1308,1370,1278,1248,1301,1500,1519,0,732
199343,0,17.98,17.89,-7.10,-0.239,0.126,1.349,0.00,0.00,0.00,0.00,-17.98,-17.89,-0.37,-0.20,7.41,-28.86,1.71,25.16,1308,1370,1278,1248,1301,1500,1517,0,732
199355,0,17.58,19.37,-7.03,-0.280,0.125,1.379,0.00,0.00,0.00,0.00,-17.58,-19.37,-0.40,-0.25,7.71,-24.54,6.27,25.29,1308,1370,1278,1248,1302,1497,1517,0,732
199367,0,15.22,15.73,-6.76,-0.340,0.119,1.417,0.00,0.00,0.00,0.00,-15.22,-15.73,-0.43,-0.30,7.99,-16.82,19.16,24.90,1308,1370,1278,1248,1302,1497,1517,0,732
199379,0,11.18,5.84,-5.99,-0.397,0.093,1.443,0.00,0.00,0.00,0.00,-11.18,-5.84,-0.45,-0.34,8.26,-4.85,46.80,23.24,1308,1370,1278,1248,1307,1500,1518,0,732
199391,0,5.50,-11.75,-5.28,-0.389,0.054,1.409,0.00,0.00,0.00,0.00,-5.50,11.75,-0.47,-0.34,8.51,7.80,80.02,21.72,1308,1370,1278,1248,1307,1500,1518,0,732
199403,0,-1.15,-35.13,-5.31,-0.270,-0.017,1.245,0.00,0.00,0.00,0.00,1.15,35.13,-0.48,-0.30,8.75,21.04,110.00,22.01,1308,1370,1278,1248,1312,1500,1518,0,732
199415,0,-3.70,-38.97,-5.84,-0.184,-0.062,1.086,0.00,0.00,0.00,0.00,3.70,38.97,-0.48,-0.25,8.98,17.40,94.22,23.57,1308,1370,1278,1248,1314,1500,1518,0,732
199427,0,-3.24,-35.04,-6.02,-0.164,-0.103,1.000,0.00,0.00,0.00,0.00,3.24,35.04,-0.48,-0.19,9.19,1.81,58.94,24.24,1350,1394,1296,1216,1314,1500,1518,0,731
199439,0,-1.44,-32.36,-6.24,-0.065,-0.124,0.925,0.00,0.00,0.00,0.00,1.44,32.36,-0.48,-0.12,9.38,-9.81,30.03,24.97,1350,1394,1296,1216,1321,1500,1518,0,731
199451,0,-0.82,-25.31,-6.24,0.135,-0.137,0.808,0.00,0.00,0.00,0.00,0.82,25.31,-0.47,-0.04,9.56,-9.81,-10.61,25.15,1350,1394,1296,1216,1321,1500,1518,0,731
199463,0,1.59,-11.62,-6.03,0.289,-0.137,0.725,0.00,0.00,0.00,0.00,-1.59,11.62,-0.48,0.00,9.74,-10.68,-33.17,24.82,1350,1394,1296,1216,1321,1500,1518,0,731
199475,0,2.20,-9.35,-5.78,0.395,-0.140,0.681,0.00,0.00,0.00,0.00,-2.20,9.35,-0.49,0.03,9.93,-3.94,-7.88,24.37,1350,1394,1296,1216,1322,1500,1518,0,731
199487,0,2.70,-5.15,-5.70,0.449,-0.154,0.664,0.00,0.00,0.00,0.00,-2.70,5.15,-0.50,0.04,10.36,4.37,2.44,44.40,1350,1394,1296,1216,1322,1500,1518,0,731
199499,0,2.64,6.52,-6.31,0.406,-0.147,0.701,0.00,0.00,0.00,0.00,-2.64,-6.52,-0.52,0.01,10.82,10.44,-2.97,46.40,1350,1394,1296,1216,1322,1500,1518,0,731
199511,0,3.91,15.33,-5.54,0.207,-0.115,0.893,0.00,0.00,0.00,0.00,-3.91,-15.33,-0.53,-0.03,11.29,3.81,-3.67,44.94,1350,1394,1296,1216,1322,1500,1518,0,731
199523,0,2.53,5.13,-5.76,0.112,-0.139,0.974,0.00,0.00,0.00,0.00,-2.53,-5.13,-0.55,-0.07,11.79,12.85,36.10,45.98,1304,1344,1412,1228,1322,1500,1518,0,736
199535,0,4.59,8.77,-6.65,0.142,-0.138,0.992,0.00,0.00,0.00,0.00,-4.59,-8.77,-0.56,-0.11,12.29,3.58,11.29,48.72,1304,1344,1412,1228,1323,1500,1518,0,736
199547,0,12.67,33.01,-7.08,0.009,-0.072,1.094,0.00,0.00,0.00,0.00,-12.67,-33.01,-0.58,-0.16,12.79,-38.80,-74.12,52.09,1304,1344,1412,1228,1323,1500,1518,0,736
199559,0,16.02,27.69,-8.79,-0.078,0.023,1.178,0.00,0.00,0.00,0.00,-16.02,-27.69,-0.58,-0.20,13.29,-68.07,-65.98,55.97,1304,1344,1412,1228,1327,1500,1518,0,736
199571,0,16.38,6.51,-6.61,-0.165,0.137,1.194,0.00,0.00,0.00,0.00,-16.38,-6.51,-0.57,-0.20,13.75,-82.38,-29.90,50.98,1304,1344,1412,1228,1327,1500,1518,0,736
199583,0,10.45,-17.21,-1.78,0.041,0.174,1.036,0.00,0.00,-6.00,0.00,-16.45,17.21,-0.56,-0.15,14.14,-71.18,12.36,40.19,1304,1344,1412,1228,1326,1470,1518,0,736
199595,0,3.84,-15.52,0.59,0.221,0.117,0.938,0.00,0.00,0.00,0.00,-3.84,15.52,-0.54,-0.10,14.47,-47.02,-13.64,34.59,1304,1344,1412,1228,1326,1500,1518,0,736
199607,0,4.19,-8.45,-1.13,0.346,0.023,0.835,0.00,0.00,0.00,0.00,-4.19,8.45,-0.52,-0.08,14.83,-47.07,-12.11,41.05,1304,1344,1412,1228,1326,1500,1518,0,736
199619,0,13.57,20.55,-5.81,0.164,0.024,0.967,0.00,0.00,0.00,0.00,-13.57,-20.55,-0.50,-0.10,15.16,-86.56,-75.84,29.68,1322,1500,1208,1300,1340,1500,1518,0,731
199631,128,22.38,36.77,-8.64,-0.156,0.125,1.157,0.00,0.00,0.00,0.00,-22.38,-36.77,-0.49,-0.15,15.35,-110.00,-105.82,36.94,1322,1500,1208,1300,1340,1500,1518,0,731
199643,128,20.58,29.76,-5.83,-0.382,0.150,1.265,0.00,0.00,0.00,0.00,-20.58,-29.76,-0.48,-0.20,15.51,-106.97,-58.18,30.10,1322,1500,1208,1300,1357,1501,1519,0,731
199655,0,21.11,5.60,-2.73,-0.317,0.170,1.270,0.00,0.00,0.00,0.00,-21.11,-5.60,-0.47,-0.21,15.64,-102.57,-3.21,22.48,1322,1500,1208,1300,1366,1499,1518,0,731
199667,0,21.04,-3.08,1.19,-0.084,0.226,1.117,0.00,0.00,0.00,0.00,-21.04,3.08,-0.46,-0.17,15.75,-98.94,-29.35,12.78,1322,1500,1208,1300,1366,1499,1518,0,731
199679,0,17.52,-7.91,0.52,0.114,0.185,0.988,0.00,0.00,0.00,0.00,-17.52,7.91,-0.44,-0.13,15.85,-89.00,-24.66,14.56,1322,1500,1208,1300,1366,1500,1519,0,731
199691,0,14.29,8.23,-4.60,0.093,0.122,0.879,0.00,0.00,0.00,0.00,-14.29,-8.23,-0.43,-0.14,16.00,-76.60,-41.88,27.50,1322,1500,1208,1300,1366,1500,1519,0,731
199703,0,15.10,21.62,-10.63,-0.236,0.027,1.100,0.00,0.00,0.00,0.00,-15.10,-21.62,-0.41,-0.17,16.20,-89.07,-62.80,42.77,1322,1500,1208,1300,1367,1499,1518,0,731
199715,0,15.22,18.56,-15.70,-0.332,0.123,1.264,0.00,0.00,0.00,0.00,-15.22,-18.56,-0.40,-0.20,16.50,-85.53,-49.90,55.73,1322,1500,1208,1300,1367,1500,1518,0,731
199727,0,-0.42,5.71,-11.91,-0.410,0.202,1.300,0.00,0.00,0.00,0.00,0.42,-5.71,-0.37,-0.19,16.77,-19.90,-18.64,46.55,1303,1237,1500,1371,1367,1500,1518,0,732
199739,0,-17.69,-16.89,-6.37,-0.328,0.122,1.236,0.00,0.00,0.00,0.00,17.69,16.89,-0.33,-0.15,16.99,29.66,27.04,32.92,1303,1237,1500,1371,1367,1500,1518,0,732
199751,0,-16.65,-39.97,-1.65,-0.022,-0.084,1.067,0.00,0.00,0.00,0.00,16.65,39.97,-0.30,-0.04,17.15,15.47,31.72,21.27,1303,1237,1500,1371,1367,1500,1518,0,732
199763,0,-9.44,-18.90,-2.90,0.155,-0.121,0.952,0.00,0.00,0.00,0.00,9.44,18.90,-0.27,0.04,17.33,-10.31,-51.34,24.58,1303,1237,1500,1371,1367,1501,1518,0,732
199775,0,-7.66,6.90,-7.51,-0.194,-0.031,1.216,0.00,0.00,0.00,0.00,7.66,-6.90,-0.24,0.05,17.61,-21.53,-70.92,36.38,1303,1237,1500,1371,1367,1500,1518,0,732
199787,0,-8.34,-30.93,-6.07,-0.027,-0.025,1.213,0.00,0.00,0.00,0.00,8.34,30.93,-0.21,0.10,17.86,-5.14,79.00,33.03,1303,1237,1500,1371,1367,1500,1518,0,732
199799,0,-10.58,-30.15,-5.64,0.138,-0.039,1.113,0.00,0.00,0.00,0.00,10.58,30.15,-0.20,0.16,18.06,19.55,47.82,32.17,1303,1237,1500,1371,1367,1500,1518,0,732
199811,0,-7.42,-28.55,-5.11,0.143,-0.139,1.061,0.00,0.00,0.00,0.00,7.42,28.55,-0.19,0.20,18.26,16.98,51.08,31.02,1303,1237,1500,1371,1367,1500,1518,0,732
199823,0,3.56,-8.73,-6.76,0.183,-0.231,1.003,0.00,0.00,0.00,0.00,-3.56,8.73,-0.20,0.21,18.47,-11.78,-6.59,35.37,1349,1347,1451,1321,1367,1500,1518,0,732
199835,0,16.20,24.65,-12.10,-0.189,-0.077,1.282,0.00,0.00,0.00,0.00,-16.20,-24.65,-0.22,0.16,18.77,-48.44,-68.32,49.01,1349,1347,1451,1321,1367,1500,1518,0,732
199847,0,14.06,-9.74,-10.22,0.046,-0.001,1.221,0.00,0.00,0.00,0.00,-14.06,9.74,-0.24,0.20,18.99,-33.24,6.94,44.53,1349,1347,1451,1321,1367,1500,1518,0,732
199859,0,7.38,8.87,-9.24,0.116,-0.033,1.071,0.00,0.00,0.00,0.00,-7.38,-8.87,-0.26,0.21,19.15,7.09,-69.60,42.24,1349,1347,1451,1321,1367,1500,1518,0,732
199871,0,7.68,21.34,-9.33,-0.165,-0.040,1.280,0.00,0.00,0.00,0.00,-7.68,-21.34,-0.29,0.18,19.40,11.83,-49.02,42.73,1349,1347,1451,1321,1367,1500,1518,0,732
199883,0,13.06,-18.76,-3.36,0.038,-0.070,1.153,0.00,0.00,0.00,0.00,-13.06,18.76,-0.32,0.19,19.62,-8.39,75.68,28.01,1349,1347,1451,1321,1367,1500,1518,0,732
199895,0,19.70,0.58,-5.48,0.078,-0.049,1.128,0.00,0.00,0.00,0.00,-19.70,-0.58,-0.35,0.20,19.82,-38.72,-19.87,33.52,1349,1347,1451,1321,1367,1500,1518,0,732
199907,0,17.39,-7.54,-6.48,0.182,-0.005,1.139,0.00,0.00,0.00,0.00,-17.39,7.54,-0.38,0.22,20.05,-27.94,16.44,36.25,1349,1347,1451,1321,1367,1500,1518,0,732
199919,0,7.16,4.00,-7.15,0.034,0.011,1.180,0.00,0.00,0.00,0.00,-7.16,-4.00,-0.40,0.20,20.31,11.93,1.31,38.18,1319,1393,1417,1339,1367,1500,1518,0,734
199931,0,2.90,-9.95,-8.48,0.072,-0.040,1.158,0.00,0.00,0.00,0.00,-2.90,9.95,-0.42,0.19,20.60,23.89,53.36,41.79,1319,1393,1417,1339,1367,1500,1518,0,734
199943,0,6.86,7.10,-7.59,-0.009,-0.064,1.166,0.00,0.00,0.00,0.00,-6.86,-7.10,-0.43,0.19,20.86,-3.03,-33.32,39.82,1319,1393,1417,1339,1367,1500,1518,0,734
199955,0,8.94,10.53,-9.99,0.010,-0.032,1.138,0.00,0.00,0.00,0.00,-8.94,-10.53,-0.44,0.21,21.13,-21.59,-74.14,46.10,1319,1393,1417,1339,1366,1499,1519,0,734
199967,0,-0.83,14.19,-11.72,-0.025,-0.005,1.222,0.00,0.00,0.00,0.00,0.83,-14.19,-0.45,0.19,21.42,20.52,-43.45,50.71,1319,1393,1417,1339,1366,1499,1519,0,734
199979,0,-6.90,1.06,-11.90,-0.096,0.008,1.289,0.00,0.00,0.00,0.00,6.90,-1.06,-0.45,0.19,21.74,39.54,16.38,51.48,1319,1393,1417,1339,1367,1500,1518,0,734
199991,0,-7.87,-28.08,-10.22,0.054,-0.139,1.126,0.00,0.00,0.00,0.00,7.87,28.08,-0.45,0.21,22.02,32.41,107.08,47.57,1319,1393,1417,1339,1367,1500,1518,0,734
200003,0,3.65,-9.33,-10.09,0.097,-0.154,1.147,0.00,0.00,0.00,0.00,-3.65,9.33,-0.45,0.23,22.27,-19.83,17.05,47.51,1319,1393,1417,1339,1368,1500,1518,0,734
200015,0,9.78,-0.28,-8.48,0.037,-0.117,1.150,0.00,0.00,0.00,0.00,-9.78,0.28,-0.46,0.22,22.54,-39.74,-1.40,43.75,1319,1393,1417,1339,1368,1501,1517,0,734
200027,0,7.77,-1.45,-8.50,-0.090,-0.064,1.245,0.00,0.00,0.00,0.00,-7.77,1.45,-0.47,0.20,22.87,-29.54,37.97,44.11,1258,1478,1352,1384,1368,1501,1517,0,728
200039,0,10.23,-18.11,-6.61,0.196,-0.100,1.100,0.00,0.00,0.00,0.00,-10.23,18.11,-0.48,0.23,23.13,-32.74,46.25,39.65,1258,1478,1352,1384,1367,1501,1517,0,728
200051,0,15.90,22.81,-12.45,0.059,-0.063,1.136,0.00,0.00,0.00,0.00,-15.90,-22.81,-0.49,0.21,23.44,-52.50,-102.51,54.58,1258,1478,1352,1384,1367,1501,1517,0,728
200063,0,13.25,13.38,-11.65,-0.090,0.046,1.220,0.00,0.00,0.00,0.00,-13.25,-13.38,-0.50,0.19,23.78,-40.67,-42.40,52.92,1258,1478,1352,1384,1366,1500,1519,0,728
200075,0,8.89,13.77,-9.73,0.012,0.070,1.172,0.00,0.00,0.00,0.00,-8.89,-13.77,-0.50,0.21,24.05,-19.36,-73.76,48.38,1258,1478,1352,1384,1367,1499,1519,0,728
200087,0,0.88,10.80,-8.24,-0.166,0.058,1.276,0.00,0.00,0.00,0.00,-0.88,-10.80,-0.51,0.20,24.36,15.75,-38.23,44.98,1258,1478,1352,1384,1367,1499,1519,0,728
200099,0,-0.40,-12.53,-8.83,0.037,-0.025,1.191,0.00,0.00,0.00,0.00,0.40,12.53,-0.52,0.22,24.67,27.90,43.68,46.74,1258,1478,1352,1384,1368,1500,1517,0,728
200111,0,1.64,8.71,-12.12,-0.157,-0.039,1.224,0.00,0.00,0.00,0.00,-1.64,-8.71,-0.54,0.23,24.97,15.19,-48.66,55.28,1258,1478,1352,1384,1368,1500,1517,0,728
200123,0,-5.02,-25.38,-10.64,-0.025,-0.084,1.277,0.00,0.00,0.00,0.00,5.02,25.38,-0.55,0.23,25.28,40.55,110.00,51.89,1252,1500,1332,1376,1366,1500,1518,0,728
200135,0,-5.26,-25.40,-5.53,0.155,-0.151,1.069,0.00,0.00,0.00,0.00,5.26,25.40,-0.56,0.29,25.51,35.85,46.31,39.33,1252,1500,1332,1376,1366,1500,1518,0,728
200147,0,12.75,-10.45,-10.37,0.082,-0.148,1.070,0.00,0.00,0.00,0.00,-12.75,10.45,-0.57,0.29,25.83,-46.08,24.28,51.75,1252,1500,1332,1376,1366,1500,1518,0,728
200159,0,8.74,-21.87,-9.83,0.211,-0.121,1.003,0.00,0.00,0.00,0.00,-8.74,21.87,-0.57,0.33,26.10,-38.15,37.15,50.67,1252,1500,1332,1376,1366,1500,1518,0,728
200171,0,6.52,-8.95,-11.73,0.217,-0.080,1.041,0.00,0.00,0.00,0.00,-6.52,8.95,-0.57,0.35,26.38,-34.08,-8.41,55.72,1252,1500,1332,1376,1366,1500,1518,0,728
200183,0,3.26,8.90,-10.78,0.048,-0.052,1.156,0.00,0.00,0.00,0.00,-3.26,-8.90,-0.57,0.36,26.67,-13.91,-67.47,53.62,1252,1500,1332,1376,1366,1500,1518,0,728
200195,0,13.90,25.20,-11.30,-0.211,-0.013,1.285,0.00,0.00,0.00,0.00,-13.90,-25.20,-0.58,0.34,26.98,-52.24,-98.99,55.22,1252,1500,1332,1376,1366,1500,1518,0,728
200207,0,13.21,-1.18,-8.63,-0.170,0.080,1.305,0.00,0.00,0.00,0.00,-13.21,1.18,-0.59,0.37,27.26,-40.12,-29.74,48.84,1252,1500,1332,1376,1366,1500,1518,0,728
200219,0,3.32,-8.43,-8.58,-0.051,0.119,1.237,0.00,0.00,0.00,0.00,-3.32,8.43,-0.60,0.42,27.49,10.40,-30.02,48.94,1278,1434,1394,1358,1366,1500,1518,0,733
200231,0,-3.62,-18.93,-7.51,0.018,0.008,1.176,0.00,0.00,0.00,0.00,3.62,18.93,-0.61,0.47,27.72,42.00,16.32,46.50,1278,1434,1394,1358,1366,1500,1518,0,733
200243,0,1.92,-7.93,-8.32,-0.021,-0.065,1.180,0.00,0.00,0.00,0.00,-1.92,7.93,-0.63,0.48,27.96,26.40,1.25,48.77,1278,1434,1394,1358,1359,1500,1518,0,733
200255,0,6.39,-2.16,-7.62,-0.248,-0.027,1.309,0.00,0.00,0.00,0.00,-6.39,2.16,-0.65,0.48,28.23,6.64,11.76,47.29,1278,1434,1394,1358,1359,1500,1518,0,733
200267,0,3.00,-25.39,-6.41,-0.041,-0.016,1.286,0.00,0.00,0.00,0.00,-3.00,25.39,-0.68,0.51,28.48,31.99,84.44,44.50,1278,1434,1394,1358,1359,1500,1518,0,733
200279,0,-0.30,-30.75,-4.16,0.130,-0.073,1.109,0.00,0.00,0.00,0.00,0.30,30.75,-0.71,0.56,28.69,49.76,69.68,39.08,1278,1434,1394,1358,1359,1513,1505,0,733
200291,0,8.38,-13.94,-7.16,0.150,-0.170,1.095,0.00,0.00,0.00,0.00,-8.38,13.94,-0.75,0.58,28.93,11.30,24.93,46.83,1278,1434,1394,1358,1359,1513,1505,0,733
200303,0,14.43,-2.65,-7.95,0.166,-0.197,1.054,0.00,0.00,0.00,0.00,-14.43,2.65,-0.78,0.59,29.14,-12.76,-23.74,49.01,1278,1434,1394,1358,1359,1500,1518,0,733
200315,0,14.30,7.06,-10.83,-0.024,-0.109,1.171,0.00,0.00,0.00,0.00,-14.30,-7.06,-0.82,0.56,29.43,-14.92,-5.78,56.50,1278,1434,1394,1358,1359,1500,1518,0,733
200327,0,10.25,-6.00,-9.34,0.043,-0.064,1.222,0.00,0.00,0.00,0.00,-10.25,6.00,-0.84,0.55,29.70,-1.52,39.92,53.05,1267,1447,1379,1343,1359,1500,1518,0,732
200339,0,8.93,11.32,-12.77,-0.160,-0.059,1.255,0.00,0.00,0.00,0.00,-8.93,-11.32,-0.86,0.54,30.00,-8.21,-34.53,61.93,1267,1447,1379,1343,1359,1500,1518,0,732
200351,0,10.99,-14.14,-13.09,-0.080,0.016,1.197,0.00,0.00,0.00,0.00,-10.99,14.14,-0.87,0.57,30.31,-29.42,26.58,63.05,1267,1447,1379,1343,1359,1500,1518,0,732
200363,0,4.73,-9.12,-9.55,0.150,-0.028,1.069,0.00,0.00,0.00,0.00,-4.73,9.12,-0.87,0.63,30.49,-7.58,-46.00,54.37,1267,1447,1379,1343,1358,1499,1518,0,732
