time_ms,flags,gyro_x,gyro_y,gyro_z,accel_x,accel_y,accel_z,roll,pitch,rate_sp_roll,rate_sp_pitch,rate_err_roll,rate_err_pitch,rate_i_roll,rate_i_pitch,rate_i_yaw,pid_roll,pid_pitch,pid_yaw,m1,m2,m3,m4,rc_thr,rc_roll,rc_pitch,battery_mv,loop_us
232687,0,-0.00,-0.07,-0.01,0.038,-0.046,1.000,0.00,0.00,0.00,4.40,0.00,4.47,0.00,0.01,0.00,-0.01,1.95,0.02,1000,1000,1000,1000,1029,1500,1522,0,735
232699,0,-0.05,-0.05,-0.04,0.038,-0.045,0.999,0.00,0.00,0.00,0.00,0.05,0.05,0.00,0.02,0.00,0.10,0.09,0.10,1000,1000,1000,1000,1031,1501,1520,0,735
232711,0,-0.01,-0.01,-0.03,0.038,-0.045,0.999,0.00,0.00,0.00,0.00,0.01,0.01,0.00,0.02,0.00,-0.03,-0.08,0.08,1000,1000,1000,1000,1031,1501,1520,0,735
232723,0,-0.05,-0.04,-0.05,0.038,-0.045,0.999,0.00,0.00,0.00,4.20,0.05,4.24,0.00,0.03,0.00,0.09,1.71,0.12,1100,1100,1100,1100,1030,1501,1521,0,735
232735,0,-0.00,-0.07,-0.07,0.038,-0.045,0.999,0.00,0.00,0.00,4.20,0.00,4.27,0.00,0.04,0.01,-0.03,1.89,0.17,1100,1100,1100,1100,1030,1501,1521,0,735
232747,0,0.03,-0.00,-0.06,0.038,-0.046,1.000,0.00,0.00,0.00,4.20,-0.03,4.20,0.00,0.05,0.01,-0.08,1.67,0.16,1100,1100,1100,1100,1030,1501,1521,0,735
232759,0,-0.01,-0.03,-0.05,0.038,-0.046,0.999,0.00,0.00,0.00,0.00,0.01,0.03,0.00,0.05,0.01,0.04,0.07,0.14,1100,1100,1100,1100,1030,1502,1520,0,735
232771,0,0.01,0.01,-0.03,0.038,-0.046,0.999,0.00,0.00,0.00,0.00,-0.01,-0.01,0.00,0.05,0.01,0.01,-0.05,0.08,1100,1100,1100,1100,1030,1502,1520,0,735
232783,0,0.08,0.06,-0.10,0.039,-0.046,0.997,0.00,0.00,0.00,0.00,-0.08,-0.06,0.00,0.05,0.01,-0.31,-0.24,0.26,1100,1100,1100,1100,1030,1505,1517,0,735
232795,0,0.11,0.03,-0.01,0.039,-0.045,0.998,0.00,0.00,0.00,4.20,-0.11,4.17,0.00,0.06,0.01,-0.44,1.52,0.04,1100,1100,1100,1100,1030,1501,1521,0,735
232807,0,0.11,-0.00,-0.05,0.038,-0.045,0.998,0.00,0.00,0.00,4.20,-0.11,4.20,0.00,0.07,0.02,-0.54,1.57,0.13,1100,1100,1100,1100,1030,1501,1521,0,735
232819,0,0.17,-0.01,0.02,0.038,-0.045,0.999,0.00,0.00,0.00,4.20,-0.17,4.21,0.00,0.08,0.02,-0.84,1.68,-0.04,1100,1100,1100,1100,1030,1501,1521,0,735
232831,0,0.18,-0.00,0.03,0.038,-0.045,0.999,0.00,0.00,0.00,4.20,-0.18,4.20,0.00,0.09,0.02,-0.85,1.64,-0.06,1100,1100,1100,1100,1030,1501,1521,0,735
232843,0,0.15,0.10,-0.06,0.037,-0.044,1.000,0.00,0.00,0.00,4.20,-0.15,4.10,0.00,0.10,0.02,-0.64,1.28,0.16,1100,1100,1100,1100,1029,1501,1521,0,735
232855,0,0.15,0.11,-0.06,0.038,-0.043,1.000,0.00,0.00,0.00,4.20,-0.15,4.09,0.00,0.11,0.02,-0.42,1.25,0.16,1100,1100,1100,1100,1029,1501,1521,0,735
232867,0,0.14,0.07,-0.08,0.037,-0.043,1.000,0.00,0.00,0.00,4.20,-0.14,4.13,0.00,0.12,0.02,-0.20,1.29,0.23,1100,1100,1100,1100,1029,1501,1521,0,735
232879,0,0.12,0.11,-0.01,0.039,-0.040,1.001,0.00,0.00,0.00,4.20,-0.12,4.09,-0.00,0.13,0.02,-0.14,1.13,0.06,1100,1100,1100,1100,1030,1501,1521,0,735
232891,0,-0.10,0.22,0.01,0.037,-0.039,1.003,0.00,0.00,0.00,4.20,0.10,3.98,-0.00,0.14,0.02,0.68,0.69,-0.01,1100,1100,1100,1100,1030,1501,1521,0,735
232903,0,0.04,0.48,-0.52,0.036,-0.037,1.002,0.00,0.00,0.00,4.20,-0.04,3.72,0.00,0.15,0.04,-0.05,0.38,1.34,1100,1100,1100,1100,1030,1501,1521,0,735
232915,0,0.41,1.07,0.47,0.027,-0.039,1.009,0.00,0.00,0.00,4.20,-0.41,3.13,-0.00,0.15,0.03,-1.38,-0.65,-1.13,1100,1100,1100,1100,1030,1501,1521,0,735
232927,0,0.53,0.99,-0.20,0.023,-0.044,1.016,0.00,0.00,0.00,4.20,-0.53,3.21,0.00,0.16,0.03,-2.27,0.82,0.51,1100,1100,1100,1100,1030,1501,1521,0,735
232939,0,0.09,0.47,-0.19,0.026,-0.052,1.008,0.00,0.00,0.00,4.20,-0.09,3.73,0.00,0.17,0.04,-0.65,1.89,0.52,1100,1100,1100,1100,1030,1501,1521,0,735
232951,0,-0.18,-0.23,-0.15,0.025,-0.043,1.005,0.00,0.00,0.00,4.20,0.18,4.43,0.00,0.18,0.03,-0.41,2.08,0.40,1100,1100,1100,1100,1030,1501,1521,0,735
232963,0,0.40,0.53,-0.19,0.015,-0.049,1.007,0.00,0.00,0.00,19.40,-0.40,18.87,0.00,0.23,0.04,-2.64,3.93,0.51,1100,1100,1100,1100,1000,1500,1597,0,735
232975,0,1.19,0.35,0.60,0.007,-0.043,1.019,0.00,0.00,0.00,4.20,-1.19,3.85,0.00,0.26,0.03,-4.85,-0.50,-1.48,1100,1100,1100,1100,1030,1500,1521,0,735
232987,0,0.57,-0.76,-0.06,0.031,-0.040,1.000,0.00,0.00,0.00,4.20,-0.57,4.96,0.00,0.28,0.03,-1.44,0.97,0.17,1100,1100,1100,1100,1030,1500,1521,0,735
232999,0,-0.24,-1.14,0.24,0.049,-0.043,0.987,0.00,0.00,0.00,4.40,0.24,5.54,0.00,0.29,0.03,1.62,0.01,-0.57,1100,1100,1100,1100,1029,1501,1522,0,735
233011,0,0.05,0.12,0.25,0.059,-0.044,0.985,0.00,0.00,0.00,4.40,-0.05,4.28,0.00,0.31,0.02,0.14,-5.05,-0.62,1100,1100,1100,1100,1029,1501,1522,0,735
233023,0,-0.89,-1.31,-0.35,0.051,-0.051,0.975,0.00,0.00,0.00,4.20,0.89,5.51,0.00,0.32,0.03,3.35,4.33,0.90,1100,1100,1100,1100,1031,1501,1521,0,733
233035,0,-0.48,-2.87,0.42,0.079,-0.052,0.954,0.00,0.00,0.00,4.40,0.48,7.27,0.00,0.33,0.02,0.91,7.19,-1.04,1100,1100,1100,1100,1029,1500,1522,0,733
233047,0,-0.67,-1.32,-0.06,0.073,-0.051,0.963,0.00,0.00,0.00,4.40,0.67,5.72,0.00,0.35,0.02,1.06,1.79,0.16,1100,1100,1100,1100,1029,1500,1522,0,733
233059,0,-0.98,-0.78,-0.06,0.060,-0.051,0.967,0.00,0.00,0.00,0.00,0.98,0.78,0.00,0.35,0.03,2.86,1.12,0.19,1100,1100,1100,1100,1031,1501,1520,0,733
233071,0,0.23,-1.90,0.24,0.062,-0.045,0.966,0.00,0.00,0.00,0.00,-0.23,1.90,0.00,0.36,0.02,0.21,1.16,-0.58,1100,1100,1100,1100,1031,1501,1520,0,733
233083,0,1.14,-2.38,-0.09,0.063,-0.043,0.963,0.00,0.00,0.00,4.20,-1.14,6.58,0.00,0.37,0.02,-2.04,3.21,0.24,1100,1100,1100,1100,1030,1501,1521,0,733
233095,0,1.06,-0.99,-0.07,0.055,-0.039,0.977,0.00,0.00,0.00,4.20,-1.06,5.19,-0.00,0.39,0.02,-1.99,-3.16,0.19,1100,1100,1100,1100,1030,1501,1521,0,733
233107,0,0.27,-0.65,-0.00,0.035,-0.040,0.986,0.00,0.00,0.00,4.20,-0.27,4.85,-0.00,0.40,0.03,-0.47,-0.81,0.03,1100,1100,1100,1100,1030,1501,1521,0,733
233119,0,-0.05,-0.71,0.51,0.031,-0.042,0.984,0.00,0.00,0.00,4.20,0.05,4.91,-0.00,0.41,0.02,0.45,1.90,-1.26,1100,1100,1100,1100,1030,1501,1521,0,733
233131,0,-0.25,-1.41,-0.50,0.054,-0.039,0.986,0.00,0.00,0.00,4.20,0.25,5.61,-0.00,0.43,0.02,0.44,2.65,1.26,1100,1100,1100,1100,1030,1501,1521,0,733
233143,0,-0.77,-0.26,-0.26,0.042,-0.053,0.983,0.00,0.00,0.00,4.20,0.77,4.46,0.00,0.44,0.04,-0.25,-0.89,0.69,1100,1100,1100,1100,1030,1501,1521,0,733
233155,0,-0.53,-0.71,1.08,0.046,-0.051,0.975,0.00,0.00,0.00,4.60,0.53,5.31,0.00,0.45,0.01,-0.50,3.18,-2.70,1100,1100,1100,1100,1029,1500,1523,0,733
233167,0,-1.29,0.85,-1.07,0.039,-0.045,1.008,0.00,0.00,0.00,4.60,1.29,3.75,0.00,0.46,0.02,4.19,2.67,2.71,1100,1100,1100,1100,1029,1500,1523,0,733
233179,0,0.69,0.79,0.02,0.023,-0.058,0.991,0.00,0.00,0.00,4.20,-0.69,3.41,0.00,0.47,0.05,-2.38,2.65,-0.00,1100,1100,1100,1100,1030,1501,1521,0,733
233191,0,-0.04,-1.56,0.22,0.039,-0.043,0.991,0.00,0.00,0.00,4.20,0.04,5.76,0.00,0.48,0.03,1.55,7.54,-0.53,1100,1100,1100,1100,1030,1501,1521,0,733
233203,0,0.23,-1.04,-0.56,0.045,-0.049,0.968,0.00,0.00,0.00,4.20,-0.23,5.24,0.00,0.49,0.05,-0.14,3.58,1.44,1100,1100,1100,1100,1030,1501,1521,0,733
233215,0,0.80,-0.01,0.88,0.059,-0.045,0.983,0.00,0.00,0.00,4.20,-0.80,4.21,-0.00,0.50,0.02,-0.69,0.28,-2.17,1100,1100,1100,1100,1030,1501,1521,0,733
233227,0,0.09,1.25,-1.16,0.050,-0.039,1.001,0.00,0.00,0.00,4.20,-0.09,2.95,0.00,0.52,0.05,-1.35,-8.34,2.94,1100,1100,1100,1100,1030,1501,1521,0,735
233239,0,-0.08,0.85,1.25,0.038,-0.050,0.988,0.00,0.00,0.00,4.20,0.08,3.35,0.00,0.52,0.03,0.29,0.98,-3.10,1100,1100,1100,1100,1030,1501,1521,0,735
233251,0,-0.80,0.42,-1.43,0.028,-0.040,1.025,0.00,0.00,0.00,4.20,0.80,3.78,0.00,0.53,0.05,-0.03,3.38,3.63,1100,1100,1100,1100,1030,1501,1521,0,735
233263,0,0.79,1.96,1.35,0.019,-0.041,0.998,0.00,0.00,0.00,4.20,-0.79,2.24,0.00,0.54,0.04,-4.12,-0.45,-3.33,1100,1100,1100,1100,1030,1501,1521,0,735
233275,0,-0.08,4.40,-1.33,-0.025,-0.038,1.076,0.00,0.00,0.00,4.20,0.08,-0.20,0.01,0.54,0.06,-2.83,-7.81,3.39,1100,1100,1100,1100,1030,1501,1521,0,735
233287,0,0.93,0.91,1.51,-0.000,-0.044,1.023,0.00,0.00,0.00,4.20,-0.93,3.29,0.00,0.54,0.04,-3.29,8.23,-3.73,1100,1100,1100,1100,1030,1501,1521,0,735
233299,0,0.86,5.35,-1.20,-0.040,-0.037,1.091,0.00,0.00,0.00,4.20,-0.86,-1.15,0.01,0.55,0.06,-5.07,-11.09,3.06,1100,1100,1100,1100,1030,1501,1521,0,735
233311,0,0.72,1.47,1.45,-0.010,-0.048,1.031,0.00,0.00,0.00,4.20,-0.72,2.73,0.00,0.55,0.04,-0.97,7.69,-3.58,1100,1100,1100,1100,1030,1501,1521,0,735
233323,0,1.27,0.48,-0.60,0.005,-0.049,1.044,0.00,0.00,0.00,4.20,-1.27,3.72,0.00,0.57,0.06,-5.77,-4.72,1.57,1100,1100,1100,1100,1030,1501,1521,0,736
233335,0,-0.99,3.65,0.63,-0.011,-0.049,1.036,0.00,0.00,0.00,4.20,0.99,0.55,0.00,0.57,0.04,5.72,-11.05,-1.53,1100,1100,1100,1100,1030,1501,1521,0,736
233347,0,1.15,1.42,-0.30,-0.002,-0.050,1.036,0.00,0.00,0.00,4.20,-1.15,2.78,0.00,0.58,0.06,-6.44,1.75,0.81,1100,1100,1100,1100,1030,1501,1521,0,736
233359,0,-0.86,1.09,0.29,0.012,-0.057,1.029,0.00,0.00,0.00,0.00,0.86,-1.09,0.00,0.59,0.04,3.38,-6.72,-0.67,1100,1100,1100,1100,1031,1502,1520,0,736
233371,0,0.47,0.36,0.22,0.045,-0.055,1.011,0.00,0.00,0.00,0.00,-0.47,-0.36,0.00,0.59,0.06,-3.15,-6.43,-0.49,1100,1100,1100,1100,1031,1502,1520,0,736
233383,0,0.08,1.66,-0.75,0.008,-0.058,1.002,0.00,0.00,0.00,4.20,-0.08,2.54,0.01,0.60,0.05,-2.27,-6.71,1.94,1100,1100,1100,1100,1031,1501,1521,0,736
233395,0,0.87,1.24,0.70,0.018,-0.038,1.040,0.00,0.00,0.00,0.00,-0.87,-1.24,0.01,0.60,0.06,-3.39,-0.71,-1.68,1100,1100,1100,1100,1030,1501,1520,0,736
233407,0,1.33,0.17,-1.11,0.021,-0.033,0.983,0.00,0.00,0.00,0.00,-1.33,-0.17,0.01,0.60,0.07,-4.92,1.63,2.85,1100,1100,1100,1100,1030,1501,1520,0,736
233419,0,-0.53,-0.85,0.51,0.034,-0.028,1.025,0.00,0.00,0.00,4.40,0.53,5.25,0.01,0.61,0.07,3.50,5.92,-1.22,1100,1100,1100,1100,1030,1500,1522,0,736
233431,0,-1.00,0.32,-0.68,0.007,-0.041,0.997,0.00,0.00,0.00,4.40,1.00,4.08,0.00,0.62,0.08,6.60,7.93,1.78,1100,1100,1100,1100,1030,1500,1522,0,736
233443,0,-0.23,-1.55,0.33,0.041,-0.045,1.027,0.00,0.00,0.00,4.20,0.23,5.75,0.00,0.63,0.07,0.79,8.42,-0.77,1100,1100,1100,1100,1030,1501,1521,0,736
233455,0,-1.46,-3.04,-0.10,0.038,-0.040,0.954,0.00,0.00,0.00,0.00,1.46,3.04,0.01,0.64,0.08,6.44,5.49,0.32,1100,1100,1100,1100,1030,1503,1519,0,736
233467,0,-0.84,1.36,-0.45,-0.020,-0.049,1.036,0.00,0.00,0.00,0.00,0.84,-1.36,0.01,0.64,0.08,2.42,-6.68,1.20,1100,1100,1100,1100,1030,1503,1519,0,736
233479,0,0.75,5.55,0.67,-0.014,-0.026,1.035,0.00,0.00,0.00,4.20,-0.75,-1.35,0.00,0.64,0.07,-2.86,-10.74,-1.60,1100,1100,1100,1100,1030,1501,1521,0,736
233491,0,1.62,0.33,-0.18,0.015,-0.066,1.010,0.00,0.00,0.00,4.20,-1.62,3.87,0.00,0.65,0.08,-8.14,7.46,0.53,1100,1100,1100,1100,1030,1501,1521,0,736
233503,0,-2.22,0.84,-0.13,-0.008,-0.027,1.013,0.00,0.00,0.00,4.20,2.22,3.36,0.01,0.66,0.08,6.42,-0.93,0.41,1100,1100,1100,1100,1030,1501,1521,0,736
233515,0,3.03,6.01,-0.45,-0.058,-0.024,1.025,0.00,0.00,0.00,4.20,-3.03,-1.81,0.00,0.66,0.10,-10.29,-15.22,1.21,1100,1100,1100,1100,1030,1501,1521,0,736
233527,0,0.09,8.58,-0.76,-0.091,-0.039,1.155,0.00,0.00,0.00,4.20,-0.09,-4.38,0.01,0.65,0.10,-3.35,-11.44,2.00,1100,1100,1100,1100,1030,1501,1521,0,735
233539,0,-1.37,2.61,0.92,-0.019,-0.035,1.067,0.00,0.00,0.00,4.20,1.37,1.59,0.00,0.65,0.10,9.56,18.44,-2.20,1100,1100,1100,1100,1030,1501,1521,0,735
233551,0,3.14,1.31,-0.71,0.068,-0.051,1.042,0.00,0.00,0.00,4.20,-3.14,2.89,0.00,0.65,0.12,-12.41,10.36,1.89,1100,1100,1100,1100,1030,1501,1521,0,735
233563,0,-3.69,-5.70,-0.26,0.110,-0.035,0.963,0.00,0.00,0.00,4.20,3.69,9.90,0.01,0.67,0.11,15.74,19.08,0.75,1100,1100,1100,1100,1030,1501,1521,0,735
233575,0,-1.10,-12.08,0.51,0.139,-0.074,0.903,0.00,0.00,0.00,4.20,1.10,16.28,0.00,0.70,0.11,7.18,31.31,-1.16,1100,1100,1100,1100,1032,1501,1521,0,735
233587,0,-2.53,-6.51,-0.34,0.109,-0.044,0.969,0.00,0.00,0.00,4.20,2.53,10.71,0.01,0.72,0.09,5.97,4.20,0.95,1100,1100,1100,1100,1032,1501,1521,0,735
233599,0,3.55,2.78,1.17,0.060,-0.041,0.938,0.00,0.00,0.00,4.20,-3.55,1.42,0.00,0.74,0.08,-12.51,-27.66,-2.85,1100,1100,1100,1100,1030,1501,1521,0,735
233611,0,2.76,-2.39,-0.26,0.080,-0.065,0.975,0.00,0.00,0.00,4.20,-2.76,6.59,0.00,0.76,0.09,-14.87,-0.64,0.74,1100,1100,1100,1100,1030,1501,1521,0,735
233623,0,-3.38,-4.93,0.47,0.048,-0.035,0.961,0.00,0.00,0.00,4.20,3.38,9.13,0.01,0.77,0.07,14.92,19.73,-1.10,1100,1100,1100,1100,1030,1501,1521,0,736
233635,0,1.77,2.04,0.41,0.012,-0.026,0.997,0.00,0.00,0.00,4.20,-1.77,2.16,0.01,0.79,0.08,-7.71,-14.30,-0.95,1100,1100,1100,1100,1030,1501,1521,0,736
233647,0,-1.46,-3.39,-1.12,-0.012,-0.021,1.022,0.00,0.00,0.00,4.20,1.46,7.59,0.01,0.80,0.08,2.69,6.60,2.89,1100,1100,1100,1100,1030,1501,1521,0,736
233659,0,0.09,-4.89,0.72,0.001,-0.041,0.973,0.00,0.00,0.00,4.20,-0.09,9.09,0.01,0.82,0.08,1.18,16.72,-1.71,1100,1100,1100,1100,1030,1501,1521,0,736
233671,0,-0.46,-4.53,-0.22,-0.050,-0.023,1.030,0.00,0.00,0.00,4.20,0.46,8.73,0.01,0.84,0.08,-0.30,10.95,0.63,1100,1100,1100,1100,1030,1501,1521,0,736
233683,0,0.83,2.00,0.01,-0.106,-0.012,1.052,0.00,0.00,0.00,0.00,-0.83,-2.00,0.01,0.84,0.07,-2.83,-16.80,0.06,1100,1100,1100,1100,1030,1502,1520,0,736
233695,0,0.86,0.77,0.25,-0.096,-0.014,1.040,0.00,0.00,0.00,0.00,-0.86,-0.77,0.01,0.84,0.07,-3.27,-10.89,-0.56,1100,1100,1100,1100,1030,1502,1520,0,736
233707,0,-2.42,-2.60,-0.74,-0.113,-0.026,1.066,0.00,0.00,0.00,0.00,2.42,2.60,0.01,0.84,0.07,11.10,13.01,1.93,1100,1100,1100,1100,1030,1502,1520,0,736
233719,0,-1.05,-1.82,1.47,-0.110,-0.003,1.048,0.00,0.00,0.00,0.00,1.05,1.82,0.01,0.84,0.05,4.01,8.63,-3.63,1100,1100,1100,1100,1030,1502,1520,0,731
233731,0,0.86,-3.19,-0.08,-0.076,-0.037,1.075,0.00,0.00,0.00,0.00,-0.86,3.19,0.01,0.85,0.07,-4.57,12.06,0.27,1100,1100,1100,1100,1030,1502,1520,0,731
233743,0,1.51,3.16,-0.33,-0.054,-0.064,1.076,0.00,0.00,0.00,4.20,-1.51,1.04,0.01,0.86,0.05,-8.78,-18.33,0.87,1100,1100,1100,1100,1030,1500,1521,0,731
233755,0,-0.93,-0.37,0.81,0.034,-0.043,0.979,0.00,0.00,0.00,4.20,0.93,4.57,0.01,0.88,0.05,3.47,-6.35,-1.98,1100,1100,1100,1100,1029,1501,1521,0,731
233767,0,0.64,-0.35,-0.29,0.059,-0.071,0.977,0.00,0.00,0.00,4.20,-0.64,4.55,0.01,0.89,0.05,-2.85,-3.02,0.78,1100,1100,1100,1100,1029,1501,1521,0,731
233779,0,-3.15,-8.59,0.33,0.100,-0.063,0.927,0.00,0.00,0.00,4.20,3.15,12.79,0.01,0.91,0.03,13.10,37.40,-0.79,1100,1100,1100,1100,1030,1501,1521,0,731
233791,0,-0.35,-5.56,-0.39,0.077,-0.038,0.980,0.00,0.00,0.00,4.20,0.35,9.76,0.01,0.92,0.04,6.69,17.86,1.03,1100,1100,1100,1100,1030,1501,1521,0,731
233803,0,1.64,-2.58,-0.78,0.047,-0.053,0.981,0.00,0.00,0.00,4.20,-1.64,6.78,0.01,0.94,0.03,-9.98,3.19,1.98,1100,1100,1100,1100,1030,1501,1521,0,731
233815,0,-0.90,6.60,1.46,0.015,-0.007,1.033,0.00,0.00,0.00,4.20,0.90,-2.40,0.01,0.94,0.03,5.46,-26.37,-3.63,1100,1100,1100,1100,1030,1501,1521,0,731
233827,0,5.51,4.18,-0.17,-0.001,-0.025,1.031,0.00,0.00,0.00,4.20,-5.51,0.02,0.00,0.95,0.03,-21.68,-14.17,0.45,1100,1100,1100,1100,1030,1501,1521,0,733
233839,0,-1.90,-0.62,0.41,0.006,-0.034,1.013,0.00,0.00,0.00,4.20,1.90,4.82,0.01,0.96,0.02,6.06,8.98,-1.00,1100,1100,1100,1100,1030,1501,1521,0,733
233851,0,-0.56,-7.20,-0.28,0.028,-0.029,0.985,0.00,0.00,0.00,4.20,0.56,11.40,0.00,0.98,0.03,8.55,30.43,0.74,1100,1100,1100,1100,1030,1501,1521,0,733
233863,0,-0.20,-2.63,-0.58,0.027,-0.052,0.993,0.00,0.00,0.00,4.20,0.20,6.83,0.01,0.99,0.02,-1.69,10.40,1.47,1100,1100,1100,1100,1030,1501,1521,0,733
233875,0,-3.32,0.41,0.79,0.046,-0.020,0.997,0.00,0.00,0.00,4.20,3.32,3.79,0.01,1.00,0.01,15.20,-9.30,-1.96,1100,1100,1100,1100,1030,1501,1521,0,733
233887,0,2.38,-2.78,-0.28,0.111,-0.065,0.924,0.00,0.00,0.00,4.20,-2.38,6.98,0.00,1.02,0.01,-8.77,8.05,0.72,1100,1100,1100,1100,1030,1501,1521,0,733
233899,0,-1.92,-2.15,0.29,0.103,-0.057,0.990,0.00,0.00,0.00,4.20,1.92,6.35,0.01,1.03,0.00,4.04,1.62,-0.72,1100,1100,1100,1100,1030,1501,1521,0,733
233911,0,1.02,-5.56,0.30,0.141,-0.024,0.899,0.00,0.00,0.00,4.20,-1.02,9.76,0.00,1.06,0.01,-2.58,5.44,-0.75,1100,1100,1100,1100,1030,1501,1521,0,733
233923,0,3.98,1.96,-0.31,0.128,-0.066,0.947,0.00,0.00,0.00,4.20,-3.98,2.24,0.00,1.07,0.02,-18.54,-12.04,0.78,1100,1100,1100,1100,1030,1501,1521,0,733
233935,0,-3.78,0.11,-0.75,0.112,-0.072,0.962,0.00,0.00,0.00,4.20,3.78,4.09,0.01,1.08,0.03,14.97,-2.95,1.91,1100,1100,1100,1100,1030,1501,1521,0,733
233947,0,-2.69,-4.55,-0.04,0.128,-0.100,0.917,0.00,0.00,0.00,4.20,2.69,8.75,0.01,1.10,0.03,13.44,21.02,0.13,1100,1100,1100,1100,1030,1501,1521,0,733
233959,0,-2.07,-2.74,-0.68,0.063,-0.085,1.007,0.00,0.00,0.00,4.20,2.07,6.94,0.01,1.10,0.04,2.96,17.43,1.75,1100,1100,1100,1100,1030,1501,1521,0,733
233971,0,-0.33,5.63,0.20,-0.007,-0.026,1.021,0.00,0.00,0.00,4.20,0.33,-1.43,0.01,1.11,0.03,0.52,-24.24,-0.48,1100,1100,1100,1100,1030,1501,1521,0,733
233983,0,4.93,2.56,0.75,-0.018,-0.076,1.038,0.00,0.00,0.00,4.20,-4.93,1.64,0.01,1.12,0.03,-21.94,-12.87,-1.85,1100,1100,1100,1100,1030,1496,1521,0,733
233995,0,-1.95,2.66,-0.24,-0.050,-0.076,1.032,0.00,0.00,0.00,4.20,1.95,1.54,0.01,1.13,0.03,5.71,0.99,0.62,1100,1100,1100,1100,1030,1501,1521,0,733
234007,0,-0.47,-4.68,1.11,-0.055,-0.071,1.014,0.00,0.00,0.00,4.20,0.47,8.88,0.01,1.14,0.02,5.72,23.50,-2.75,1100,1100,1100,1100,1030,1501,1521,0,733
234019,0,0.81,-7.90,-1.33,0.006,-0.098,1.040,0.00,0.00,0.00,4.20,-0.81,12.10,0.01,1.16,0.03,-6.83,31.24,3.35,1100,1100,1100,1100,1030,1501,1521,0,735
234031,0,-2.67,0.96,-0.03,0.034,-0.063,0.979,0.00,0.00,0.00,4.20,2.67,3.24,0.01,1.17,0.01,11.74,-15.78,0.09,1100,1100,1100,1100,1030,1501,1521,0,735
234043,0,1.67,-5.97,0.94,0.138,-0.088,0.934,0.00,0.00,0.00,4.20,-1.67,10.17,0.01,1.20,0.02,-6.80,3.83,-2.32,1100,1100,1100,1100,1030,1501,1521,0,735
234055,0,-2.84,-10.78,-0.04,0.146,-0.066,0.884,0.00,0.00,0.00,4.20,2.84,14.98,0.01,1.23,0.00,7.30,21.36,0.10,1100,1100,1100,1100,1030,1501,1521,0,735
234067,0,1.94,-9.13,1.08,0.202,-0.045,0.874,0.00,0.00,0.00,4.20,-1.94,13.33,0.01,1.26,-0.01,-6.07,10.50,-2.71,1100,1100,1100,1100,1030,1501,1521,0,735
234079,0,2.06,-8.23,-0.85,0.199,-0.092,0.886,0.00,0.00,0.00,0.00,-2.06,8.23,0.01,1.29,-0.00,-12.87,-0.98,2.13,1100,1100,1100,1100,1030,1502,1520,0,735
234091,0,-3.49,-6.54,0.63,0.219,-0.092,0.816,0.00,0.00,0.00,0.00,3.49,6.54,0.02,1.31,-0.03,14.34,-2.99,-1.61,1100,1100,1100,1100,1030,1502,1520,0,735
234103,0,0.56,-6.34,0.98,0.235,-0.080,0.844,0.00,0.00,0.00,4.40,-0.56,10.74,0.02,1.33,-0.02,-1.74,1.55,-2.46,1100,1100,1100,1100,1029,1500,1522,0,735
234115,0,0.22,-7.29,-0.50,0.197,-0.072,0.838,0.00,0.00,0.00,0.00,-0.22,7.29,0.02,1.36,-0.04,-2.80,5.03,1.22,1100,1100,1100,1100,1030,1501,1520,0,735
234127,0,-0.10,-1.61,0.32,0.161,-0.032,0.914,0.00,0.00,0.00,0.00,0.10,1.61,0.01,1.37,-0.04,1.38,-11.05,-0.83,1100,1100,1100,1100,1030,1501,1520,0,731
234139,0,0.07,-2.59,-0.36,0.140,-0.070,0.904,0.00,0.00,0.00,4.20,-0.07,6.79,0.01,1.38,-0.04,1.10,10.35,0.85,1100,1100,1100,1100,1029,1501,1521,0,731
234151,0,-0.57,1.26,0.53,0.063,-0.057,0.963,0.00,0.00,0.00,4.20,0.57,2.94,0.02,1.39,-0.05,0.21,-3.30,-1.38,1100,1100,1100,1100,1029,1501,1521,0,731
234163,0,-0.81,-3.94,-0.11,0.087,-0.059,0.960,0.00,0.00,0.00,4.20,0.81,8.14,0.02,1.40,-0.04,4.44,19.57,0.22,1100,1100,1100,1100,1029,1501,1521,0,731
234175,0,2.73,9.78,-0.67,-0.018,-0.070,1.016,0.00,0.00,0.00,5.00,-2.73,-4.78,0.02,1.39,-0.03,-11.75,-27.17,1.65,1100,1100,1100,1100,1223,1500,1525,0,731
234187,0,-3.44,7.88,-0.47,-0.032,-0.026,1.035,0.00,0.00,0.00,5.00,3.44,-2.88,0.02,1.39,-2.11,12.29,-11.96,-110.00,1100,1100,1100,1100,1223,1500,1525,0,731
234199,0,1.38,6.12,-0.63,-0.104,-0.008,1.076,0.00,0.00,0.00,4.20,-1.38,-1.92,0.01,1.38,-3.49,-1.33,13.24,-1.91,1100,1100,1100,1100,1030,1501,1521,0,731
234211,0,0.92,6.05,-0.92,-0.148,-0.034,1.145,0.00,0.00,0.00,4.20,-0.92,-1.85,0.02,1.37,-3.47,-7.73,13.71,-1.17,1100,1100,1100,1100,1030,1501,1521,0,731
234223,0,-1.83,12.52,-0.20,-0.168,0.013,1.218,0.00,0.00,0.00,4.20,1.83,-8.32,0.01,1.35,-3.46,11.25,-12.98,-2.96,1100,1100,1100,1100,1030,1501,1521,0,735
234235,0,4.90,8.36,-0.19,-0.129,-0.050,1.133,0.00,0.00,0.00,4.20,-4.90,-4.16,0.01,1.35,-3.44,-19.48,-5.51,-2.95,1100,1100,1100,1100,1030,1501,1521,0,735
234247,0,-4.08,9.20,-0.29,-0.139,-0.025,1.166,0.00,0.00,0.00,4.20,4.08,-5.00,0.02,1.35,-3.43,11.91,-16.25,-2.71,1100,1100,1100,1100,1030,1501,1521,0,735
234259,0,2.24,3.13,0.71,-0.083,-0.005,1.093,0.00,0.00,0.00,4.20,-2.24,1.07,0.01,1.35,-3.43,-2.63,-1.26,-5.20,1100,1100,1100,1100,1031,1501,1521,0,735
234271,0,5.58,1.30,0.29,0.004,-0.082,1.033,0.00,0.00,0.00,4.20,-5.58,2.90,0.02,1.37,-3.43,-28.66,-6.40,-4.14,1100,1100,1100,1100,1031,1501,1521,0,735
234283,0,-4.23,2.84,-0.32,0.016,-0.033,1.055,0.00,0.00,0.00,4.20,4.23,1.36,0.02,1.38,-3.44,16.76,-12.21,-2.64,1100,1100,1100,1100,1031,1501,1521,0,735
234295,0,2.25,-1.89,0.51,0.100,-0.047,0.966,0.00,0.00,0.00,4.20,-2.25,6.09,0.01,1.40,-3.44,-2.90,8.22,-4.72,1100,1100,1100,1100,1031,1501,1521,0,735
234307,0,1.40,1.00,0.26,0.062,-0.051,0.973,0.00,0.00,0.00,4.20,-1.40,3.20,0.02,1.40,-3.43,-10.26,7.15,-4.09,1100,1100,1100,1100,1031,1501,1521,0,735
234319,0,-2.16,-4.88,-0.67,0.035,-0.012,0.986,0.00,0.00,0.00,4.20,2.16,9.08,0.01,1.42,-3.43,10.99,23.27,-1.77,1100,1100,1100,1100,1031,1501,1521,0,736
234331,0,4.49,-6.01,0.12,0.109,-0.031,0.946,0.00,0.00,0.00,4.20,-4.49,10.21,0.01,1.44,-3.42,-15.39,12.40,-3.72,1100,1100,1100,1100,1031,1501,1521,0,736
234343,0,-0.81,2.55,-0.86,0.089,-0.040,0.992,0.00,0.00,0.00,4.20,0.81,1.65,0.01,1.45,-3.41,2.55,-18.70,-1.24,1100,1100,1100,1100,1034,1501,1521,0,736
234355,0,-2.32,2.39,-0.42,0.106,-0.037,0.920,0.00,0.00,0.00,4.20,2.32,1.81,0.01,1.46,-3.41,13.05,-4.36,-2.35,1100,1100,1100,1100,1034,1501,1521,0,736
234367,0,1.40,-0.95,0.36,0.077,-0.063,0.961,0.00,0.00,0.00,4.20,-1.40,5.15,0.01,1.47,-3.40,-5.10,14.89,-4.31,1100,1100,1100,1100,1034,1501,1521,0,736
234379,0,-0.85,-2.80,-1.23,0.029,-0.057,0.991,0.00,0.00,0.00,4.20,0.85,7.00,0.01,1.47,-3.38,1.55,20.38,-0.32,1100,1100,1100,1100,1034,1502,1521,0,736
234391,0,-1.94,3.27,0.35,0.030,-0.026,1.043,0.00,0.00,0.00,4.20,1.94,0.93,0.01,1.48,-3.40,9.58,-8.60,-4.26,1100,1100,1100,1100,1034,1502,1521,0,736
234403,0,2.30,5.18,0.39,0.038,-0.057,1.033,0.00,0.00,0.00,4.20,-2.30,-0.98,0.01,1.49,-3.39,-7.65,-14.60,-4.38,1100,1100,1100,1100,1034,1501,1521,0,736
234415,0,-1.14,6.23,-1.35,-0.007,-0.069,1.029,0.00,0.00,0.00,4.20,1.14,-2.03,0.01,1.49,-3.39,5.24,-10.39,-0.01,1100,1100,1100,1100,1034,1501,1521,0,736
234427,0,-0.24,4.52,1.05,0.015,-0.030,1.051,0.00,0.00,0.00,4.20,0.24,-0.32,0.01,1.49,-3.39,4.58,-10.32,-6.01,1100,1100,1100,1100,1034,1501,1521,0,735
234439,0,2.23,-2.19,0.07,0.064,-0.074,0.970,0.00,0.00,0.00,4.20,-2.23,6.39,0.01,1.50,-3.38,-9.33,15.42,-3.56,1100,1100,1100,1100,1034,1501,1521,0,735
234451,0,-1.64,-3.13,0.17,0.072,-0.055,0.981,0.00,0.00,0.00,4.20,1.64,7.33,0.01,1.52,-3.40,4.81,14.71,-3.83,1100,1100,1100,1100,1034,1501,1521,0,735
234463,0,0.90,-3.95,0.15,0.090,-0.039,1.012,0.00,0.00,0.00,0.00,-0.90,3.95,0.01,1.52,-3.39,-0.75,15.29,-3.76,1100,1100,1100,1100,1034,1501,1520,0,735
234475,0,1.75,4.09,-0.46,0.043,-0.050,0.972,0.00,0.00,0.00,0.00,-1.75,-4.09,0.01,1.51,-3.39,-9.34,-9.34,-2.25,1100,1100,1100,1100,1034,1502,1520,0,735
234487,0,-1.68,1.74,0.02,0.030,-0.051,1.032,0.00,0.00,0.00,0.00,1.68,-1.74,0.01,1.51,-3.39,7.33,1.12,-3.44,1100,1100,1100,1100,1034,1502,1520,0,735
234499,0,2.50,-6.82,-0.02,0.055,-0.035,0.931,0.00,0.00,0.00,4.20,-2.50,11.02,0.01,1.53,-3.39,-8.59,19.60,-3.34,1100,1100,1100,1100,1035,1500,1521,0,735
234511,0,-1.90,-9.62,-0.18,0.092,-0.052,0.926,0.00,0.00,0.00,4.20,1.90,13.82,0.01,1.56,-3.38,6.26,17.41,-2.92,1100,1100,1100,1100,1035,1500,1521,0,735
234523,0,-4.22,-9.06,0.23,0.135,0.005,0.896,0.00,0.00,0.00,4.20,4.22,13.26,0.01,1.60,-3.39,19.43,-2.06,-3.98,1100,1100,1100,1100,1034,1502,1521,0,735
234535,0,2.79,-10.34,0.84,0.193,-0.049,0.781,0.00,0.00,0.00,4.20,-2.79,14.54,0.01,1.63,-3.40,-10.05,11.97,-5.50,1100,1100,1100,1100,1034,1501,1521,0,735
234547,0,-0.59,-9.38,-0.74,0.189,-0.036,0.886,0.00,0.00,0.00,4.20,0.59,13.58,0.01,1.66,-3.40,-0.62,12.66,-1.55,1100,1100,1100,1100,1034,1501,1521,0,735
234559,0,1.66,-0.87,0.44,0.156,-0.017,0.913,0.00,0.00,0.00,4.20,-1.66,5.07,0.00,1.67,-3.41,-0.13,1.11,-4.52,1100,1100,1100,1100,1034,1501,1521,0,735
234571,0,4.09,5.05,0.28,0.145,-0.067,0.949,0.00,0.00,0.00,4.20,-4.09,-0.85,0.00,1.67,-3.40,-17.39,-13.48,-4.10,1100,1100,1100,1100,1034,1501,1521,0,735
234583,0,-2.66,6.20,-0.84,0.097,-0.041,0.984,0.00,0.00,0.00,4.40,2.66,-1.80,0.00,1.67,-3.40,12.34,-12.55,-1.30,1100,1100,1100,1100,1038,1501,1522,0,735
234595,0,2.33,3.48,-0.15,0.104,-0.080,0.953,0.00,0.00,0.00,4.20,-2.33,0.72,-0.00,1.67,-3.38,-4.91,4.12,-3.00,1100,1100,1100,1100,1034,1501,1521,0,735
234607,0,-2.41,-0.30,-1.02,0.101,-0.062,0.978,0.00,0.00,0.00,4.20,2.41,4.50,0.01,1.68,-3.37,5.03,9.68,-0.81,1100,1100,1100,1100,1034,1501,1521,0,735
234619,0,-5.14,-8.70,0.52,0.127,-0.011,0.942,0.00,0.00,0.00,4.20,5.14,12.90,0.00,1.70,-3.38,22.55,30.85,-4.67,1100,1100,1100,1100,1034,1501,1521,0,736
234631,0,3.82,-2.47,0.44,0.134,-0.050,0.927,0.00,0.00,0.00,4.20,-3.82,6.67,0.00,1.72,-3.37,-18.67,1.48,-4.48,1100,1100,1100,1100,1034,1501,1521,0,736
234643,0,-1.21,-8.46,-0.78,0.143,-0.012,0.937,0.00,0.00,0.00,4.20,1.21,12.66,0.01,1.75,-3.38,0.43,13.87,-1.43,1100,1100,1100,1100,1034,1501,1521,0,736
234655,0,3.64,-4.53,0.72,0.205,-0.044,0.898,0.00,0.00,0.00,4.20,-3.64,8.73,0.00,1.76,-3.39,-9.48,11.52,-5.20,1100,1100,1100,1100,1035,1501,1521,0,736
234667,0,-0.70,1.45,-0.01,0.194,-0.064,0.929,0.00,0.00,0.00,4.20,0.70,2.75,0.01,1.78,-3.38,0.06,-14.91,-3.34,1100,1100,1100,1100,1035,1501,1521,0,736
234679,0,-3.44,-0.06,0.27,0.191,-0.044,0.903,0.00,0.00,0.00,4.20,3.44,4.26,0.00,1.79,-3.39,18.37,-2.04,-4.07,1100,1100,1100,1100,1035,1501,1521,0,736
234691,0,3.43,-4.31,0.72,0.230,-0.072,0.844,0.00,0.00,0.00,4.20,-3.43,8.51,0.00,1.81,-3.40,-13.53,8.74,-5.20,1100,1100,1100,1100,1035,1501,1521,0,736
234703,0,-1.66,-6.66,-1.15,0.212,-0.058,0.886,0.00,0.00,0.00,4.20,1.66,10.86,0.00,1.83,-3.39,5.61,21.35,-0.51,1100,1100,1100,1100,1035,1501,1521,0,736
234715,0,-1.03,-3.07,0.25,0.183,-0.031,0.885,0.00,0.00,0.00,4.20,1.03,7.27,0.00,1.85,-3.40,7.27,1.26,-4.03,1100,1100,1100,1100,1035,1501,1521,0,736
234727,0,0.02,-5.34,0.85,0.147,-0.027,0.859,0.00,0.00,0.00,4.20,-0.02,9.54,0.00,1.87,-3.39,-1.63,11.12,-5.52,1100,1100,1100,1100,1035,1501,1521,0,736
234739,0,1.11,-1.76,-1.07,0.059,-0.011,0.974,0.00,0.00,0.00,4.20,-1.11,5.96,0.00,1.89,-3.39,-4.27,-4.30,-0.71,1100,1100,1100,1100,1035,1501,1521,0,736
234751,0,1.52,1.70,0.84,0.045,-0.015,0.982,0.00,0.00,0.00,4.20,-1.52,2.50,0.00,1.90,-3.40,-5.57,-8.08,-5.49,1100,1100,1100,1100,1035,1501,1521,0,736
234763,0,-0.45,4.79,-0.66,0.017,-0.045,1.030,0.00,0.00,0.00,4.20,0.45,-0.59,0.00,1.90,-3.38,3.67,-13.27,-1.72,1100,1100,1100,1100,1035,1501,1521,0,736
234775,0,-1.26,-1.21,0.06,0.038,-0.062,0.972,0.00,0.00,0.00,0.00,1.26,1.21,0.00,1.91,-3.39,5.54,11.84,-3.55,1100,1100,1100,1100,1036,1496,1520,0,736
234787,0,-0.52,-5.44,0.49,0.058,-0.066,0.995,0.00,0.00,0.00,0.00,0.52,5.44,0.00,1.92,-3.38,2.52,19.90,-4.61,1100,1100,1100,1100,1036,1496,1520,0,736
234799,0,1.34,0.89,-1.66,0.010,-0.055,1.013,0.00,0.00,0.00,4.40,-1.34,3.51,0.00,1.92,-3.37,-5.45,1.07,0.79,1100,1100,1100,1100,1035,1501,1522,0,736
234811,0,-1.41,-1.02,0.84,0.029,-0.023,1.014,0.00,0.00,0.00,4.40,1.41,5.42,0.00,1.93,-3.38,5.21,5.31,-5.48,1100,1100,1100,1100,1035,1501,1522,0,736
234823,0,0.01,2.27,-0.18,-0.009,-0.041,1.020,0.00,0.00,0.00,4.20,-0.01,1.93,0.00,1.94,-3.36,1.16,-0.23,-2.91,1100,1100,1100,1100,1035,1501,1521,0,773
234835,0,-0.58,-0.46,-0.15,-0.042,-0.041,1.043,0.00,0.00,0.00,4.20,0.58,4.66,0.00,1.95,-3.37,-1.15,5.11,-3.00,1100,1100,1100,1100,1035,1502,1521,0,773
234847,0,0.01,-1.13,0.42,-0.023,-0.036,1.059,0.00,0.00,0.00,4.20,-0.01,5.33,0.00,1.96,-3.36,0.31,12.28,-4.42,1100,1100,1100,1100,1035,1502,1521,0,773
234859,0,2.27,5.39,-1.26,-0.044,-0.045,1.049,0.00,0.00,0.00,4.20,-2.27,-1.19,0.00,1.96,-3.35,-9.36,-17.06,-0.21,1100,1100,1100,1100,1036,1502,1521,0,773
234871,0,-2.20,3.05,0.33,-0.038,-0.042,1.064,0.00,0.00,0.00,4.20,2.20,1.15,0.00,1.97,-3.35,8.95,-4.31,-4.17,1100,1100,1100,1100,1036,1502,1521,0,773
234883,0,-1.26,-1.18,-0.12,-0.040,-0.053,1.019,0.00,0.00,0.00,4.20,1.26,5.38,0.00,1.98,-3.33,7.17,17.22,-3.04,1100,1100,1100,1100,1036,1501,1521,0,773
234895,0,-0.12,-2.16,-0.56,-0.053,-0.070,1.071,0.00,0.00,0.00,4.20,0.12,6.36,0.00,1.98,-3.33,-0.65,21.83,-1.93,1100,1100,1100,1100,1036,1501,1521,0,773
234907,0,-1.47,3.03,-0.31,-0.074,-0.018,1.124,0.00,0.00,0.00,4.20,1.47,1.17,0.00,1.99,-3.32,5.93,-6.85,-2.56,1100,1100,1100,1100,1036,1501,1521,0,773
234919,0,1.25,3.02,-0.21,-0.012,-0.041,0.990,0.00,0.00,0.00,4.20,-1.25,1.18,0.00,2.00,-3.32,-3.62,-7.47,-2.81,1100,1100,1100,1100,1037,1501,1521,0,731
234931,0,0.46,2.49,0.08,-0.023,-0.016,1.062,0.00,0.00,0.00,4.20,-0.46,1.71,0.00,2.01,-3.32,-5.06,-8.93,-3.51,1100,1100,1100,1100,1037,1501,1521,0,731
234943,0,-1.03,-4.11,0.23,-0.054,-0.013,1.001,0.00,0.00,0.00,4.20,1.03,8.31,0.00,2.02,-3.32,7.05,23.70,-3.88,1100,1100,1100,1100,1046,1501,1521,0,731
234955,0,3.14,7.57,-0.53,-0.140,-0.037,1.134,0.00,0.00,0.00,4.20,-3.14,-3.37,0.00,2.02,-3.30,-14.31,-13.88,-1.97,1100,1100,1100,1100,1042,1501,1521,0,731
234967,0,-2.21,8.46,-0.72,-0.151,-0.032,1.133,0.00,0.00,0.00,4.20,2.21,-4.26,0.00,2.01,-3.29,8.34,-6.55,-1.49,1100,1100,1100,1100,1042,1501,1521,0,731
234979,0,1.72,7.44,-0.05,-0.126,-0.065,1.103,0.00,0.00,0.00,4.20,-1.72,-3.24,-0.00,2.00,-3.28,-3.13,0.01,-3.15,1100,1100,1100,1100,1047,1501,1521,0,731
234991,0,-1.53,0.01,-0.62,-0.084,-0.069,1.153,0.00,0.00,0.00,4.20,1.53,4.19,0.00,2.00,-3.28,2.85,24.99,-1.73,1100,1100,1100,1100,1047,1501,1521,0,731
235003,0,-3.45,-3.36,0.88,-0.029,-0.013,1.080,0.00,0.00,0.00,4.20,3.45,7.56,0.00,2.01,-3.29,14.88,20.69,-5.49,1100,1100,1100,1100,1051,1501,1521,0,731
235015,0,3.31,-5.98,0.38,0.108,-0.064,1.014,0.00,0.00,0.00,4.20,-3.31,10.18,0.00,2.03,-3.29,-16.02,14.19,-4.23,1100,1100,1100,1100,1051,1501,1521,0,731
235027,0,-1.25,-3.67,-0.22,0.144,-0.041,0.966,0.00,0.00,0.00,4.20,1.25,7.87,0.01,2.06,-3.31,0.26,-7.44,-2.76,1100,1100,1100,1100,1051,1501,1521,0,735
235039,0,1.02,-13.05,1.01,0.268,-0.074,0.841,0.00,0.00,0.00,4.20,-1.02,17.25,0.00,2.09,-3.32,-0.19,31.36,-5.84,1100,1100,1100,1100,1056,1501,1521,0,735
235051,0,2.56,0.56,-0.52,0.164,-0.082,0.959,0.00,0.00,0.00,4.20,-2.56,3.64,0.01,2.11,-3.30,-16.07,-19.33,-2.00,1100,1100,1100,1100,1056,1501,1521,0,735
235063,0,-5.13,1.21,-0.23,0.085,-0.049,0.962,0.00,0.00,0.00,4.20,5.13,2.99,0.01,2.11,-3.30,21.68,11.32,-2.73,1100,1100,1100,1100,1056,1501,1521,0,735
235075,0,3.20,6.14,-0.01,0.046,-0.036,1.010,0.00,0.00,0.00,4.20,-3.20,-1.94,0.01,2.12,-3.29,-11.36,-18.25,-3.25,1100,1100,1100,1100,1058,1501,1521,0,735
235087,0,0.53,-0.03,-0.88,0.036,-0.040,0.996,0.00,0.00,0.00,4.20,-0.53,4.23,0.01,2.12,-3.28,-6.18,11.45,-1.09,1100,1100,1100,1100,1058,1501,1521,0,735
235099,0,-2.55,0.96,0.25,0.024,-0.035,1.000,0.00,0.00,0.00,4.20,2.55,3.24,0.01,2.13,-3.28,12.05,3.55,-3.92,1100,1100,1100,1100,1058,1501,1521,0,735
235111,0,-1.25,-2.46,-0.15,0.033,-0.051,1.020,0.00,0.00,0.00,4.20,1.25,6.66,0.01,2.14,-3.27,3.64,17.92,-2.90,1100,1100,1100,1100,1058,1501,1521,0,735
235123,0,-1.21,5.41,-0.50,-0.025,-0.050,1.054,0.00,0.00,0.00,4.20,1.21,-1.21,0.01,2.15,-3.27,1.07,-17.77,-2.04,1100,1100,1100,1100,1059,1501,1521,0,736
235135,0,0.82,-3.01,0.89,0.064,-0.049,0.986,0.00,0.00,0.00,4.20,-0.82,7.21,0.01,2.16,-3.28,-5.12,16.67,-5.50,1100,1100,1100,1100,1071,1501,1521,0,736
235147,0,2.96,-1.77,-0.20,0.046,-0.068,1.021,0.00,0.00,0.00,4.20,-2.96,5.97,0.01,2.17,-3.27,-12.86,7.73,-2.76,1100,1100,1100,1100,1071,1501,1521,0,736
235159,0,-1.74,-4.03,0.16,0.068,-0.068,0.936,0.00,0.00,0.00,4.20,1.74,8.23,0.02,2.19,-3.28,5.33,7.01,-3.67,1100,1100,1100,1100,1075,1500,1521,0,736
235171,0,-0.78,-0.81,0.51,0.059,-0.048,0.967,0.00,0.00,0.00,4.20,0.78,5.01,0.01,2.21,-3.28,7.31,-4.36,-4.55,1100,1100,1100,1100,1075,1500,1521,0,736
235183,0,2.26,-0.22,-0.85,0.040,-0.071,0.959,0.00,0.00,0.00,4.20,-2.26,4.42,0.01,2.22,-3.12,-9.27,0.62,18.80,1100,1100,1100,1100,1075,1499,1521,0,736
235195,0,-3.54,0.16,0.51,0.041,-0.019,0.987,0.00,0.00,0.00,4.20,3.54,4.04,0.01,2.23,-2.89,14.59,-0.36,15.64,1100,1100,1100,1100,1099,1500,1521,0,736
235207,0,1.91,-3.05,-0.31,0.052,-0.061,0.985,0.00,0.00,0.00,4.20,-1.91,7.25,0.01,2.24,-2.88,-3.53,20.59,-2.10,1100,1100,1100,1100,1099,1500,1521,0,736
235219,0,-0.77,2.84,0.03,0.015,-0.070,1.018,0.00,0.00,0.00,4.40,0.77,1.56,0.01,2.25,-2.89,-1.64,-2.45,-2.98,1100,1100,1100,1100,1098,1500,1522,0,736
235231,0,-0.57,4.68,0.33,0.028,-0.061,1.051,0.00,0.00,0.00,4.40,0.57,-0.28,0.01,2.25,-2.88,5.59,-4.80,-3.72,1100,1100,1100,1100,1098,1500,1522,0,736
235243,0,4.87,11.02,-0.76,0.025,-0.099,1.018,0.00,0.00,0.00,4.40,-4.87,-6.62,0.01,2.24,-2.87,-21.85,-22.25,-0.97,1100,1100,1100,1100,1105,1501,1522,0,736
235255,0,-4.46,4.36,0.19,0.032,-0.045,1.037,0.00,0.00,0.00,4.20,4.46,-0.16,0.01,2.25,-2.87,17.34,0.77,-3.35,1100,1100,1100,1100,1106,1501,1521,0,736
235267,0,1.40,-2.50,-0.34,0.043,-0.050,1.011,0.00,0.00,0.00,4.20,-1.40,6.70,0.01,2.25,-2.86,-2.84,26.56,-2.02,1100,1100,1100,1100,1106,1501,1521,0,736
235279,0,-1.19,-3.16,-0.39,0.029,-0.055,1.013,0.00,0.00,0.00,4.20,1.19,7.36,0.02,2.26,-2.86,-0.57,20.12,-1.89,1100,1100,1100,1100,1106,1501,1521,0,736
235291,0,-0.84,1.90,-0.12,0.036,-0.026,1.070,0.00,0.00,0.00,4.20,0.84,2.30,0.01,2.27,-2.85,7.27,-4.67,-2.56,1100,1100,1100,1100,1106,1501,1521,0,736
235303,0,0.59,0.83,-0.51,0.078,-0.090,0.968,0.00,0.00,0.00,4.20,-0.59,3.37,0.01,2.28,-2.84,-4.85,-0.68,-1.57,1100,1100,1100,1100,1127,1501,1521,0,736
235315,0,-4.17,4.19,-0.15,0.072,-0.061,1.023,0.00,0.00,0.00,4.20,4.17,0.01,0.02,2.28,-2.84,15.91,-6.10,-2.45,1100,1100,1100,1100,1127,1501,1521,0,736
235327,0,5.23,2.03,0.32,0.058,-0.049,0.981,0.00,0.00,0.00,4.20,-5.23,2.17,0.01,2.29,-2.84,-20.03,1.97,-3.64,1100,1100,1100,1100,1127,1501,1521,0,735
235339,0,2.37,0.54,-0.18,0.019,-0.084,1.038,0.00,0.00,0.00,4.20,-2.37,3.66,0.01,2.29,-2.82,-13.41,16.12,-2.37,1100,1100,1100,1100,1131,1501,1521,0,735
235351,0,-3.71,7.46,-0.96,-0.060,-0.047,1.105,0.00,0.00,0.00,4.20,3.71,-3.26,0.01,2.29,-2.82,19.18,-10.13,-0.43,1100,1100,1100,1100,1131,1501,1521,0,735
235363,0,0.18,5.65,0.98,-0.107,-0.058,1.058,0.00,0.00,0.00,4.20,-0.18,-1.45,0.01,2.29,-2.82,0.22,-1.98,-5.26,1100,1100,1100,1100,1131,1501,1521,0,735
235375,0,-2.37,6.66,-1.43,-0.169,-0.033,1.151,0.00,0.00,0.00,4.20,2.37,-2.46,0.02,2.28,-2.80,6.22,0.71,0.78,1100,1100,1100,1100,1149,1496,1521,0,735
235387,0,2.22,11.96,-0.23,-0.237,-0.004,1.187,0.00,0.00,0.00,4.20,-2.22,-7.76,0.01,2.27,-2.81,-6.05,-16.11,-2.23,1100,1100,1100,1100,1149,1496,1521,0,735
235399,0,2.40,6.29,0.33,-0.201,-0.051,1.179,0.00,0.00,0.00,4.20,-2.40,-2.09,0.01,2.26,-2.79,-11.55,4.13,-3.61,1100,1100,1100,1100,1149,1501,1521,0,735
235411,0,-3.38,2.68,-0.64,-0.154,-0.062,1.159,0.00,0.00,0.00,4.20,3.38,1.52,0.01,2.26,-2.79,14.97,21.65,-1.20,1100,1100,1100,1100,1149,1501,1521,0,735
235423,0,1.94,-3.61,1.58,-0.056,-0.071,1.050,0.00,0.00,0.00,4.20,-1.94,7.81,0.01,2.27,-2.80,-6.09,20.11,-6.74,1194,1146,1168,1136,1161,1501,1521,0,734
235435,0,0.28,-3.20,-1.32,-0.010,-0.070,1.060,0.00,0.00,0.00,4.20,-0.28,7.40,0.01,2.29,-2.78,-4.06,7.07,0.51,1194,1146,1168,1136,1164,1501,1521,0,734
235447,0,-1.45,-4.81,0.22,0.068,-0.043,0.958,0.00,0.00,0.00,4.20,1.45,9.01,0.01,2.31,-2.81,9.08,5.77,-3.36,1194,1146,1168,1136,1164,1501,1521,0,734
235459,0,1.93,-2.28,1.08,0.096,-0.055,0.947,0.00,0.00,0.00,4.20,-1.93,6.48,0.01,2.33,-2.80,-7.57,-1.52,-5.51,1194,1146,1168,1136,1180,1501,1521,0,734
235471,0,-2.98,-10.29,-0.84,0.086,-0.038,0.939,0.00,0.00,0.00,4.20,2.98,14.49,0.01,2.36,-2.81,10.92,26.81,-0.72,1194,1146,1168,1136,1180,1501,1521,0,734
235483,0,-0.25,-1.79,0.99,0.084,-0.033,0.967,0.00,0.00,0.00,4.20,0.25,5.99,0.01,2.37,-2.83,3.93,4.42,-5.32,1194,1146,1168,1136,1182,1501,1521,0,734
235495,0,2.02,-1.07,-0.17,0.109,-0.059,0.933,0.00,0.00,0.00,0.00,-2.02,1.07,0.01,2.38,-2.81,-9.11,-2.14,-2.40,1194,1146,1168,1136,1182,1502,1520,0,734
235507,0,0.28,-1.35,-1.16,0.066,-0.074,0.948,0.00,0.00,0.00,0.00,-0.28,1.35,0.01,2.38,-2.81,-2.50,4.54,0.09,1194,1146,1168,1136,1182,1502,1520,0,734
235519,0,-4.17,-8.99,0.01,0.078,-0.054,0.938,0.00,0.00,0.00,0.00,4.17,8.99,0.01,2.39,-2.82,17.54,33.63,-2.85,1206,1136,1236,1174,1188,1502,1520,0,729
235531,0,1.83,-7.64,0.45,0.091,-0.062,0.900,0.00,0.00,0.00,0.00,-1.83,7.64,0.01,2.39,-2.81,-2.29,27.13,-3.95,1206,1136,1236,1174,1188,1502,1520,0,729
235543,0,8.38,9.47,0.08,-0.009,-0.045,1.008,0.00,0.00,0.00,4.40,-8.38,-5.07,0.00,2.39,-2.81,-31.20,-23.49,-3.00,1206,1136,1236,1174,1187,1501,1522,0,729
235555,0,3.10,4.62,0.14,-0.091,0.003,1.127,0.00,0.00,0.00,4.20,-3.10,-0.42,0.01,2.39,-2.80,-16.60,0.04,-3.14,1206,1136,1236,1174,1198,1502,1521,0,729
235567,0,-7.68,-9.20,-0.65,-0.041,0.023,0.974,0.00,0.00,0.00,4.20,7.68,13.40,0.01,2.40,-2.78,33.54,55.78,-1.14,1206,1136,1236,1174,1198,1502,1521,0,729
235579,0,1.08,-17.15,-0.40,0.092,-0.061,0.858,0.00,0.00,0.00,4.20,-1.08,21.35,-0.00,2.39,-2.76,7.17,102.47,-1.76,1206,1136,1236,1174,1204,1500,1521,0,729
235591,0,9.40,9.55,-0.11,0.121,-0.090,1.030,0.00,0.00,0.00,4.20,-9.40,-5.35,-0.00,2.38,-2.74,-34.68,4.55,-2.46,1206,1136,1236,1174,1204,1500,1521,0,729
235603,0,1.55,49.86,-2.18,-0.227,0.029,1.320,0.00,0.00,0.00,4.20,-1.55,-45.66,0.00,2.39,-2.72,-15.62,-110.00,2.72,1206,1136,1236,1174,1205,1502,1521,0,729
235615,0,-13.44,-8.95,-2.18,-0.217,0.031,1.013,0.00,0.00,0.00,4.20,13.44,13.15,0.01,2.45,-2.72,54.82,-16.57,2.74,1206,1136,1236,1174,1205,1501,1521,0,729
235627,0,0.78,-46.10,1.18,0.176,-0.049,0.751,0.00,0.00,0.00,4.20,-0.78,50.30,-0.01,2.44,-2.69,8.99,110.00,-5.64,1104,1334,1100,1296,1205,1501,1521,0,736
235639,0,14.06,22.77,-1.07,0.102,-0.048,1.044,0.00,0.00,0.00,4.20,-14.06,-18.57,-0.01,2.44,-2.63,-57.51,-82.02,0.06,1104,1334,1100,1296,1214,1501,1521,0,736
235651,0,6.44,8.38,-1.93,0.092,-0.066,1.000,0.00,0.00,0.00,4.20,-6.44,-4.18,0.00,2.48,-2.58,-36.54,-65.93,2.24,1104,1334,1100,1296,1214,1501,1521,0,736
235663,0,-11.46,-17.59,-2.86,0.096,-0.090,0.856,0.00,0.00,0.00,4.20,11.46,21.79,0.01,2.49,-2.49,39.23,67.88,4.66,1104,1334,1100,1296,1220,1501,1521,0,736
235675,0,-7.88,-0.65,-5.78,-0.023,-0.072,1.023,0.00,0.00,0.00,4.20,7.88,4.85,-0.01,2.48,-2.41,46.13,31.69,12.03,1104,1334,1100,1296,1222,1501,1521,0,736
235687,0,-7.60,-3.99,-3.32,0.009,-0.037,0.982,0.00,0.00,0.00,4.20,7.60,8.19,-0.01,2.49,-2.32,38.28,31.77,5.99,1104,1334,1100,1296,1222,1501,1521,0,736
235699,0,8.78,4.47,-2.20,0.025,-0.018,1.042,0.00,0.00,0.00,4.20,-8.78,-0.27,-0.02,2.49,-2.24,-17.96,-5.86,3.26,1104,1334,1100,1296,1224,1501,1521,0,736
235711,0,11.79,11.62,-0.62,0.073,-0.040,0.987,0.00,0.00,0.00,4.20,-11.79,-7.42,-0.02,2.48,-2.16,-46.89,-21.86,-0.60,1104,1334,1100,1296,1224,1501,1521,0,736
235723,0,6.43,16.98,-2.91,0.028,-0.076,1.053,0.00,0.00,0.00,4.20,-6.43,-12.78,-0.02,2.50,-2.06,-27.84,-69.42,5.22,1231,1159,1307,1199,1224,1501,1521,0,736
235735,0,-1.13,-16.04,-1.76,0.119,-0.099,0.885,0.00,0.00,0.00,4.20,1.13,20.24,-0.02,2.50,-1.99,-0.05,85.87,2.40,1231,1159,1307,1199,1246,1501,1521,0,736
235747,0,-8.65,-9.36,-4.71,-0.032,-0.065,1.021,0.00,0.00,0.00,4.20,8.65,13.56,-0.01,2.52,-1.93,23.75,24.31,9.84,1231,1159,1307,1199,1246,1501,1521,0,736
235759,0,-6.09,6.48,-1.87,-0.175,-0.047,1.129,0.00,0.00,0.00,4.20,6.09,-2.28,-0.01,2.50,-1.87,21.06,11.20,2.80,1231,1159,1307,1199,1249,1501,1521,0,736
235771,0,-13.28,-14.75,-1.02,0.015,-0.045,0.964,0.00,0.00,0.00,4.20,13.28,18.95,-0.00,2.52,-1.85,46.45,79.32,0.70,1231,1159,1307,1199,1249,1501,1521,0,736
235783,0,-3.40,17.14,-0.29,-0.141,0.059,1.142,0.00,0.00,0.00,4.20,3.40,-12.94,-0.00,2.53,-1.84,13.86,-76.53,-1.12,1231,1159,1307,1199,1250,1501,1521,0,736
235795,0,4.34,24.22,1.05,0.003,-0.007,1.099,0.00,0.00,0.00,4.20,-4.34,-20.02,-0.01,2.50,-1.83,-7.63,-49.80,-4.46,1231,1159,1307,1199,1252,1501,1521,0,736
235807,0,8.70,-19.04,2.05,0.252,-0.047,0.820,0.00,0.00,0.00,4.20,-8.70,23.24,-0.01,2.57,-1.87,-33.59,32.20,-6.99,1231,1159,1307,1199,1252,1501,1521,0,736
235819,0,14.84,16.13,0.32,-0.048,-0.025,1.044,0.00,0.00,0.00,4.20,-14.84,-11.93,-0.01,2.59,-1.88,-58.91,-100.21,-2.69,1211,1407,1100,1295,1251,1501,1521,0,736
235831,0,14.91,19.82,0.28,-0.037,-0.078,1.115,0.00,0.00,0.00,4.20,-14.91,-15.62,-0.02,2.54,-1.87,-53.10,-20.77,-2.56,1211,1407,1100,1295,1251,1501,1521,0,736
235843,0,7.47,-32.43,1.73,0.288,-0.161,0.801,0.00,0.00,0.00,4.20,-7.47,36.63,-0.03,2.58,-1.89,-23.78,110.00,-6.21,1211,1407,1100,1295,1258,1501,1521,0,736
235855,0,0.09,-20.59,1.45,0.067,-0.125,0.860,0.00,0.00,0.00,4.20,-0.09,24.79,-0.03,2.64,-1.92,1.32,18.98,-5.56,1211,1407,1100,1295,1259,1501,1521,0,736
235867,0,-4.70,20.60,-1.32,-0.251,-0.067,1.162,0.00,0.00,0.00,4.20,4.70,-16.40,-0.04,2.60,-1.89,27.67,-36.77,1.42,1211,1407,1100,1295,1259,1501,1521,0,736
235879,0,-7.60,6.28,-1.80,-0.107,-0.058,1.142,0.00,0.00,0.00,0.00,7.60,-6.28,-0.05,2.54,-1.83,42.41,69.60,2.66,1211,1407,1100,1295,1267,1502,1520,0,736
235891,0,-7.88,-31.13,-0.42,0.184,-0.059,0.894,0.00,0.00,0.00,0.00,7.88,31.13,-0.06,2.57,-1.82,40.32,110.00,-0.77,1211,1407,1100,1295,1267,1502,1520,0,736
235903,0,-9.25,-27.57,-1.04,0.116,-0.075,0.868,0.00,0.00,0.00,4.20,9.25,31.77,-0.06,2.63,-1.84,42.56,55.88,0.75,1211,1407,1100,1295,1266,1502,1521,0,736
235915,0,-9.30,1.40,-4.30,-0.097,-0.048,1.076,0.00,0.00,0.00,4.20,9.30,2.80,-0.06,2.64,-1.81,40.73,-16.93,8.93,1211,1407,1100,1295,1268,1501,1521,0,736
235927,0,-6.72,16.69,-5.46,-0.157,-0.010,1.184,0.00,0.00,0.00,4.20,6.72,-12.49,-0.05,2.61,-1.72,27.29,-26.88,11.93,1240,1306,1234,1292,1268,1501,1521,0,736
235939,0,-5.81,-0.81,-3.58,0.006,-0.017,1.039,0.00,0.00,0.00,0.00,5.81,0.81,-0.05,2.61,-1.65,21.57,34.45,7.31,1240,1306,1234,1292,1268,1501,1520,0,736
235951,0,-6.91,-14.02,-1.55,0.116,-0.070,0.906,0.00,0.00,0.00,0.00,6.91,14.02,-0.05,2.63,-1.64,24.42,43.91,2.23,1240,1306,1234,1292,1268,1501,1520,0,736
235963,0,-7.44,-11.17,-1.76,0.159,-0.108,0.892,0.00,0.00,0.00,4.20,7.44,15.37,-0.04,2.67,-1.63,23.14,23.87,2.78,1240,1306,1234,1292,1266,1501,1521,0,736
235975,0,-7.47,-18.49,-2.45,0.294,-0.114,0.831,0.00,0.00,0.00,4.20,7.47,22.69,-0.03,2.71,-1.58,21.46,40.03,4.54,1240,1306,1234,1292,1269,1501,1521,0,736
235987,0,-7.54,-26.39,-2.20,0.413,-0.103,0.739,0.00,0.00,0.00,4.20,7.54,30.59,-0.03,2.78,-1.52,22.95,33.85,3.99,1240,1306,1234,1292,1269,1501,1521,0,736
235999,0,-8.06,-18.49,-1.82,0.368,-0.082,0.725,0.00,0.00,0.00,24.20,8.06,42.69,-0.02,2.90,-1.47,27.58,-19.65,3.09,1240,1306,1234,1292,1169,1502,1621,0,736
236011,0,-9.30,1.49,-1.42,0.149,-0.049,0.834,0.00,0.00,0.00,24.20,9.30,22.71,-0.02,3.00,-1.44,34.92,-72.41,2.11,1240,1306,1234,1292,1169,1502,1621,0,736
236023,0,-10.24,20.86,-2.03,-0.089,-0.028,0.985,0.00,0.00,0.00,4.20,10.24,-16.66,-0.02,3.01,-1.40,44.23,-87.85,3.67,1221,1407,1131,1317,1269,1501,1521,0,736
236035,0,-10.09,27.27,-2.41,-0.186,-0.022,1.060,0.00,0.00,0.00,4.20,10.09,-23.07,-0.02,2.98,-1.36,50.97,-56.08,4.66,1221,1407,1131,1317,1277,1501,1521,0,736
236047,0,-9.53,11.50,-2.31,-0.050,-0.030,0.984,0.00,0.00,0.00,4.20,9.53,-7.30,-0.02,2.97,-1.32,51.10,6.68,4.45,1221,1407,1131,1317,1277,1501,1521,0,736
236059,0,-7.90,-3.86,-2.64,0.100,0.018,0.901,0.00,0.00,0.00,4.20,7.90,8.06,-0.03,3.00,-1.29,44.61,10.81,5.33,1221,1407,1131,1317,1279,1501,1521,0,736
236071,0,-5.53,3.52,-3.03,0.056,0.071,0.968,0.00,0.00,0.00,4.20,5.53,0.68,-0.03,3.04,-1.24,40.78,-45.19,6.34,1221,1407,1131,1317,1279,1501,1521,0,736
236083,0,-3.50,25.61,-2.36,-0.122,0.084,1.111,0.00,0.00,0.00,4.20,3.50,-21.41,-0.04,3.03,-1.20,37.46,-90.72,4.69,1221,1407,1131,1317,1279,1501,1521,0,736
236095,0,-3.85,25.79,-0.64,-0.086,0.033,1.091,0.00,0.00,0.00,4.20,3.85,-21.59,-0.05,3.00,-1.18,38.52,-42.24,0.41,1221,1407,1131,1317,1279,1501,1521,0,736
236107,0,-4.54,4.48,0.13,0.109,-0.020,0.951,0.00,0.00,0.00,4.20,4.54,-0.28,-0.06,3.00,-1.20,38.07,13.23,-1.52,1221,1407,1131,1317,1279,1501,1521,0,736
236119,0,-1.62,-8.46,0.01,0.213,-0.011,0.859,0.00,0.00,0.00,4.20,1.62,12.66,-0.07,3.04,-1.21,25.59,9.94,-1.23,1264,1244,1312,1296,1279,1501,1521,0,736
236131,0,3.11,-3.56,-0.93,0.123,0.027,0.922,0.00,0.00,0.00,4.20,-3.11,7.76,-0.08,3.09,-1.20,9.06,-26.17,1.12,1264,1244,1312,1296,1279,1501,1521,0,736
236143,0,6.33,8.38,-1.39,-0.047,0.055,1.052,0.00,0.00,0.00,4.20,-6.33,-4.18,-0.09,3.10,-1.16,-1.63,-46.14,2.31,1264,1244,1312,1296,1279,1501,1521,0,736
236155,0,6.18,17.89,-1.51,-0.182,0.069,1.159,0.00,0.00,0.00,4.20,-6.18,-13.69,-0.11,3.09,-1.12,-0.95,-40.18,2.67,1264,1244,1312,1296,1284,1501,1521,0,736
236167,0,4.83,23.44,-1.66,-0.269,0.073,1.225,0.00,0.00,0.00,4.20,-4.83,-19.24,-0.12,3.05,-1.07,2.31,-32.43,3.08,1264,1244,1312,1296,1284,1501,1521,0,736
236179,0,3.31,23.96,-1.85,-0.302,0.062,1.243,0.00,0.00,0.00,0.00,-3.31,-23.96,-0.12,3.01,-1.01,8.39,-21.26,3.62,1264,1244,1312,1296,1284,1510,1512,0,736
236191,0,2.12,18.48,-2.50,-0.265,0.056,1.206,0.00,0.00,0.00,0.00,-2.12,-18.48,-0.13,2.97,-0.93,11.19,-4.04,5.33,1264,1244,1312,1296,1284,1510,1512,0,736
236203,0,1.05,8.56,-3.12,-0.158,0.059,1.119,0.00,0.00,0.00,0.00,-1.05,-8.56,-0.14,2.96,-0.83,14.46,7.45,6.98,1264,1244,1312,1296,1287,1501,1520,0,736
236215,0,-0.76,-1.60,-3.64,-0.045,0.057,1.005,0.00,0.00,0.00,4.20,0.76,5.80,-0.14,2.98,-0.71,20.80,10.98,8.40,1264,1244,1312,1296,1286,1501,1521,0,736
236227,0,-2.73,3.03,-4.52,-0.028,0.061,0.984,0.00,0.00,0.00,4.20,2.73,1.17,-0.15,3.00,-0.57,26.29,-26.91,10.73,1311,1175,1419,1239,1286,1501,1521,0,778
236239,0,-3.98,12.18,-5.84,-0.048,0.078,1.012,0.00,0.00,0.00,0.00,3.98,-12.18,-0.15,3.00,-0.41,27.91,-51.48,14.20,1311,1175,1419,1239,1291,1502,1520,0,778
236251,0,-5.96,16.56,-7.17,-0.065,0.105,1.037,0.00,0.00,0.00,0.00,5.96,-16.56,-0.14,2.99,-0.21,32.75,-48.20,17.72,1311,1175,1419,1239,1291,1502,1520,0,778
236263,0,-9.17,11.00,-7.85,-0.021,0.126,1.027,0.00,0.00,0.00,0.00,9.17,-11.00,-0.14,2.98,-0.00,43.92,-19.83,19.63,1311,1175,1419,1239,1292,1502,1520,0,778
236275,0,-12.30,2.25,-8.44,0.085,0.136,0.993,0.00,0.00,0.00,0.00,12.30,-2.25,-0.13,2.98,0.21,55.32,2.38,21.32,1311,1175,1419,1239,1292,1502,1520,0,778
236287,0,-15.43,-10.94,-8.43,0.257,0.137,0.906,0.00,0.00,0.00,0.00,15.43,10.94,-0.12,3.00,0.41,63.46,23.41,21.49,1311,1175,1419,1239,1292,1502,1520,0,778
236299,0,-17.39,-22.78,-7.85,0.447,0.128,0.782,0.00,0.00,0.00,4.40,17.39,27.18,-0.10,3.07,0.59,65.15,30.67,20.21,1311,1175,1419,1239,1290,1500,1522,0,778
236311,0,-22.50,-11.44,-7.85,0.547,-0.005,0.776,0.00,0.00,0.00,4.40,22.50,15.84,-0.08,3.14,0.76,79.51,-33.46,20.38,1311,1175,1419,1239,1290,1500,1522,0,778
236323,0,-19.76,5.55,-8.25,0.480,0.054,0.800,0.00,0.00,0.00,4.20,19.76,-1.35,-0.07,3.16,0.95,73.95,-38.81,21.56,1275,1500,1101,1297,1298,1501,1521,0,741
236335,0,-17.77,8.87,-7.05,0.417,0.080,0.823,0.00,0.00,0.00,4.20,17.77,-4.67,-0.06,3.17,1.12,69.71,-16.28,18.74,1275,1500,1101,1297,1298,1500,1521,0,741
236347,0,-15.54,10.53,-5.65,0.339,0.066,0.826,0.00,0.00,0.00,4.20,15.54,-6.33,-0.06,3.16,1.24,66.69,-8.31,15.36,1275,1500,1101,1297,1298,1500,1521,0,741
236359,0,-12.66,8.83,-4.55,0.258,0.032,0.801,0.00,0.00,0.00,4.20,12.66,-4.63,-0.07,3.16,1.33,62.48,-2.87,12.71,1275,1500,1101,1297,1298,1501,1521,0,741
236371,0,-8.63,7.99,-3.50,0.145,-0.010,0.805,0.00,0.00,0.00,4.20,8.63,-3.79,-0.08,3.16,1.40,53.26,-6.29,10.16,1275,1500,1101,1297,1298,1501,1521,0,741
236383,0,-6.70,6.39,-3.20,0.039,-0.042,0.842,0.00,0.00,0.00,4.20,6.70,-2.19,-0.09,3.16,1.46,49.19,-5.68,9.45,1275,1500,1101,1297,1298,1501,1521,0,741
236395,0,-5.28,-5.07,-3.15,-0.003,-0.080,0.846,0.00,0.00,0.00,4.60,5.28,9.67,-0.11,3.17,1.54,47.02,29.62,9.40,1275,1500,1101,1297,1298,1501,1523,0,741
236407,0,-4.40,-18.57,-3.07,0.010,-0.119,0.833,0.00,0.00,0.00,4.60,4.40,23.17,-0.13,3.20,1.61,44.20,53.53,9.29,1275,1500,1101,1297,1298,1501,1523,0,741
236419,0,-4.23,-33.64,-3.39,0.096,-0.165,0.768,0.00,0.00,0.00,4.20,4.23,37.84,-0.14,3.27,1.71,42.46,74.77,10.18,1323,1195,1427,1259,1301,1499,1521,0,736
236431,0,-3.27,-46.43,-3.97,0.253,-0.185,0.664,0.00,0.00,0.00,4.20,3.27,50.63,-0.16,3.35,1.83,38.70,92.76,11.76,1323,1195,1427,1259,1301,1499,1521,0,736
236443,0,-2.94,-54.98,-4.31,0.467,-0.203,0.550,0.00,0.00,0.00,4.20,2.94,59.18,-0.18,3.45,1.97,37.75,104.08,12.74,1323,1195,1427,1259,1302,1501,1521,0,736
236455,0,0.12,-53.69,-4.81,0.674,-0.197,0.457,0.00,0.00,0.00,4.20,-0.12,57.89,-0.20,3.55,2.14,26.58,92.67,14.15,1323,1195,1427,1259,1302,1501,1521,0,736
236467,0,4.74,-42.71,-5.07,0.808,-0.167,0.411,0.00,0.00,0.00,4.20,-4.74,46.91,-0.22,3.63,2.34,7.80,71.97,15.01,1323,1195,1427,1259,1302,1501,1521,0,736
236479,0,8.56,-27.92,-4.61,0.853,-0.133,0.404,0.00,0.00,0.00,4.20,-8.56,32.12,-0.24,3.69,2.55,-10.00,33.26,14.08,1323,1195,1427,1259,1302,1501,1521,0,736
236491,0,12.50,-14.57,-4.06,0.814,-0.127,0.441,0.00,0.00,0.00,4.20,-12.50,18.77,-0.25,3.73,2.76,-29.66,-0.87,12.92,1323,1195,1427,1259,1302,1501,1521,0,736
236503,0,17.40,-6.22,-3.44,0.807,-0.112,0.486,0.00,0.00,0.00,4.20,-17.40,10.42,-0.27,3.77,2.96,-54.22,-27.35,11.57,1323,1195,1427,1259,1302,1501,1521,0,736
236515,0,21.25,-3.29,-4.37,0.868,-0.064,0.486,0.00,0.00,0.00,4.20,-21.25,7.49,-0.28,3.80,3.17,-71.10,-33.50,14.10,1323,1195,1427,1259,1303,1501,1521,0,736
236527,0,22.12,2.59,-5.92,0.877,0.042,0.487,0.00,0.00,0.00,4.20,-22.12,1.61,-0.29,3.83,3.40,-73.96,-38.97,18.20,1182,1278,1380,1372,1303,1501,1521,0,737
236539,0,17.79,7.22,-7.87,0.746,0.126,0.521,0.00,0.00,0.00,4.20,-17.79,-3.02,-0.30,3.84,3.67,-54.06,-30.82,23.35,1182,1278,1380,1372,1306,1501,1521,0,737
236551,0,12.81,12.91,-9.26,0.538,0.175,0.614,0.00,0.00,0.00,4.20,-12.81,-8.71,-0.30,3.83,3.97,-36.00,-23.31,27.11,1182,1278,1380,1372,1306,1501,1521,0,737
236563,0,7.38,12.11,-9.32,0.417,0.177,0.688,0.00,0.00,0.00,4.40,-7.38,-7.71,-0.30,3.82,4.27,-16.56,-8.06,27.58,1182,1278,1380,1372,1305,1501,1522,0,737
236575,0,1.53,14.24,-8.56,0.370,0.157,0.759,0.00,0.00,0.00,4.20,-1.53,-10.04,-0.29,3.82,4.55,2.25,-19.53,25.94,1182,1278,1380,1372,1311,1501,1521,0,737
236587,0,-3.13,19.22,-8.11,0.301,0.162,0.828,0.00,0.00,0.00,4.20,3.13,-15.02,-0.28,3.82,4.82,14.96,-42.81,25.10,1182,1278,1380,1372,1311,1501,1521,0,737
236599,0,-8.23,25.66,-8.14,0.162,0.159,0.940,0.00,0.00,0.00,4.20,8.23,-21.46,-0.26,3.80,5.09,28.78,-44.93,25.45,1182,1278,1380,1372,1311,1501,1521,0,737
236611,0,-14.35,26.24,-7.93,-0.008,0.145,1.068,0.00,0.00,0.00,4.20,14.35,-22.04,-0.24,3.77,5.35,45.70,-30.54,25.16,1182,1278,1380,1372,1311,1501,1521,0,737
236623,0,-21.25,13.39,-7.99,-0.112,0.109,1.139,0.00,0.00,0.00,4.20,21.25,-9.19,-0.21,3.75,5.60,64.48,20.27,25.56,1280,1496,1174,1294,1311,1501,1521,0,767
236635,0,-24.96,-6.08,-8.51,-0.062,0.065,1.083,0.00,0.00,0.00,4.20,24.96,10.28,-0.19,3.76,5.83,74.01,59.91,27.10,1280,1496,1174,1294,1312,1500,1521,0,767
236647,0,-25.80,-13.73,-9.53,-0.048,0.031,1.005,0.00,0.00,0.00,4.20,25.80,17.93,-0.16,3.77,6.07,70.73,66.42,29.89,1280,1496,1174,1294,1312,1500,1521,0,767
236659,0,-25.08,-16.37,-11.09,-0.132,-0.006,1.025,0.00,0.00,0.00,0.00,25.08,16.37,-0.13,3.78,6.32,58.02,70.08,34.04,1280,1496,1174,1294,1312,1501,1520,0,767
236671,0,-23.54,-27.33,-11.95,-0.091,-0.006,1.013,0.00,0.00,0.00,0.00,23.54,27.33,-0.09,3.81,6.59,44.11,85.85,36.46,1280,1496,1174,1294,1312,1501,1520,0,767
236683,0,-23.55,-36.19,-9.62,0.058,0.003,0.938,0.00,0.00,0.00,4.20,23.55,40.39,-0.05,3.88,6.83,36.61,77.05,30.88,1280,1496,1174,1294,1313,1501,1521,0,767
236695,0,-26.33,-40.66,-6.84,0.198,-0.039,0.836,0.00,0.00,0.00,4.20,26.33,44.86,-0.01,3.96,7.03,37.01,66.57,24.12,1280,1496,1174,1294,1313,1498,1521,0,767
236707,0,-27.14,-45.40,-5.45,0.384,-0.087,0.739,0.00,0.00,0.00,4.20,27.14,49.60,0.04,4.05,7.20,34.76,72.09,20.84,1280,1496,1174,1294,1313,1498,1521,0,767
236719,0,-23.56,-39.65,-5.31,0.561,-0.082,0.631,0.00,0.00,0.00,4.20,23.56,43.85,0.09,4.14,7.41,24.85,51.07,20.68,1327,1265,1415,1273,1320,1501,1521,0,737
236731,0,-16.09,-21.38,-3.46,0.616,-0.060,0.540,0.00,0.00,0.00,4.20,16.09,25.58,0.12,4.19,7.63,5.36,12.65,16.28,1327,1265,1415,1273,1320,1501,1521,0,737
236743,0,-10.05,-4.62,-1.79,0.612,-0.080,0.501,0.00,0.00,0.00,4.20,10.05,8.82,0.16,4.21,7.83,-12.44,-0.92,12.31,1327,1265,1415,1273,1320,1501,1521,0,737
236755,0,-1.28,10.11,-3.40,0.533,-0.092,0.643,0.00,0.00,0.00,4.20,1.28,-5.91,0.18,4.18,8.03,-33.62,-5.09,16.53,1327,1265,1415,1273,1320,1501,1521,0,737
236767,0,4.43,11.97,-5.92,0.422,-0.130,0.775,0.00,0.00,0.00,4.20,-4.43,-7.77,0.19,4.15,8.24,-36.83,17.08,23.04,1327,1265,1415,1273,1320,1501,1521,0,737
236779,0,8.86,6.22,-9.76,0.307,-0.147,0.879,0.00,0.00,0.00,4.20,-8.86,-2.02,0.19,4.11,8.48,-40.78,47.81,32.88,1327,1265,1415,1273,1320,1501,1521,0,737
236791,0,12.98,6.65,-12.49,0.109,-0.091,1.050,0.00,0.00,0.00,4.20,-12.98,-2.45,0.18,4.08,8.79,-45.02,33.53,40.02,1327,1265,1415,1273,1320,1501,1521,0,737
236803,0,12.62,-2.86,-13.14,0.100,-0.035,1.016,0.00,0.00,0.00,4.20,-12.62,7.06,0.16,4.06,9.12,-30.98,66.54,41.97,1327,1265,1415,1273,1320,1501,1521,0,737
236815,0,13.40,8.38,-12.83,0.011,0.002,1.040,0.00,0.00,0.00,0.00,-13.40,-8.38,0.15,4.03,9.44,-31.09,5.25,41.52,1327,1265,1415,1273,1320,1516,1506,0,737
236827,0,14.12,12.38,-12.42,-0.053,0.032,1.027,0.00,0.00,0.00,0.00,-14.12,-12.38,0.14,4.02,9.76,-41.43,-38.66,40.82,1242,1336,1370,1332,1320,1516,1506,0,732
236839,0,11.62,15.89,-10.42,-0.077,0.045,0.984,0.00,0.00,0.00,4.20,-11.62,-11.69,0.13,4.04,10.06,-42.16,-79.42,36.12,1242,1336,1370,1332,1322,1501,1521,0,732
236851,0,7.73,15.39,-8.83,-0.060,0.032,0.961,0.00,0.00,0.00,4.20,-7.73,-11.19,0.14,4.06,10.36,-31.90,-78.04,32.44,1242,1336,1370,1332,1322,1501,1521,0,732
236863,0,5.36,11.53,-7.45,-0.013,0.040,0.963,0.00,0.00,0.00,4.20,-5.36,-7.33,0.14,4.07,10.66,-17.79,-48.87,29.28,1242,1336,1370,1332,1332,1501,1521,0,732
236875,0,1.19,17.09,-5.82,0.001,0.070,1.016,0.00,0.00,0.00,4.20,-1.19,-12.89,0.15,4.08,10.95,3.25,-50.22,25.51,1242,1336,1370,1332,1333,1501,1521,0,732
236887,0,-5.51,24.14,-4.94,-0.046,0.060,1.113,0.00,0.00,0.00,4.20,5.51,-19.94,0.15,4.06,11.22,29.94,-41.30,23.58,1242,1336,1370,1332,1333,1501,1521,0,732
236899,0,-11.81,18.05,-7.15,-0.101,0.046,1.177,0.00,0.00,0.00,4.20,11.81,-13.85,0.15,4.03,11.47,58.36,-2.77,29.35,1242,1336,1370,1332,1334,1501,1521,0,732
236911,0,-16.01,15.29,-9.74,-0.158,0.048,1.144,0.00,0.00,0.00,4.20,16.01,-11.09,0.15,3.99,11.73,79.73,22.71,36.07,1242,1336,1370,1332,1334,1501,1521,0,732
236923,0,-14.57,15.55,-9.60,-0.236,-0.007,1.126,0.00,0.00,0.00,4.20,14.57,-11.35,0.14,3.94,11.96,74.11,35.08,35.97,1292,1434,1286,1324,1334,1501,1521,0,737
236935,0,-8.43,16.94,-9.33,-0.215,-0.067,1.103,0.00,0.00,0.00,4.40,8.43,-12.54,0.13,3.91,12.18,49.19,3.42,35.49,1292,1434,1286,1324,1334,1501,1522,0,737
236947,0,-2.21,10.13,-6.32,-0.144,-0.175,1.024,0.00,0.00,0.00,4.40,2.21,-5.73,0.11,3.89,12.40,28.91,17.26,28.20,1292,1434,1286,1324,1334,1501,1522,0,737
236959,0,-0.55,2.96,-6.97,-0.034,-0.127,1.034,0.00,0.00,0.00,4.40,0.55,1.44,0.09,3.88,12.74,33.76,41.48,49.97,1292,1434,1286,1324,1334,1501,1522,0,737
236971,0,-0.97,0.27,-6.80,0.044,-0.044,1.038,0.00,0.00,0.00,4.40,0.97,4.13,0.07,3.87,13.26,39.04,47.89,50.07,1292,1434,1286,1324,1334,1501,1522,0,737
236983,0,-4.48,-14.32,-5.72,0.160,-0.068,0.942,0.00,0.00,0.00,4.20,4.48,18.52,0.05,3.87,13.76,52.19,94.75,49.65,1292,1434,1286,1324,1345,1500,1521,0,737
236995,0,-7.05,-25.52,-7.10,0.374,-0.178,0.778,0.00,0.00,0.00,4.40,7.05,29.92,0.04,3.89,14.24,56.87,110.00,53.58,1292,1434,1286,1324,1345,1501,1522,0,737
237007,0,-1.53,-2.59,-9.41,0.413,-0.269,0.733,0.00,0.00,0.00,4.40,1.53,6.99,0.02,3.86,14.73,29.68,62.95,60.75,1292,1434,1286,1324,1345,1501,1522,0,737
237019,0,10.23,34.30,-10.55,0.169,-0.255,0.935,0.00,0.00,0.00,0.00,-10.23,-34.30,-0.00,3.78,15.22,-22.49,-48.87,63.20,1258,1480,1340,1310,1347,1502,1520,0,736
237031,0,14.00,49.10,-8.62,-0.079,-0.155,1.078,0.00,0.00,0.00,0.00,-14.00,-49.10,-0.02,3.69,15.69,-38.87,-76.45,58.85,1258,1480,1340,1310,1347,1502,1520,0,736
237043,0,13.01,32.46,-5.12,-0.103,-0.068,1.199,0.00,0.00,0.00,5.20,-13.01,-27.26,-0.04,3.62,15.95,-36.68,-8.37,28.76,1258,1480,1340,1310,1371,1500,1526,0,736
237055,0,7.22,14.54,-0.96,0.093,-0.046,1.115,0.00,0.00,0.00,4.20,-7.22,-10.34,-0.04,3.61,16.04,-14.56,-3.22,18.43,1258,1480,1340,1310,1346,1501,1521,0,736
237067,0,2.62,24.07,-4.71,0.164,-0.074,0.991,0.00,0.00,0.00,4.20,-2.62,-19.87,-0.05,3.57,16.42,2.46,-31.67,48.89,1258,1480,1340,1310,1346,1501,1521,0,736
237079,0,6.94,55.77,-12.59,-0.226,-0.042,1.232,0.00,0.00,0.00,4.20,-6.94,-51.57,-0.06,3.46,16.90,-24.52,-75.85,68.17,1258,1480,1340,1310,1346,1501,1521,0,736
237091,0,8.45,22.90,-11.26,-0.267,0.063,1.256,0.00,0.00,0.00,4.20,-8.45,-18.70,-0.06,3.39,17.39,-32.23,41.94,65.35,1258,1480,1340,1310,1346,1501,1521,0,736
237103,0,5.10,1.39,-5.45,0.047,0.014,1.086,0.00,0.00,0.00,4.20,-5.10,2.81,-0.06,3.39,17.73,-23.89,38.94,51.15,1258,1480,1340,1310,1346,1501,1521,0,736
237115,0,2.14,36.77,-2.99,-0.030,0.012,1.032,0.00,0.00,0.00,4.20,-2.14,-32.57,-0.05,3.37,18.08,-15.08,-99.26,45.35,1258,1480,1340,1310,1346,1501,1521,0,736
237127,0,-4.73,28.99,-2.83,-0.109,-0.117,1.099,0.00,0.00,0.00,4.20,4.73,-24.79,-0.04,3.30,18.49,9.21,-7.58,46.28,1293,1397,1401,1293,1346,1501,1521,0,737
237139,0,-2.64,18.64,-4.19,0.072,-0.133,1.040,0.00,0.00,0.00,4.20,2.64,-14.44,-0.04,3.27,18.90,5.83,17.08,50.07,1293,1397,1401,1293,1346,1501,1521,0,737
237151,0,-1.92,32.21,-8.17,0.194,-0.094,1.010,0.00,0.00,0.00,4.20,1.92,-28.01,-0.04,3.25,19.28,-0.58,-75.51,60.41,1293,1397,1401,1293,1346,1501,1521,0,737
237163,0,-5.61,38.88,-8.40,0.120,-0.071,0.918,0.00,0.00,0.00,4.20,5.61,-34.68,-0.03,3.20,19.67,13.02,-70.52,61.36,1293,1397,1401,1293,1346,1501,1521,0,737
237175,0,-6.02,35.78,-5.74,0.064,-0.139,1.057,0.00,0.00,0.00,4.20,6.02,-31.58,-0.03,3.12,20.01,20.50,-14.50,55.06,1293,1397,1401,1293,1346,1501,1521,0,737
237187,0,-7.30,26.96,0.12,0.026,-0.066,1.081,0.00,0.00,0.00,4.20,7.30,-22.76,-0.04,3.06,20.36,36.49,18.11,40.77,1293,1397,1401,1293,1346,1501,1521,0,737
237199,0,-3.31,8.09,-0.06,0.080,-0.076,1.080,0.00,0.00,0.00,4.20,3.31,-3.89,-0.04,2.99,20.70,18.69,102.16,41.55,1293,1397,1401,1293,1346,1501,1521,0,737
237211,0,3.83,2.61,-3.40,-0.045,-0.079,1.038,0.00,0.00,0.00,4.20,-3.83,1.59,-0.04,2.94,21.06,-16.18,102.05,50.27,1293,1397,1401,1293,1346,1501,1521,0,737
237223,0,4.72,-7.00,-6.82,-0.094,-0.081,1.016,0.00,0.00,0.00,0.00,-4.72,7.00,-0.04,2.91,21.42,-26.30,90.19,62.77,1281,1331,1439,1333,1346,1502,1518,0,801
237235,0,-5.50,-24.99,-5.22,-0.025,-0.090,1.042,0.00,0.00,0.00,4.20,5.50,29.19,-0.04,2.90,21.77,26.54,110.00,59.12,1281,1331,1439,1333,1346,1501,1521,0,801
237247,0,-9.46,-18.21,0.07,0.166,-0.071,1.008,0.00,0.00,0.00,4.20,9.46,22.41,-0.05,2.93,22.02,43.62,65.53,41.65,1281,1331,1439,1333,1346,1501,1521,0,801
237259,0,-8.37,-21.93,5.60,0.441,-0.148,0.746,0.00,0.00,0.00,4.20,8.37,26.13,-0.06,2.96,22.23,40.34,63.10,27.13,1281,1331,1439,1333,1346,1501,1521,0,801
237271,0,1.26,23.79,1.60,0.325,-0.114,0.817,0.00,0.00,0.00,4.20,-1.26,-19.59,-0.06,2.94,22.46,-2.67,-79.82,37.35,1281,1331,1439,1333,1346,1501,1521,0,801
237283,0,2.91,13.65,-0.54,0.163,-0.091,0.934,0.00,0.00,0.00,4.20,-2.91,-9.45,-0.07,2.90,22.72,-2.98,14.16,42.97,1281,1331,1439,1333,1346,1501,1521,0,801
237295,0,0.18,-12.86,-1.00,0.277,-0.107,0.951,0.00,0.00,0.00,4.20,-0.18,17.06,-0.09,2.87,22.94,18.96,110.00,44.33,1281,1331,1439,1333,1346,1501,1521,0,801
237307,0,-5.84,-29.73,2.52,0.456,-0.145,0.861,0.00,0.00,0.00,4.20,5.84,33.93,-0.10,2.89,23.09,46.01,110.00,35.69,1281,1331,1439,1333,1346,1501,1521,0,801
237319,0,-3.56,-38.18,5.77,0.587,-0.215,0.656,0.00,0.00,0.00,4.40,3.56,42.58,-0.12,2.93,23.21,43.20,110.00,27.69,1385,1219,1500,1251,1345,1501,1522,0,737
237331,0,5.30,10.39,2.80,0.376,-0.217,0.787,0.00,0.00,0.00,4.40,-5.30,-5.99,-0.15,2.91,23.35,11.74,-22.23,35.25,1385,1219,1500,1251,1345,1501,1522,0,737
237343,0,5.85,13.78,-0.97,0.094,-0.111,0.934,0.00,0.00,0.00,4.20,-5.85,-9.58,-0.19,2.87,23.44,17.74,6.50,25.86,1385,1219,1500,1251,1347,1501,1521,0,737
237355,0,1.19,-8.92,-1.79,-0.023,-0.032,1.030,0.00,0.00,0.00,0.00,-1.19,8.92,-0.22,2.86,23.47,45.99,83.19,27.94,1385,1219,1500,1251,1346,1501,1520,0,737
237367,0,-1.75,-19.66,0.42,-0.061,0.009,1.063,0.00,0.00,0.00,0.00,1.75,19.66,-0.26,2.89,23.46,65.99,64.12,22.40,1385,1219,1500,1251,1346,1501,1520,0,737
237379,0,-6.97,-42.89,1.32,0.100,-0.099,0.878,0.00,0.00,0.00,4.20,6.97,47.09,-0.30,2.97,23.41,95.17,99.60,20.12,1385,1219,1500,1251,1346,1501,1521,0,737
237391,0,0.53,-28.13,-0.61,0.053,-0.137,0.901,0.00,0.00,0.00,4.20,-0.53,32.33,-0.35,3.04,23.38,71.07,28.42,24.91,1385,1219,1500,1251,1346,1501,1521,0,737
237403,0,13.06,-15.33,-0.95,-0.106,-0.051,0.993,0.00,0.00,0.00,4.40,-13.06,19.73,-0.40,3.14,23.52,29.35,-61.72,46.59,1385,1219,1500,1251,1346,1501,1522,0,737
237415,0,21.24,-29.46,0.08,-0.000,0.003,0.922,0.00,0.00,0.00,4.20,-21.24,33.66,-0.46,3.24,23.76,12.40,-12.34,44.27,1385,1219,1500,1251,1346,1501,1521,0,737
237427,0,30.88,-58.05,2.23,0.298,0.046,0.796,0.00,0.00,0.00,4.20,-30.88,62.25,-0.54,3.38,24.02,-5.23,65.88,39.13,1334,1308,1472,1270,1346,1501,1521,0,737
237439,0,35.70,-76.76,5.09,0.395,0.046,0.745,0.00,0.00,0.00,0.00,-35.70,76.76,-0.62,3.57,24.63,-19.99,48.96,110.00,1334,1308,1472,1270,1348,1502,1520,0,737
237451,0,39.95,-92.83,5.73,0.444,-0.019,0.704,0.00,0.00,0.00,0.00,-39.95,92.83,-0.70,3.79,26.00,-36.55,59.01,110.00,1334,1308,1472,1270,1348,1502,1520,0,737
237463,0,43.75,-102.08,4.18,0.708,-0.176,0.478,0.00,0.00,0.00,4.20,-43.75,106.28,-0.79,4.02,26.66,-42.80,95.02,46.80,1334,1308,1472,1270,1346,1501,1521,0,737
237475,0,53.42,-72.85,-0.19,0.756,-0.315,0.499,0.00,0.00,0.00,0.00,-53.42,72.85,-0.89,4.17,26.96,-76.96,43.74,58.03,1334,1308,1472,1270,1346,1501,1520,0,737
237487,128,67.28,-37.52,-0.88,0.620,-0.355,0.675,0.00,0.00,0.00,0.00,-67.28,37.52,-1.01,4.28,27.21,-110.00,-36.17,56.42,1334,1308,1472,1270,1346,1501,1520,0,737
237499,128,70.62,-38.01,5.63,0.402,-0.283,0.700,0.00,0.00,0.00,0.00,-70.62,38.01,-1.14,4.39,27.42,-108.65,-17.40,39.45,1334,1308,1472,1270,1346,1502,1519,0,737
237511,0,59.39,-46.69,5.70,0.272,-0.268,0.925,0.00,0.00,0.00,0.00,-59.39,46.69,-1.28,4.46,27.58,-40.95,73.55,39.42,1334,1308,1472,1270,1346,1502,1519,0,737
237523,0,52.95,-26.56,7.76,-0.120,-0.145,1.189,0.00,0.00,0.00,0.00,-52.95,26.56,-1.42,4.54,27.73,-2.16,-0.90,34.43,1243,1485,1299,1357,1346,1505,1520,0,736
237535,0,41.76,-54.30,5.69,-0.014,-0.197,1.071,0.00,0.00,0.00,0.00,-41.76,54.30,-1.56,4.60,27.93,44.38,110.00,39.81,1243,1485,1299,1357,1346,1509,1520,0,736
237547,0,42.01,-24.92,0.78,-0.283,-0.115,1.300,0.00,0.00,0.00,0.00,-42.01,24.92,-1.71,4.66,28.15,38.00,14.95,53.22,1243,1485,1299,1357,1346,1509,1520,0,736
237559,0,34.45,-76.24,4.90,-0.164,-0.064,1.110,0.00,0.00,0.00,0.00,-34.45,76.24,-1.83,4.78,28.35,56.58,110.00,42.19,1243,1485,1299,1357,1346,1501,1520,0,736
237571,0,24.39,-83.27,8.42,0.070,-0.065,1.038,0.00,0.00,0.00,0.00,-24.39,83.27,-1.95,4.94,28.43,81.00,110.00,33.48,1243,1485,1299,1357,1346,1501,1520,0,736
237583,0,27.98,-46.17,2.66,-0.088,-0.082,1.097,0.00,0.00,0.00,0.00,-27.98,46.17,-2.04,5.03,28.69,33.86,35.71,48.13,1243,1485,1299,1357,1346,1501,1520,0,736
237595,0,27.51,-43.48,1.51,-0.315,-0.009,1.319,0.00,0.00,0.00,5.20,-27.51,48.68,-2.13,5.13,28.96,13.70,32.45,51.29,1243,1485,1299,1357,1340,1501,1526,0,736
237607,0,19.55,-84.18,0.76,0.022,0.053,1.110,0.00,0.00,0.00,5.20,-19.55,89.38,-2.20,5.29,29.23,30.37,110.00,52.53,1243,1485,1299,1357,1340,1501,1526,0,736
237619,0,11.22,-54.04,0.60,-0.101,0.077,1.183,0.00,0.00,0.00,4.20,-11.22,58.24,-2.25,5.43,29.47,37.48,30.14,52.27,1288,1332,1466,1302,1347,1501,1521,0,744
237631,0,6.90,-70.27,4.14,-0.141,-0.055,1.123,0.00,0.00,0.00,4.20,-6.90,74.47,-2.28,5.58,29.73,22.53,78.23,43.67,1288,1332,1466,1302,1347,1501,1521,0,744
237643,0,12.12,-77.98,4.70,0.153,-0.146,0.875,0.00,0.00,0.00,0.00,-12.12,77.98,-2.30,5.74,29.97,-14.11,76.67,42.53,1288,1332,1466,1302,1346,1501,1520,0,744
237655,0,22.36,-25.68,-1.10,0.044,-0.078,0.998,0.00,0.00,0.00,4.20,-22.36,29.88,-2.32,5.86,30.25,-72.03,-110.00,57.29,1288,1332,1466,1302,1346,1491,1521,0,744
237667,0,23.47,-8.35,-3.35,-0.251,0.079,1.198,0.00,0.00,0.00,4.20,-23.47,12.55,-2.34,5.94,30.61,-81.53,-106.40,62.39,1288,1332,1466,1302,1346,1491,1521,0,744
237679,0,14.74,-33.07,-0.93,-0.189,0.086,1.180,0.00,0.00,0.00,4.20,-14.74,37.27,-2.34,6.03,30.89,-48.76,15.30,53.02,1288,1332,1466,1302,1346,1501,1521,0,744
237691,0,5.63,-27.23,-1.33,-0.206,0.180,1.243,0.00,0.00,0.00,4.20,-5.63,31.43,-2.34,6.13,31.13,-12.25,-11.76,54.27,1288,1332,1466,1302,1346,1501,1521,0,744
237703,0,-2.62,-26.14,0.81,-0.292,0.117,1.279,0.00,0.00,0.00,4.20,2.62,30.34,-2.34,6.23,31.33,22.39,-11.92,48.20,1288,1332,1466,1302,1345,1500,1521,0,744
237715,0,4.04,-35.69,3.89,-0.160,0.071,1.175,0.00,0.00,0.00,4.40,-4.04,40.09,-2.35,6.32,31.51,-2.55,25.06,40.68,1288,1332,1466,1302,1345,1501,1522,0,744
237727,0,11.70,-20.06,3.38,0.069,0.045,1.089,0.00,0.00,0.00,4.40,-11.70,24.46,-2.36,6.42,31.40,-32.20,-54.37,22.95,1378,1256,1480,1266,1345,1501,1522,0,737
237739,0,14.86,7.59,2.18,0.069,0.087,1.098,0.00,0.00,0.00,4.40,-14.86,-3.19,-2.38,6.51,31.28,-37.93,-110.00,25.83,1378,1256,1480,1266,1345,1501,1522,0,737
237751,0,12.10,16.68,-1.33,-0.071,0.166,1.152,0.00,0.00,0.00,4.40,-12.10,-12.28,-2.40,6.53,31.23,-10.31,-102.26,34.55,1378,1256,1480,1266,1345,1501,1522,0,737
237763,0,9.38,19.61,-1.91,-0.292,0.189,1.292,0.00,0.00,0.00,4.20,-9.38,-15.41,-2.44,6.50,31.21,22.82,-14.72,35.98,1378,1256,1480,1266,1339,1501,1521,0,737
237775,0,11.94,25.22,0.07,-0.566,0.255,1.486,0.00,0.00,0.00,0.00,-11.94,-25.22,-2.47,6.48,31.23,16.65,-39.27,31.07,1378,1256,1480,1266,1314,1501,1520,0,737
237787,0,11.00,-5.72,6.33,-0.595,0.226,1.456,0.00,0.00,0.00,0.00,-11.00,5.72,-2.51,6.51,31.45,19.92,15.05,35.43,1378,1256,1480,1266,1314,1501,1520,0,737
237799,0,11.01,-52.00,6.92,-0.079,0.050,1.133,0.00,0.00,0.00,0.00,-11.01,52.00,-2.55,6.61,31.49,20.08,103.37,14.18,1378,1256,1480,1266,1314,1501,1520,0,737
237811,0,21.77,-17.91,2.98,0.107,0.016,0.979,0.00,0.00,0.00,0.00,-21.77,17.91,-2.61,6.66,31.37,-14.98,-16.89,23.91,1378,1256,1480,1266,1314,1501,1520,0,737
237823,0,30.47,31.35,-0.06,-0.036,0.069,1.140,0.00,0.00,0.00,0.00,-30.47,-31.35,-2.66,6.66,31.26,-44.86,-110.00,31.40,1278,1418,1224,1332,1313,1501,1520,0,732
237835,0,32.77,11.30,-2.00,0.036,0.177,1.091,0.00,0.00,0.00,4.20,-32.77,-7.10,-2.73,6.68,31.20,-30.65,-51.89,36.20,1278,1418,1224,1332,1313,1502,1521,0,732
237847,0,29.47,-20.42,2.82,0.108,0.136,1.015,0.00,0.00,0.00,4.20,-29.47,24.62,-2.81,6.70,31.41,11.45,91.48,53.17,1278,1418,1224,1332,1313,1502,1521,0,732
237859,0,39.90,-40.48,10.25,0.335,0.127,0.944,0.00,0.00,0.00,4.20,-39.90,44.68,-2.90,6.81,31.47,-15.98,67.08,26.55,1278,1418,1224,1332,1313,1501,1521,0,732
237871,0,49.72,-29.32,15.73,-0.017,0.165,0.947,0.00,0.00,0.00,4.20,-49.72,33.52,-2.99,6.98,31.45,-69.73,-102.35,12.81,1278,1418,1224,1332,1313,1501,1521,0,732
237883,0,50.77,-52.82,15.94,-0.065,0.018,0.938,0.00,0.00,0.00,4.20,-50.77,57.02,-3.08,7.09,31.41,-71.28,58.04,11.37,1278,1418,1224,1332,1313,1501,1521,0,732
237895,0,57.70,-93.45,11.31,0.187,-0.048,0.865,0.00,0.00,0.00,4.20,-57.70,97.65,-3.20,7.20,31.33,-74.66,110.00,22.87,1278,1418,1224,1332,1313,1501,1521,0,732
237907,0,67.27,-121.21,13.49,0.351,-0.196,0.529,0.00,0.00,0.00,4.20,-67.27,125.41,-3.34,7.44,31.07,-79.48,110.00,16.23,1278,1418,1224,1332,1313,1501,1521,0,732
237919,128,85.73,-30.90,11.51,0.053,-0.093,0.895,0.00,0.00,0.00,4.20,-85.73,35.10,-3.48,7.64,30.84,-110.00,-110.00,22.75,1292,1500,1116,1292,1314,1501,1521,0,735
237931,128,84.11,-85.69,16.05,0.530,-0.199,0.500,0.00,0.00,0.00,4.20,-84.11,89.89,-3.63,7.89,30.62,-110.00,4.94,11.20,1292,1500,1116,1292,1314,1501,1521,0,735
237943,0,58.18,-124.32,15.70,0.518,-0.239,0.380,0.00,0.00,0.00,0.00,-58.18,124.32,-3.78,8.22,30.31,-6.88,48.15,13.55,1292,1500,1116,1292,1314,1501,1520,0,735
237955,0,61.16,-117.49,18.74,0.530,-0.238,0.480,0.00,0.00,0.00,0.00,-61.16,117.49,-3.96,8.44,29.99,16.11,110.00,5.65,1292,1500,1116,1292,1314,1501,1520,0,735
237967,0,72.01,-125.67,22.58,0.312,-0.270,0.461,0.00,0.00,0.00,0.00,-72.01,125.67,-4.14,8.77,29.66,-21.06,70.05,-4.29,1292,1500,1116,1292,1314,1501,1520,0,735
237979,0,76.96,-129.68,23.46,0.305,-0.294,0.420,0.00,0.00,0.00,4.20,-76.96,133.88,-4.35,9.05,29.35,-20.89,110.00,-7.70,1292,1500,1116,1292,1313,1501,1521,0,735
237991,0,70.22,-181.62,21.24,0.264,-0.286,0.264,0.00,0.00,0.00,4.20,-70.22,185.82,-4.56,9.42,28.99,30.81,110.00,-2.51,1292,1500,1116,1292,1313,1501,1521,0,735
238003,0,93.52,-163.55,18.60,0.394,-0.282,0.323,0.00,0.00,0.00,0.00,-93.52,163.55,-4.80,9.66,28.69,-31.79,110.00,1.09,1292,1500,1116,1292,1313,1501,1520,0,735
238015,0,100.41,-117.29,14.44,0.342,-0.165,0.361,0.00,0.00,0.00,0.00,-100.41,117.29,-5.04,9.94,28.42,-47.40,53.03,11.22,1292,1500,1116,1292,1313,1501,1520,0,735
238027,0,109.09,-84.62,10.14,0.269,0.055,0.606,0.00,0.00,0.00,0.00,-109.09,84.62,-5.30,10.00,28.23,-57.97,-24.05,21.78,1476,1262,1370,1144,1313,1501,1520,0,736
238039,0,117.07,-116.05,11.30,-0.017,0.126,0.730,0.00,0.00,0.00,4.40,-117.07,120.45,-5.57,10.00,28.01,-78.98,24.03,20.46,1476,1262,1370,1144,1313,1501,1522,0,736
238051,128,133.35,-94.67,16.50,-0.356,0.131,1.041,0.00,0.00,0.00,4.40,-133.35,99.07,-5.84,10.00,27.76,-110.00,-67.85,7.21,1476,1262,1370,1144,1313,1501,1522,0,736
238063,128,135.23,-40.89,17.94,-0.567,0.055,1.241,0.00,0.00,0.00,0.00,-135.23,40.89,-6.09,10.00,27.56,-110.00,-110.00,3.40,1476,1262,1370,1144,1314,1502,1520,0,736
238075,0,109.12,-104.96,10.86,0.094,-0.264,0.629,0.00,0.00,0.00,0.00,-109.12,104.96,-6.34,10.00,27.51,-65.45,110.00,21.05,1476,1262,1370,1144,1313,1502,1520,0,736
238087,0,87.92,-165.64,10.92,-0.045,-0.248,0.520,0.00,0.00,0.00,0.00,-87.92,165.64,-6.56,10.00,27.42,-4.13,110.00,20.82,1476,1262,1370,1144,1313,1502,1520,0,736
238099,0,78.47,-164.60,10.62,-0.041,-0.060,0.525,0.00,0.00,0.00,4.40,-78.47,169.00,-6.77,10.00,27.34,12.41,110.00,20.60,1476,1262,1370,1144,1313,1501,1522,0,736
238111,0,68.70,-142.35,13.64,-0.038,-0.014,0.659,0.00,0.00,0.00,4.40,-68.70,146.75,-6.96,10.00,27.23,19.73,110.00,12.93,1476,1262,1370,1144,1313,1501,1522,0,736
238123,0,57.09,-162.82,14.03,0.016,-0.073,0.657,0.00,0.00,0.00,0.00,-57.09,162.82,-7.13,10.00,27.10,26.81,110.00,11.83,1376,1178,1470,1228,1313,1502,1520,0,735
238135,0,45.03,-151.00,9.26,-0.019,-0.105,0.687,0.00,0.00,0.00,0.00,-45.03,151.00,-7.28,10.00,27.07,46.69,109.61,23.72,1376,1178,1470,1228,1312,1501,1520,0,735
238147,0,37.07,-138.83,6.32,-0.007,-0.095,0.658,0.00,0.00,0.00,0.00,-37.07,138.83,-7.42,10.00,27.12,56.61,110.00,32.93,1376,1178,1470,1228,1312,1501,1520,0,735
238159,0,40.59,-132.50,3.88,0.052,-0.037,0.659,0.00,0.00,0.00,4.20,-40.59,136.70,-7.54,10.00,27.20,19.45,110.00,38.21,1376,1178,1470,1228,1312,1501,1521,0,735
238171,0,45.85,-145.75,4.00,0.132,-0.020,0.679,0.00,0.00,0.00,4.20,-45.85,149.95,-7.65,10.00,27.26,-27.47,110.00,37.97,1376,1178,1470,1228,1312,1501,1521,0,735
238183,0,51.62,-114.81,3.86,-0.016,0.002,0.895,0.00,0.00,0.00,4.20,-51.62,119.01,-7.75,10.00,27.32,-79.08,110.00,38.38,1376,1178,1470,1228,1312,1501,1521,0,735
238195,128,61.33,-76.83,5.76,-0.145,0.033,1.066,0.00,0.00,0.00,4.20,-61.33,81.03,-7.84,10.00,27.36,-110.00,-32.10,33.65,1376,1178,1470,1228,1312,1501,1521,0,735
238207,128,66.25,-72.01,12.84,-0.306,0.091,0.953,0.00,0.00,0.00,4.20,-66.25,76.21,-7.92,10.00,27.35,-110.00,-110.00,17.76,1376,1178,1470,1228,1312,1501,1521,0,735
238219,128,65.66,-89.29,17.38,-0.159,-0.038,0.829,0.00,0.00,0.00,4.20,-65.66,93.49,-8.00,10.00,27.27,-110.00,-40.13,5.42,1377,1467,1167,1237,1312,1501,1521,0,978
238231,0,47.96,-108.39,17.04,-0.013,-0.242,0.640,0.00,0.00,0.00,4.20,-47.96,112.59,-8.07,10.00,27.15,-103.16,89.23,6.15,1377,1467,1167,1237,1312,1501,1521,0,978
238243,0,27.11,-108.06,15.44,-0.041,-0.218,0.627,0.00,0.00,0.00,0.00,-27.11,108.06,-8.13,10.00,26.99,-15.18,110.00,11.78,1377,1467,1167,1237,1311,1501,1520,0,978
238255,0,26.81,-99.30,14.54,-0.021,-0.158,0.747,0.00,0.00,0.00,4.20,-26.81,103.50,-8.22,10.00,26.80,5.56,102.99,13.86,1377,1467,1167,1237,1306,1501,1521,0,978
238267,0,28.47,-92.11,15.12,-0.167,-0.098,0.792,0.00,0.00,0.00,4.20,-28.47,96.31,-8.31,10.00,26.74,9.77,5.65,23.14,1377,1467,1167,1237,1306,1501,1521,0,978
238279,0,39.56,-108.39,19.09,0.047,-0.105,0.745,0.00,0.00,0.00,4.20,-39.56,112.59,-8.41,10.00,26.63,-22.65,63.23,13.10,1377,1467,1167,1237,1306,1501,1521,0,978
238291,0,45.03,-120.10,20.96,0.202,-0.119,0.608,0.00,0.00,0.00,4.20,-45.03,124.30,-8.51,10.00,26.48,-49.14,-23.95,8.27,1377,1467,1167,1237,1306,1501,1521,0,978
238303,0,23.01,-162.44,17.71,0.222,-0.236,0.407,0.00,0.00,0.00,0.00,-23.01,162.44,-8.61,10.00,26.29,53.46,110.00,16.21,1377,1467,1167,1237,1306,1501,1520,0,978
238315,0,29.40,-132.03,15.81,0.111,-0.186,0.493,0.00,0.00,0.00,4.20,-29.40,136.23,-8.73,10.00,26.10,60.64,110.00,20.76,1377,1467,1167,1237,1306,1501,1521,0,978
238327,0,39.30,-120.62,15.16,-0.008,-0.153,0.450,0.00,0.00,0.00,4.20,-39.30,124.82,-8.86,10.00,25.92,33.83,110.00,22.23,1432,1248,1374,1170,1306,1501,1521,0,737
238339,0,57.36,-120.64,17.36,0.057,-0.125,0.477,0.00,0.00,0.00,0.00,-57.36,120.64,-9.00,10.00,25.76,-30.98,110.00,16.56,1432,1248,1374,1170,1305,1501,1520,0,737
238351,128,83.43,-51.92,16.04,-0.135,0.090,0.826,0.00,0.00,0.00,0.00,-83.43,51.92,-9.15,10.00,25.68,-110.00,-110.00,19.79,1432,1248,1374,1170,1305,1501,1520,0,737
238363,128,89.59,-93.43,15.24,0.164,-0.014,0.642,0.00,0.00,0.00,4.20,-89.59,97.63,-9.29,10.00,25.61,-110.00,30.55,21.72,1432,1248,1374,1170,1296,1501,1521,0,737
238375,128,80.25,-66.23,14.99,-0.013,-0.054,0.674,0.00,0.00,0.00,4.20,-80.25,70.43,-9.43,10.00,25.56,-110.00,-110.00,22.28,1432,1248,1374,1170,1295,1500,1521,0,737
238387,0,66.44,-48.85,14.38,-0.106,-0.007,0.574,0.00,0.00,0.00,4.20,-66.44,53.05,-9.57,10.00,25.52,-78.52,-110.00,23.76,1432,1248,1374,1170,1295,1500,1521,0,737
238399,0,55.02,-61.87,14.08,-0.066,0.069,0.505,0.00,0.00,0.00,4.20,-55.02,66.07,-9.70,10.00,25.49,-37.22,-98.68,24.48,1432,1248,1374,1170,1294,1502,1521,0,737
238411,0,48.23,-74.43,15.31,0.055,0.173,0.538,0.00,0.00,0.00,4.20,-48.23,78.63,-9.83,10.00,25.48,-9.14,-18.37,21.40,1432,1248,1374,1170,1294,1502,1521,0,737
238423,0,43.27,-50.23,15.49,-0.016,0.205,0.749,0.00,0.00,0.00,4.20,-43.27,54.43,-9.97,10.00,25.46,9.99,-110.00,20.92,1344,1180,1466,1190,1295,1501,1521,0,738
238435,0,40.66,-14.77,15.40,-0.164,0.180,0.859,0.00,0.00,0.00,4.20,-40.66,18.97,-10.00,10.00,25.44,12.41,-110.00,21.15,1344,1180,1466,1190,1278,1500,1521,0,738
238447,0,36.47,6.13,12.97,-0.285,0.144,0.899,0.00,0.00,0.00,4.20,-36.47,-1.93,-10.00,10.00,25.70,23.69,-110.00,45.47,1344,1180,1466,1190,1278,1500,1521,0,738
238459,0,29.88,-19.13,11.62,-0.248,0.121,0.822,0.00,0.00,0.00,4.80,-29.88,23.93,-10.00,10.00,25.98,42.70,-48.72,49.12,1344,1180,1466,1190,1274,1500,1524,0,738
238471,0,31.21,-39.38,17.91,-0.065,0.018,0.521,0.00,0.00,0.00,4.80,-31.21,44.18,-10.00,10.00,26.21,24.15,14.18,33.64,1344,1180,1466,1190,1274,1500,1524,0,738
238483,128,-44.19,-236.90,-1.93,1.073,1.417,0.275,0.00,0.00,0.00,4.20,44.19,241.10,-9.96,10.00,26.64,110.00,110.00,75.57,1344,1180,1466,1190,1276,1495,1521,0,738
