time_ms,flags,gyro_x,gyro_y,gyro_z,accel_x,accel_y,accel_z,roll,pitch,rate_sp_roll,rate_sp_pitch,rate_err_roll,rate_err_pitch,rate_i_roll,rate_i_pitch,rate_i_yaw,pid_roll,pid_pitch,pid_yaw,m1,m2,m3,m4,rc_thr,rc_roll,rc_pitch,battery_mv,loop_us
68627,0,-0.01,-0.00,-0.06,0.003,-0.029,0.999,0.00,0.00,0.00,0.00,0.01,0.00,-0.00,0.00,0.00,0.07,-0.08,0.15,1100,1100,1100,1100,1029,1501,1518,0,739
68639,0,-0.05,-0.01,-0.05,0.002,-0.030,0.998,0.00,0.00,0.00,0.00,0.05,0.01,0.00,0.00,0.01,0.14,0.10,0.13,1100,1100,1100,1100,1029,1501,1518,0,739
68651,0,-0.02,0.02,-0.02,0.002,-0.030,0.998,0.00,0.00,0.00,0.00,0.02,-0.02,0.00,0.00,0.01,-0.08,-0.03,0.05,1100,1100,1100,1100,1029,1501,1518,0,739
68663,0,0.01,-0.01,-0.04,0.002,-0.030,0.999,0.00,0.00,0.00,0.00,-0.01,0.01,0.00,0.00,0.01,-0.02,0.07,0.10,1100,1100,1100,1100,1030,1501,1518,0,739
68675,0,-0.03,-0.01,-0.06,0.003,-0.030,0.999,0.00,0.00,0.00,0.00,0.03,0.01,0.00,0.00,0.01,-0.02,0.02,0.17,1100,1100,1100,1100,1030,1500,1518,0,739
68687,0,0.02,-0.07,-0.04,0.003,-0.030,0.999,0.00,0.00,0.00,0.00,-0.02,0.07,0.00,0.00,0.01,-0.12,0.20,0.10,1100,1100,1100,1100,1030,1500,1518,0,739
68699,0,-0.01,-0.03,-0.08,0.003,-0.030,0.999,0.00,0.00,0.00,0.00,0.01,0.03,0.00,0.00,0.01,0.03,-0.01,0.21,1100,1100,1100,1100,1029,1500,1518,0,739
68711,0,-0.06,-0.09,-0.02,0.003,-0.029,0.998,0.00,0.00,0.00,0.00,0.06,0.09,0.00,0.00,0.01,0.12,0.11,0.05,1100,1100,1100,1100,1029,1500,1518,0,739
68723,0,0.04,0.05,-0.01,0.003,-0.028,0.998,0.00,0.00,0.00,0.00,-0.04,-0.05,0.00,0.00,0.01,-0.24,-0.45,0.04,1100,1100,1100,1100,1029,1502,1518,0,731
68735,0,-0.01,-0.01,-0.05,0.003,-0.027,0.998,0.00,0.00,0.00,0.00,0.01,0.01,0.00,0.00,0.02,0.14,-0.04,0.15,1100,1100,1100,1100,1029,1500,1519,0,731
68747,0,-0.11,-0.22,-0.09,0.003,-0.028,0.999,0.00,0.00,0.00,0.00,0.11,0.22,0.00,0.00,0.02,0.56,0.54,0.24,1100,1100,1100,1100,1029,1500,1519,0,731
68759,0,-0.15,-0.22,-0.13,0.004,-0.029,0.998,0.00,0.00,0.00,0.00,0.15,0.22,0.00,0.00,0.02,0.75,0.60,0.35,1100,1100,1100,1100,1030,1501,1517,0,731
68771,0,-0.28,-0.38,-0.09,0.004,-0.030,0.996,0.00,0.00,0.00,0.00,0.28,0.38,0.00,0.00,0.02,1.43,1.50,0.24,1100,1100,1100,1100,1030,1501,1517,0,731
68783,0,-0.22,-0.37,-0.07,0.005,-0.032,0.996,0.00,0.00,0.00,0.00,0.22,0.37,0.00,0.00,0.03,1.15,1.44,0.19,1100,1100,1100,1100,1031,1502,1517,0,731
68795,0,-0.12,-0.27,0.02,0.005,-0.032,0.997,0.00,0.00,0.00,0.00,0.12,0.27,0.00,0.00,0.03,0.45,1.18,-0.02,1100,1100,1100,1100,1030,1501,1518,0,731
68807,0,-0.11,-0.04,0.09,0.002,-0.033,0.997,0.00,0.00,0.00,0.00,0.11,0.04,0.00,0.00,0.02,0.26,0.19,-0.20,1100,1100,1100,1100,1030,1501,1518,0,731
68819,0,-0.00,-0.22,0.01,0.001,-0.032,1.001,0.00,0.00,0.00,0.00,0.00,0.22,0.00,0.00,0.02,-0.21,1.40,-0.01,1100,1100,1100,1100,1030,1501,1518,0,731
68831,0,-0.11,-0.39,-0.35,0.003,-0.032,0.998,0.00,0.00,0.00,0.00,0.11,0.39,0.00,0.00,0.03,0.15,1.39,0.91,1100,1100,1100,1100,1030,1501,1518,0,731
68843,0,-0.79,-0.27,-0.01,0.011,-0.031,0.993,0.00,0.00,0.00,0.00,0.79,0.27,0.00,0.00,0.03,3.31,0.07,0.06,1100,1100,1100,1100,1030,1501,1518,0,731
68855,0,-0.38,0.08,0.56,0.016,-0.024,0.994,0.00,0.00,0.00,0.00,0.38,-0.08,0.00,0.00,0.02,2.40,-2.79,-1.39,1100,1100,1100,1100,1030,1498,1518,0,731
68867,0,0.17,1.14,-0.22,0.010,-0.027,0.993,0.00,0.00,0.00,0.00,-0.17,-1.14,-0.00,0.00,0.02,0.53,-6.38,0.58,1100,1100,1100,1100,1030,1498,1518,0,731
68879,0,0.11,0.82,-0.04,0.012,-0.028,0.985,0.00,0.00,0.00,0.00,-0.11,-0.82,-0.00,0.01,0.03,-0.04,-4.69,0.13,1100,1100,1100,1100,1030,1501,1518,0,731
68891,0,0.20,-0.19,0.55,0.003,-0.034,0.990,0.00,0.00,0.00,0.00,-0.20,0.19,-0.00,0.01,0.02,-1.08,-1.76,-1.34,1100,1100,1100,1100,1030,1501,1518,0,731
68903,0,0.55,-0.70,-0.17,0.005,-0.032,0.986,0.00,0.00,0.00,0.00,-0.55,0.70,0.00,0.01,0.03,-2.84,0.89,0.44,1100,1100,1100,1100,1030,1501,1518,0,731
68915,0,0.42,-1.61,0.31,0.005,-0.033,0.988,0.00,0.00,0.00,0.00,-0.42,1.61,0.00,0.01,0.02,-1.70,5.11,-0.74,1100,1100,1100,1100,1029,1501,1518,0,731
68927,0,0.12,-3.58,-0.23,0.045,-0.024,0.964,0.00,0.00,0.00,0.00,-0.12,3.58,-0.00,0.02,0.02,0.88,5.71,0.60,1100,1100,1100,1100,1029,1501,1518,0,732
68939,0,0.60,-1.95,-0.07,0.027,-0.018,0.979,0.00,0.00,0.00,0.00,-0.60,1.95,-0.00,0.02,0.03,-1.11,4.06,0.21,1100,1100,1100,1100,1029,1501,1518,0,732
68951,0,-0.14,-3.71,0.08,0.029,-0.023,0.972,0.00,0.00,0.00,0.00,0.14,3.71,-0.00,0.02,0.02,1.57,13.96,-0.19,1100,1100,1100,1100,1029,1501,1518,0,732
68963,0,-1.44,-3.06,-0.55,0.024,-0.019,0.974,0.00,0.00,0.00,0.00,1.44,3.06,-0.00,0.03,0.03,6.15,9.19,1.39,1100,1100,1100,1100,1030,1501,1518,0,732
68975,0,-1.26,-2.28,0.03,0.017,-0.027,0.982,0.00,0.00,0.00,0.00,1.26,2.28,-0.00,0.03,0.03,4.48,8.18,-0.05,1100,1100,1100,1100,1029,1501,1518,0,732
68987,0,-0.95,0.08,-0.47,0.003,-0.035,0.988,0.00,0.00,0.00,0.00,0.95,-0.08,0.00,0.03,0.03,2.88,-3.67,1.20,1100,1100,1100,1100,1029,1501,1518,0,732
68999,0,-0.08,-2.81,0.05,0.006,-0.051,0.979,0.00,0.00,0.00,0.00,0.08,2.81,0.00,0.03,0.03,-0.65,6.44,-0.10,1100,1100,1100,1100,1030,1501,1518,0,732
69011,0,0.68,-3.13,0.06,0.010,-0.055,0.976,0.00,0.00,0.00,0.00,-0.68,3.13,-0.00,0.04,0.03,-2.30,-1.11,-0.14,1100,1100,1100,1100,1030,1501,1518,0,732
69023,0,0.59,-1.74,-0.39,0.003,-0.034,0.975,0.00,0.00,0.00,0.00,-0.59,1.74,-0.00,0.05,0.04,1.07,-2.17,1.01,1100,1100,1100,1100,1029,1501,1518,0,731
69035,0,0.18,-0.01,0.49,0.001,-0.034,0.987,0.00,0.00,0.00,0.00,-0.18,0.01,-0.00,0.05,0.03,1.63,-3.45,-1.20,1100,1100,1100,1100,1029,1502,1517,0,731
69047,0,0.72,1.85,-0.32,-0.008,-0.036,0.999,0.00,0.00,0.00,0.00,-0.72,-1.85,-0.01,0.05,0.03,-0.63,-6.66,0.84,1100,1100,1100,1100,1029,1502,1517,0,731
69059,0,0.71,1.48,-0.35,-0.016,-0.029,1.007,0.00,0.00,0.00,0.00,-0.71,-1.48,-0.01,0.04,0.05,-0.87,0.00,0.91,1100,1100,1100,1100,1038,1501,1519,0,731
69071,0,-0.70,0.27,0.34,-0.028,-0.018,1.004,0.00,0.00,0.00,0.00,0.70,-0.27,-0.01,0.04,0.04,1.34,2.74,-0.80,1100,1100,1100,1100,1038,1501,1519,0,731
69083,0,0.12,-1.83,-0.01,0.002,-0.038,1.002,0.00,0.00,0.00,0.00,-0.12,1.83,-0.00,0.04,0.04,-1.54,7.02,0.06,1100,1100,1100,1100,1029,1504,1515,0,731
69095,0,-0.73,-1.82,-0.16,0.032,-0.036,0.984,0.00,0.00,0.00,0.00,0.73,1.82,-0.01,0.05,0.05,4.00,-0.98,0.44,1100,1100,1100,1100,1030,1501,1518,0,731
69107,0,-0.70,0.29,0.24,0.035,-0.032,0.991,0.00,0.00,0.00,0.00,0.70,-0.29,-0.00,0.05,0.04,0.36,-3.36,-0.56,1100,1100,1100,1100,1030,1501,1518,0,731
69119,0,0.50,-0.28,-0.11,0.041,-0.033,0.976,0.00,0.00,0.00,0.00,-0.50,0.28,-0.00,0.05,0.04,-1.93,3.97,0.32,1100,1100,1100,1100,1030,1500,1518,0,733
69131,0,-0.66,0.55,-0.44,0.018,-0.014,0.988,0.00,0.00,0.00,0.00,0.66,-0.55,-0.00,0.04,0.05,1.02,0.83,1.15,1100,1100,1100,1100,1030,1500,1518,0,733
69143,0,1.23,0.29,0.74,0.010,-0.046,0.987,0.00,0.00,0.00,0.00,-1.23,-0.29,-0.00,0.04,0.04,-3.64,-1.68,-1.81,1100,1100,1100,1100,1029,1501,1519,0,733
69155,0,0.19,0.47,-0.84,-0.012,-0.028,1.020,0.00,0.00,0.00,0.00,-0.19,-0.47,-0.00,0.05,0.05,0.93,-2.85,2.14,1100,1100,1100,1100,1029,1499,1519,0,733
69167,0,1.42,-2.69,-0.20,0.032,-0.039,0.966,0.00,0.00,0.00,0.00,-1.42,2.69,-0.01,0.05,0.07,-3.91,11.15,0.56,1100,1100,1100,1100,1029,1499,1519,0,733
69179,0,-1.27,0.79,0.15,0.019,-0.035,0.994,0.00,0.00,0.00,0.00,1.27,-0.79,-0.01,0.04,0.06,6.99,1.60,-0.31,1100,1100,1100,1100,1030,1501,1518,0,733
69191,0,0.92,1.15,-0.52,0.019,-0.026,0.986,0.00,0.00,0.00,0.00,-0.92,-1.15,-0.01,0.04,0.08,-4.69,-4.86,1.37,1100,1100,1100,1100,1030,1501,1518,0,733
69203,0,-1.95,-0.66,0.37,0.006,-0.035,0.987,0.00,0.00,0.00,0.00,1.95,0.66,-0.00,0.04,0.07,6.69,6.75,-0.86,1100,1100,1100,1100,1029,1501,1518,0,733
69215,0,0.95,0.97,-0.52,0.016,-0.030,0.988,0.00,0.00,0.00,0.00,-0.95,-0.97,-0.00,0.04,0.08,-6.11,-3.54,1.38,1100,1100,1100,1100,1029,1501,1518,0,733
69227,0,-1.51,-1.75,0.46,0.006,-0.040,0.998,0.00,0.00,0.00,0.00,1.51,1.75,-0.00,0.04,0.07,4.47,2.52,-1.07,1100,1100,1100,1100,1029,1501,1518,0,733
69239,0,1.70,1.62,-0.34,0.012,-0.035,0.996,0.00,0.00,0.00,0.00,-1.70,-1.62,-0.00,0.05,0.09,-8.00,-9.47,0.95,1100,1100,1100,1100,1029,1501,1518,0,733
69251,0,-1.06,1.76,0.27,0.000,-0.045,1.019,0.00,0.00,0.00,0.00,1.06,-1.76,-0.00,0.04,0.08,4.04,-2.57,-0.60,1100,1100,1100,1100,1029,1501,1518,0,733
69263,0,1.45,2.17,-0.01,0.008,-0.046,0.977,0.00,0.00,0.00,0.00,-1.45,-2.17,-0.00,0.04,0.09,-6.25,-5.66,0.12,1100,1100,1100,1100,1029,1501,1518,0,733
69275,0,0.28,1.73,-0.14,-0.021,-0.031,1.030,0.00,0.00,0.00,4.60,-0.28,2.87,-0.00,0.04,0.09,-1.07,3.54,0.43,1100,1100,1100,1100,1025,1495,1523,0,733
69287,0,2.71,-0.40,0.72,0.008,-0.043,0.957,0.00,0.00,0.00,4.60,-2.71,5.00,-0.01,0.05,0.10,-8.73,6.34,-1.70,1100,1100,1100,1100,1025,1495,1523,0,733
69299,0,0.69,-5.02,-0.55,0.044,-0.032,0.992,0.00,0.00,0.00,0.00,-0.69,5.02,-0.01,0.06,0.09,-2.55,16.47,1.46,1100,1100,1100,1100,1030,1501,1518,0,733
69311,0,3.21,-1.43,0.94,0.067,-0.028,0.925,0.00,0.00,0.00,0.00,-3.21,1.43,-0.01,0.07,0.09,-10.80,-8.91,-2.26,1100,1100,1100,1100,1030,1501,1518,0,733
69323,0,1.00,3.31,-0.78,-0.004,-0.015,1.033,0.00,0.00,0.00,0.00,-1.00,-3.31,-0.01,0.07,0.10,-5.74,-13.60,2.06,1100,1100,1100,1100,1030,1501,1518,0,731
69335,0,-0.32,6.45,-0.14,-0.035,-0.005,1.026,0.00,0.00,0.00,0.00,0.32,-6.45,-0.01,0.05,0.10,2.48,-10.18,0.45,1100,1100,1100,1100,1030,1501,1518,0,731
69347,0,-0.18,-6.39,-0.13,0.054,-0.012,0.967,0.00,0.00,0.00,0.00,0.18,6.39,-0.00,0.06,0.11,-1.66,29.46,0.44,1100,1100,1100,1100,1030,1501,1518,0,731
69359,0,-2.08,-4.72,0.20,0.045,-0.027,0.946,0.00,0.00,0.00,0.00,2.08,4.72,-0.00,0.07,0.09,8.23,7.94,-0.40,1100,1100,1100,1100,1030,1501,1518,0,731
69371,0,-0.89,-1.94,0.28,0.071,-0.025,0.966,0.00,0.00,0.00,0.00,0.89,1.94,-0.00,0.08,0.10,4.30,-7.43,-0.59,1100,1100,1100,1100,1030,1501,1518,0,731
69383,0,-2.29,-4.73,-0.58,0.023,-0.033,0.969,0.00,0.00,0.00,0.00,2.29,4.73,-0.00,0.08,0.09,9.05,9.78,1.55,1100,1100,1100,1100,1030,1501,1518,0,731
69395,0,-0.06,0.41,0.55,-0.023,-0.031,0.999,0.00,0.00,0.00,0.00,0.06,-0.41,-0.00,0.08,0.09,1.34,0.37,-1.29,1100,1100,1100,1100,1030,1501,1518,0,731
69407,0,1.57,10.51,-1.32,-0.093,-0.038,1.094,0.00,0.00,0.00,0.00,-1.57,-10.51,-0.00,0.06,0.12,-6.66,-21.96,3.43,1100,1100,1100,1100,1030,1501,1518,0,731
69419,0,-1.87,3.80,0.09,-0.032,-0.040,0.998,0.00,0.00,0.00,0.00,1.87,-3.80,-0.01,0.05,0.11,9.22,7.08,-0.12,1100,1100,1100,1100,1030,1501,1518,0,731
69431,0,0.95,-1.99,-0.25,-0.003,-0.030,1.034,0.00,0.00,0.00,0.00,-0.95,1.99,-0.01,0.04,0.13,-2.94,21.89,0.75,1100,1100,1100,1100,1030,1501,1518,0,731
69443,0,2.58,3.15,-0.27,-0.018,-0.022,1.031,0.00,0.00,0.00,0.00,-2.58,-3.15,-0.01,0.04,0.13,-13.23,-17.34,0.80,1100,1100,1100,1100,1030,1501,1518,0,731
69455,0,0.12,-2.64,0.81,0.084,-0.019,0.943,0.00,0.00,0.00,24.40,-0.12,27.04,-0.01,0.07,0.14,1.33,7.07,-1.88,1100,1100,1100,1100,1000,1500,1622,0,731
69467,0,-0.83,-6.78,-1.54,0.083,-0.039,0.906,0.00,0.00,0.00,24.40,0.83,31.18,-0.00,0.14,0.15,2.86,29.01,4.01,1100,1100,1100,1100,1000,1500,1622,0,731
69479,0,-2.98,-3.09,0.12,0.036,0.001,0.954,0.00,0.00,0.00,0.00,2.98,3.09,-0.00,0.17,0.15,10.78,4.46,-0.15,1100,1100,1100,1100,1028,1501,1519,0,731
69491,0,0.48,-0.46,-0.96,0.037,-0.037,0.987,0.00,0.00,0.00,0.00,-0.48,0.46,-0.00,0.16,0.18,-2.62,4.86,2.58,1100,1100,1100,1100,1028,1501,1519,0,731
69503,0,0.88,6.55,-0.65,-0.014,-0.050,0.998,0.00,0.00,0.00,0.00,-0.88,-6.55,-0.00,0.15,0.18,-10.13,-22.23,1.80,1100,1100,1100,1100,1029,1501,1519,0,731
69515,0,-0.43,3.83,0.64,0.034,-0.024,0.993,0.00,0.00,0.00,0.00,0.43,-3.83,-0.00,0.15,0.20,4.31,-6.56,-1.39,1100,1100,1100,1100,1029,1501,1520,0,731
69527,0,3.78,1.74,-1.46,0.011,-0.041,0.986,0.00,0.00,0.00,0.00,-3.78,-1.74,-0.00,0.14,0.23,-15.91,3.88,3.88,1100,1100,1100,1100,1029,1501,1520,0,733
69539,0,-3.87,-1.18,-0.35,-0.002,-0.018,0.993,0.00,0.00,0.00,0.00,3.87,1.18,-0.00,0.14,0.23,15.25,12.57,1.12,1100,1100,1100,1100,1030,1501,1519,0,733
69551,0,1.47,2.12,-0.99,-0.018,-0.029,1.031,0.00,0.00,0.00,0.00,-1.47,-2.12,-0.00,0.13,0.26,-1.33,0.86,2.74,1100,1100,1100,1100,1030,1501,1519,0,733
69563,0,-0.85,3.44,-0.68,-0.050,-0.031,1.029,0.00,0.00,0.00,0.00,0.85,-3.44,0.00,0.13,0.27,-1.74,-10.54,1.98,1100,1100,1100,1100,1029,1501,1518,0,733
69575,0,-0.92,1.92,-0.05,-0.010,-0.015,1.028,0.00,0.00,0.00,0.00,0.92,-1.92,-0.00,0.12,0.30,7.30,0.89,0.43,1100,1100,1100,1100,1030,1501,1518,0,733
69587,0,3.60,-0.21,-1.23,-0.020,-0.061,1.009,0.00,0.00,0.00,0.00,-3.60,0.21,-0.00,0.12,0.32,-16.73,6.67,3.38,1100,1100,1100,1100,1030,1501,1518,0,733
69599,0,-3.94,-0.83,-0.16,-0.021,-0.041,1.029,0.00,0.00,0.00,0.00,3.94,0.83,0.00,0.12,0.33,14.32,5.28,0.73,1100,1100,1100,1100,1030,1501,1518,0,733
69611,0,1.96,-0.25,-0.36,0.001,-0.040,0.996,0.00,0.00,0.00,0.00,-1.96,0.25,-0.00,0.12,0.35,-6.25,-3.76,1.24,1100,1100,1100,1100,1030,1501,1518,0,733
69623,0,-0.52,-2.54,-0.31,0.003,-0.057,0.992,0.00,0.00,0.00,0.00,0.52,2.54,0.00,0.13,0.35,-3.48,4.17,1.13,1100,1100,1100,1100,1029,1502,1517,0,732
69635,0,-2.67,-2.52,-0.23,0.027,-0.028,1.002,0.00,0.00,0.00,0.00,2.67,2.52,0.00,0.13,0.36,13.91,2.17,0.92,1100,1100,1100,1100,1029,1501,1518,0,732
69647,0,2.14,-7.82,0.18,0.049,-0.062,0.941,0.00,0.00,0.00,0.00,-2.14,7.82,0.00,0.15,0.35,-9.58,16.77,-0.10,1100,1100,1100,1100,1029,1501,1518,0,732
69659,0,-1.46,-4.49,0.40,0.034,-0.042,0.982,0.00,0.00,0.00,0.00,1.46,4.49,0.00,0.15,0.35,4.70,6.60,-0.66,1100,1100,1100,1100,1029,1501,1518,0,732
69671,0,3.44,-0.39,0.08,0.027,-0.032,0.950,0.00,0.00,0.00,0.00,-3.44,0.39,-0.00,0.17,0.34,-9.89,-17.25,0.14,1100,1100,1100,1100,1029,1501,1518,0,732
69683,0,0.13,-2.64,-0.24,0.029,-0.060,0.959,0.00,0.00,0.00,0.00,-0.13,2.64,-0.00,0.17,0.35,-2.64,2.75,0.94,1100,1100,1100,1100,1036,1501,1520,0,732
69695,0,-5.11,-1.23,-0.31,-0.000,-0.001,0.969,0.00,0.00,0.00,0.00,5.11,1.23,-0.00,0.17,0.35,23.35,0.74,1.11,1100,1100,1100,1100,1030,1501,1518,0,732
69707,0,2.38,-2.69,0.38,-0.023,-0.007,0.967,0.00,0.00,0.00,0.00,-2.38,2.69,-0.00,0.17,0.36,-9.33,10.14,-0.59,1100,1100,1100,1100,1030,1501,1518,0,732
69719,0,-0.69,2.41,-1.16,-0.057,-0.014,1.064,0.00,0.00,0.00,0.00,0.69,-2.41,0.00,0.17,0.37,-3.08,-7.34,3.27,1100,1100,1100,1100,1031,1501,1518,0,731
69731,0,1.22,3.16,0.00,-0.013,-0.027,0.999,0.00,0.00,0.00,0.00,-1.22,-3.16,-0.00,0.16,0.37,-1.13,-7.29,0.36,1100,1100,1100,1100,1031,1501,1518,0,731
69743,0,1.81,1.79,0.20,-0.027,-0.045,1.032,0.00,0.00,0.00,0.00,-1.81,-1.79,0.00,0.16,0.39,-10.20,-3.94,-0.10,1100,1100,1100,1100,1030,1501,1518,0,731
69755,0,-6.31,-5.65,-0.99,-0.024,-0.017,0.966,0.00,0.00,0.00,0.00,6.31,5.65,0.00,0.16,0.39,26.23,27.35,2.86,1100,1100,1100,1100,1030,1501,1518,0,731
69767,0,3.18,4.18,-0.20,-0.043,-0.009,1.040,0.00,0.00,0.00,0.00,-3.18,-4.18,-0.00,0.16,0.41,-10.09,-9.46,0.90,1100,1100,1100,1100,1030,1501,1518,0,731
69779,0,-0.01,4.34,-1.88,-0.044,-0.018,1.037,0.00,0.00,0.00,0.00,0.01,-4.34,0.00,0.15,0.44,-4.57,-15.92,5.14,1100,1100,1100,1100,1030,1501,1518,0,731
69791,0,-0.50,0.91,0.49,0.004,0.010,0.983,0.00,0.00,0.00,0.00,0.50,-0.91,-0.00,0.15,0.44,7.79,9.19,-0.79,1100,1100,1100,1100,1030,1501,1518,0,731
69803,0,2.77,0.53,-0.00,-0.019,-0.026,1.024,0.00,0.00,0.00,0.00,-2.77,-0.53,-0.00,0.14,0.47,-11.76,4.55,0.47,1100,1100,1100,1100,1030,1501,1518,0,731
69815,0,-1.67,2.98,-0.69,-0.072,-0.002,1.042,0.00,0.00,0.00,0.00,1.67,-2.98,-0.00,0.13,0.47,7.20,-2.05,2.18,1100,1100,1100,1100,1031,1501,1518,0,731
69827,0,3.35,5.89,0.39,-0.037,-0.022,1.034,0.00,0.00,0.00,0.00,-3.35,-5.89,-0.01,0.13,0.48,-9.71,-15.31,-0.50,1100,1100,1100,1100,1031,1501,1518,0,742
69839,0,-0.29,4.38,-1.34,-0.027,-0.042,1.017,0.00,0.00,0.00,0.00,0.29,-4.38,-0.00,0.12,0.49,-0.58,-8.22,3.84,1100,1100,1100,1100,1030,1501,1518,0,742
69851,0,-3.18,0.74,0.26,-0.041,-0.004,0.994,0.00,0.00,0.00,0.00,3.18,-0.74,-0.00,0.12,0.48,15.54,7.76,-0.16,1100,1100,1100,1100,1030,1501,1518,0,742
69863,0,1.65,3.84,-0.32,-0.073,-0.012,1.054,0.00,0.00,0.00,0.00,-1.65,-3.84,-0.00,0.10,0.51,-7.94,1.48,1.31,1100,1100,1100,1100,1029,1501,1518,0,742
69875,0,-0.01,5.88,-1.23,-0.155,0.003,1.082,0.00,0.00,0.00,0.00,0.01,-5.88,-0.00,0.09,0.52,-1.91,-8.67,3.60,1100,1100,1100,1100,1029,1502,1517,0,742
69887,0,1.04,3.33,-0.13,-0.087,-0.011,1.094,0.00,0.00,0.00,0.00,-1.04,-3.33,-0.01,0.08,0.54,-2.04,1.47,0.88,1100,1100,1100,1100,1029,1502,1517,0,742
69899,0,-1.53,2.17,-0.93,-0.081,-0.044,1.049,0.00,0.00,0.00,0.00,1.53,-2.17,-0.00,0.08,0.56,5.40,3.03,2.90,1100,1100,1100,1100,1029,1500,1519,0,742
69911,0,-1.26,1.44,0.17,-0.096,-0.028,1.050,0.00,0.00,0.00,0.00,1.26,-1.44,-0.00,0.07,0.56,5.74,0.65,0.13,1100,1100,1100,1100,1029,1500,1519,0,742
69923,0,1.83,-1.26,0.01,-0.041,-0.038,1.016,0.00,0.00,0.00,0.00,-1.83,1.26,-0.00,0.07,0.58,-8.34,8.36,0.57,1100,1100,1100,1100,1029,1501,1518,0,758
69935,0,1.80,2.19,-1.17,-0.062,-0.051,1.034,0.00,0.00,0.00,0.00,-1.80,-2.19,-0.00,0.07,0.60,-7.77,-2.57,3.52,1100,1100,1100,1100,1029,1500,1519,0,758
69947,0,-2.13,4.09,-0.63,-0.062,-0.013,1.065,0.00,0.00,0.00,0.00,2.13,-4.09,-0.00,0.07,0.61,8.18,-13.47,2.20,1100,1100,1100,1100,1029,1500,1519,0,758
69959,0,-1.58,3.70,-0.57,-0.078,-0.018,1.030,0.00,0.00,0.00,0.00,1.58,-3.70,-0.00,0.05,0.64,7.70,1.70,2.06,1100,1100,1100,1100,1031,1501,1517,0,758
69971,0,-0.21,11.02,-1.12,-0.142,-0.020,1.109,0.00,0.00,0.00,0.00,0.21,-11.02,-0.00,0.03,0.66,-2.81,-21.77,3.45,1100,1100,1100,1100,1031,1501,1517,0,758
69983,0,-0.66,8.65,-0.68,-0.139,-0.012,1.116,0.00,0.00,0.00,0.00,0.66,-8.65,-0.00,0.02,0.68,2.73,-6.50,2.37,1100,1100,1100,1100,1030,1501,1518,0,758
69995,0,2.47,2.79,-0.38,-0.151,-0.046,1.080,0.00,0.00,0.00,0.00,-2.47,-2.79,-0.00,-0.00,0.70,-10.88,16.55,1.66,1100,1100,1100,1100,1030,1501,1518,0,758
70007,0,-2.21,5.54,-0.54,-0.192,-0.030,1.155,0.00,0.00,0.00,0.00,2.21,-5.54,0.00,-0.02,0.71,7.16,2.78,2.06,1100,1100,1100,1100,1030,1501,1518,0,758
70019,0,1.34,2.28,0.50,-0.224,-0.004,1.125,0.00,0.00,0.00,0.00,-1.34,-2.28,-0.00,-0.02,0.72,-2.81,-1.59,-0.53,1100,1100,1100,1100,1030,1501,1519,0,731
70031,0,0.49,3.29,-0.97,-0.180,-0.053,1.132,0.00,0.00,0.00,0.00,-0.49,-3.29,0.00,-0.03,0.73,-5.14,-2.79,3.15,1100,1100,1100,1100,1030,1501,1519,0,731
70043,0,-4.92,-0.39,-0.09,-0.144,-0.009,1.090,0.00,0.00,0.00,0.00,4.92,0.39,0.00,-0.02,0.72,21.29,-1.20,0.95,1100,1100,1100,1100,1030,1501,1518,0,731
70055,0,1.14,-10.27,0.56,-0.043,-0.064,0.979,0.00,0.00,0.00,0.00,-1.14,10.27,0.00,-0.01,0.72,-4.44,31.71,-0.67,1100,1100,1100,1100,1030,1501,1518,0,731
70067,0,-1.67,-6.96,-0.17,-0.032,-0.037,1.042,0.00,0.00,0.00,0.00,1.67,6.96,0.00,0.00,0.71,0.43,9.00,1.14,1100,1100,1100,1100,1030,1501,1518,0,731
70079,0,4.33,-1.83,1.06,0.009,-0.036,0.999,0.00,0.00,0.00,0.00,-4.33,1.83,-0.00,0.01,0.71,-14.39,-10.60,-1.95,1100,1100,1100,1100,1030,1501,1518,0,731
70091,0,3.90,1.43,-0.39,0.055,-0.091,0.995,0.00,0.00,0.00,0.00,-3.90,-1.43,0.00,0.02,0.72,-19.96,-22.40,1.70,1100,1100,1100,1100,1030,1501,1518,0,731
70103,0,-5.22,-1.69,-0.49,0.084,-0.060,0.952,0.00,0.00,0.00,0.00,5.22,1.69,0.00,0.02,0.72,25.47,0.77,1.94,1100,1100,1100,1100,1030,1501,1519,0,731
70115,0,1.31,-3.08,0.52,0.083,-0.062,0.914,0.00,0.00,0.00,0.00,-1.31,3.08,0.00,0.03,0.72,-3.29,-1.07,-0.58,1100,1100,1100,1100,1030,1501,1518,0,731
70127,0,-3.25,-6.32,-0.84,0.132,-0.057,0.895,0.00,0.00,0.00,0.00,3.25,6.32,0.00,0.04,0.73,9.00,22.06,2.81,1100,1100,1100,1100,1030,1501,1518,0,727
70139,0,0.02,-0.60,-0.30,0.065,-0.016,0.937,0.00,0.00,0.00,0.00,-0.02,0.60,0.00,0.04,0.72,1.59,-6.24,1.48,1100,1100,1100,1100,1030,1501,1518,0,727
70151,0,2.77,-0.16,-0.12,0.109,-0.057,0.920,0.00,0.00,0.00,0.00,-2.77,0.16,0.00,0.04,0.74,-12.18,-1.40,1.05,1100,1100,1100,1100,1030,1501,1518,0,727
70163,0,-1.86,3.67,-0.81,0.035,-0.028,1.015,0.00,0.00,0.00,0.00,1.86,-3.67,0.00,0.04,0.75,8.30,-13.18,2.77,1100,1100,1100,1100,1030,1501,1519,0,727
70175,0,1.46,3.42,1.14,0.054,-0.009,0.953,0.00,0.00,0.00,0.00,-1.46,-3.42,-0.00,0.03,0.74,-3.31,-3.38,-2.11,1100,1100,1100,1100,1030,1501,1518,0,727
70187,0,0.60,-1.23,-0.45,0.052,-0.006,0.974,0.00,0.00,0.00,0.00,-0.60,1.23,-0.00,0.03,0.76,-3.47,9.35,1.89,1100,1100,1100,1100,1030,1501,1518,0,727
70199,0,1.05,1.76,-0.74,0.029,-0.031,1.003,0.00,0.00,0.00,0.00,-1.05,-1.76,-0.00,0.02,0.76,-1.57,2.08,2.60,1100,1100,1100,1100,1030,1501,1518,0,727
70211,0,0.82,4.15,0.24,0.074,-0.043,0.986,0.00,0.00,0.00,0.00,-0.82,-4.15,-0.00,0.02,0.77,-2.52,-14.62,0.16,1100,1100,1100,1100,1030,1501,1518,0,727
70223,0,-0.32,-2.54,-0.55,0.136,-0.060,0.957,0.00,0.00,0.00,0.00,0.32,2.54,-0.00,0.02,0.77,4.67,15.43,2.15,1100,1100,1100,1100,1030,1500,1518,0,726
70235,0,-1.15,-3.18,0.49,0.165,-0.024,0.869,0.00,0.00,0.00,0.00,1.15,3.18,-0.00,0.03,0.77,4.43,4.82,-0.47,1100,1100,1100,1100,1030,1500,1519,0,726
70247,0,-0.19,-4.05,-0.42,0.181,-0.023,0.908,0.00,0.00,0.00,0.00,0.19,4.05,-0.01,0.03,0.79,4.43,7.95,1.84,1100,1100,1100,1100,1030,1500,1519,0,726
70259,0,3.08,0.40,-1.23,0.107,-0.021,0.935,0.00,0.00,0.00,0.00,-3.08,-0.40,-0.01,0.04,0.79,-13.77,-10.21,3.86,1100,1100,1100,1100,1031,1500,1519,0,726
70271,0,-0.95,-1.64,0.55,0.129,-0.004,0.935,0.00,0.00,0.00,0.00,0.95,1.64,-0.01,0.04,0.81,5.42,5.41,-0.57,1100,1100,1100,1100,1031,1500,1519,0,726
70283,0,2.71,1.97,-1.23,0.053,-0.015,0.984,0.00,0.00,0.00,0.00,-2.71,-1.97,-0.01,0.04,0.84,-8.77,-8.74,3.90,1100,1100,1100,1100,1030,1501,1517,0,726
70295,0,-2.66,3.43,-0.37,0.027,-0.033,0.972,0.00,0.00,0.00,0.00,2.66,-3.43,-0.01,0.03,0.84,8.98,-7.54,1.76,1100,1100,1100,1100,1030,1499,1518,0,726
70307,0,-0.54,-1.81,-0.25,0.011,-0.015,0.987,0.00,0.00,0.00,0.00,0.54,1.81,-0.01,0.03,0.87,5.52,9.72,1.50,1100,1100,1100,1100,1030,1499,1518,0,726
70319,0,2.42,-3.83,-1.23,0.014,-0.052,0.972,0.00,0.00,0.00,0.00,-2.42,3.83,-0.01,0.03,0.88,-12.08,18.16,3.94,1100,1100,1100,1100,1029,1502,1517,0,784
70331,0,-3.44,-0.53,0.52,0.006,0.012,1.012,0.00,0.00,0.00,0.00,3.44,0.53,-0.01,0.04,0.88,13.82,-8.39,-0.43,1100,1100,1100,1100,1029,1502,1517,0,784
70343,0,2.34,3.45,-0.81,0.018,-0.028,0.989,0.00,0.00,0.00,0.00,-2.34,-3.45,-0.01,0.03,0.90,-5.75,-12.94,2.93,1100,1100,1100,1100,1030,1499,1519,0,784
70355,0,-0.77,2.18,-0.22,-0.003,-0.033,0.999,0.00,0.00,0.00,0.00,0.77,-2.18,-0.01,0.03,0.90,-1.80,-9.86,1.45,1100,1100,1100,1100,1030,1501,1519,0,784
70367,0,-1.01,-2.48,-0.05,0.022,-0.027,1.000,0.00,0.00,0.00,0.00,1.01,2.48,-0.01,0.03,0.92,8.82,17.20,1.04,1100,1100,1100,1100,1030,1501,1519,0,784
70379,0,2.87,1.61,-0.76,-0.036,-0.049,1.035,0.00,0.00,0.00,0.00,-2.87,-1.61,-0.01,0.03,0.93,-14.05,-4.91,2.83,1100,1100,1100,1100,1030,1501,1519,0,784
70391,0,-3.58,0.45,0.09,-0.054,-0.035,1.050,0.00,0.00,0.00,0.00,3.58,-0.45,-0.01,0.02,0.93,13.28,4.99,0.72,1100,1100,1100,1100,1030,1501,1519,0,784
70403,0,4.20,7.69,-0.08,-0.083,-0.040,1.062,0.00,0.00,0.00,0.00,-4.20,-7.69,-0.01,0.02,0.94,-13.92,-28.74,1.13,1100,1100,1100,1100,1030,1501,1519,0,784
70415,0,-0.08,-3.77,-0.06,-0.044,-0.070,1.038,0.00,0.00,0.00,0.00,0.08,3.77,-0.01,0.02,0.94,-3.23,17.53,1.09,1100,1100,1100,1100,1029,1501,1518,0,784
70427,0,-4.03,-0.72,-0.36,-0.051,-0.010,1.058,0.00,0.00,0.00,0.00,4.03,0.72,-0.01,0.02,0.94,20.08,2.50,1.84,1100,1100,1100,1100,1029,1501,1518,0,731
70439,0,0.97,-3.69,0.32,-0.015,-0.035,0.993,0.00,0.00,0.00,0.00,-0.97,3.69,-0.01,0.03,0.93,-3.58,12.29,0.13,1100,1100,1100,1100,1030,1500,1518,0,731
70451,0,-0.95,1.12,-0.42,-0.024,-0.024,1.043,0.00,0.00,0.00,0.00,0.95,-1.12,-0.01,0.03,0.94,-1.16,-8.30,1.98,1100,1100,1100,1100,1030,1500,1518,0,731
70463,0,3.25,0.18,0.19,0.015,-0.024,0.966,0.00,0.00,0.00,0.00,-3.25,-0.18,-0.01,0.03,0.94,-10.17,-4.97,0.47,1100,1100,1100,1100,1030,1500,1518,0,731
70475,0,3.40,1.93,0.18,-0.000,-0.038,1.008,0.00,0.00,35.80,-33.00,32.40,-34.93,0.02,0.01,0.96,-2.08,-25.46,0.50,1100,1100,1100,1100,1030,1679,1335,0,731
70487,0,-5.80,-5.51,-0.71,0.029,-0.031,0.928,0.00,0.00,35.80,-33.00,41.60,-27.49,0.11,-0.07,0.96,39.29,8.03,2.74,1100,1100,1100,1100,1030,1679,1335,0,731
70499,0,1.95,2.92,0.26,-0.037,-0.009,0.985,0.00,0.00,0.00,0.00,-1.95,-2.92,0.13,-0.09,0.97,-4.15,-16.15,0.33,1100,1100,1100,1100,1030,1501,1519,0,731
70511,0,-0.51,-1.42,-1.77,-0.014,-0.042,1.006,0.00,0.00,0.00,0.00,0.51,1.42,0.14,-0.10,0.99,-1.99,5.49,5.43,1100,1100,1100,1100,1030,1501,1519,0,731
70523,0,-1.90,6.23,-0.34,-0.021,-0.011,0.993,0.00,0.00,0.00,0.00,1.90,-6.23,0.13,-0.11,0.99,12.04,-15.02,1.85,1100,1100,1100,1100,1030,1501,1518,0,731
70535,0,2.26,0.89,0.05,-0.027,-0.058,1.012,0.00,0.00,0.00,0.00,-2.26,-0.89,0.13,-0.11,1.02,-9.70,3.15,0.89,1100,1100,1100,1100,1030,1501,1518,0,731
70547,0,-2.49,0.20,-0.74,-0.059,-0.039,1.033,0.00,0.00,0.00,0.00,2.49,-0.20,0.14,-0.12,1.03,7.55,12.32,2.87,1100,1100,1100,1100,1030,1501,1518,0,731
70559,0,2.69,3.42,0.59,-0.055,-0.040,1.047,0.00,0.00,0.00,0.00,-2.69,-3.42,0.13,-0.12,1.04,-7.65,-9.66,-0.44,1100,1100,1100,1100,1030,1500,1518,0,731
70571,0,1.80,5.11,-1.72,-0.045,-0.060,1.061,0.00,0.00,0.00,0.00,-1.80,-5.11,0.14,-0.13,1.08,-10.55,-14.94,5.37,1100,1100,1100,1100,1030,1500,1518,0,731
70583,0,-4.45,3.59,-0.81,-0.047,-0.057,1.007,0.00,0.00,0.00,0.00,4.45,-3.59,0.14,-0.13,1.08,20.52,-5.35,3.11,1100,1100,1100,1100,1030,1500,1518,0,731
70595,0,0.65,-0.38,-0.39,-0.042,-0.067,1.048,0.00,0.00,0.00,0.00,-0.65,0.38,0.13,-0.13,1.11,-1.80,11.32,2.09,1100,1100,1100,1100,1029,1501,1519,0,731
70607,0,-2.24,-2.51,-1.68,-0.076,-0.050,1.049,0.00,0.00,0.00,0.00,2.24,2.51,0.14,-0.14,1.13,6.54,19.06,5.34,1100,1100,1100,1100,1029,1501,1519,0,731
70619,0,2.06,1.99,-0.03,-0.057,-0.029,1.084,0.00,0.00,0.00,0.00,-2.06,-1.99,0.13,-0.14,1.15,-6.42,-6.69,1.22,1100,1100,1100,1100,1029,1500,1518,0,731
70631,0,1.90,1.29,-1.27,-0.020,-0.065,1.033,0.00,0.00,0.00,0.00,-1.90,-1.29,0.14,-0.14,1.19,-9.88,-10.40,4.35,1100,1100,1100,1100,1029,1500,1518,0,731
70643,0,-1.40,2.03,-0.46,-0.017,-0.054,1.027,0.00,0.00,0.00,0.00,1.40,-2.03,0.13,-0.14,1.20,7.26,-11.90,2.34,1100,1100,1100,1100,1030,1500,1518,0,731
70655,0,1.59,-2.56,0.27,0.027,-0.031,1.003,0.00,0.00,0.00,0.00,-1.59,2.56,0.13,-0.13,1.22,-4.26,6.24,0.54,1100,1100,1100,1100,1029,1501,1518,0,731
70667,0,0.98,-1.85,-1.37,-0.009,-0.018,0.987,0.00,0.00,0.00,0.00,-0.98,1.85,0.13,-0.13,1.24,-4.13,6.80,4.67,1100,1100,1100,1100,1029,1501,1518,0,731
70679,0,-1.20,-0.52,-1.14,0.007,-0.038,1.021,0.00,0.00,0.00,0.00,1.20,0.52,0.13,-0.13,1.26,7.54,2.04,4.11,1100,1100,1100,1100,1031,1500,1518,0,731
70691,0,-0.11,-0.39,-0.79,-0.002,-0.047,1.013,0.00,0.00,0.00,0.00,0.11,0.39,0.13,-0.13,1.29,2.29,1.28,3.26,1100,1100,1100,1100,1031,1500,1518,0,731
70703,0,-1.13,-3.11,-0.56,-0.018,-0.056,1.003,0.00,0.00,0.00,0.00,1.13,3.11,0.13,-0.13,1.30,4.47,7.39,2.71,1100,1100,1100,1100,1031,1502,1517,0,731
70715,0,0.76,-4.91,0.57,0.040,-0.008,1.001,0.00,0.00,0.00,5.40,-0.76,10.31,0.13,-0.11,1.31,-1.61,5.76,-0.12,1100,1100,1100,1100,1026,1502,1527,0,731
70727,0,2.97,-5.21,-0.30,0.053,-0.030,0.948,0.00,0.00,0.00,5.40,-2.97,10.61,0.13,-0.09,1.32,-10.70,3.50,2.07,1100,1100,1100,1100,1026,1502,1527,0,748
70739,0,0.60,-5.26,-0.43,0.090,-0.034,0.954,0.00,0.00,0.00,0.00,-0.60,5.26,0.13,-0.06,1.32,-3.12,-5.23,2.39,1100,1100,1100,1100,1030,1501,1518,0,748
70751,0,-2.01,-13.85,0.52,0.156,-0.035,0.863,0.00,0.00,0.00,0.00,2.01,13.85,0.13,-0.04,1.32,10.94,30.17,0.03,1100,1100,1100,1100,1030,1501,1518,0,748
70763,0,1.16,-6.88,-0.27,0.127,-0.057,0.874,0.00,0.00,0.00,0.00,-1.16,6.88,0.13,-0.02,1.32,-4.42,0.27,2.00,1100,1100,1100,1100,1030,1501,1518,0,748
70775,0,-3.67,-0.44,-0.85,0.082,-0.034,0.950,0.00,0.00,0.00,0.00,3.67,0.44,0.13,-0.03,1.34,10.91,-2.48,3.46,1100,1100,1100,1100,1030,1501,1518,0,748
70787,0,2.35,12.17,-0.42,-0.042,-0.006,1.024,0.00,0.00,0.00,0.00,-2.35,-12.17,0.13,-0.04,1.36,-6.30,-40.48,2.42,1100,1100,1100,1100,1030,1501,1518,0,748
70799,0,0.10,6.26,-1.51,-0.042,-0.039,1.033,0.00,0.00,0.00,0.00,-0.10,-6.26,0.13,-0.05,1.39,-4.65,-8.37,5.16,1100,1100,1100,1100,1030,1501,1518,0,748
70811,0,-3.77,4.61,-0.17,-0.070,0.008,1.071,0.00,0.00,0.00,0.00,3.77,-4.61,0.13,-0.06,1.39,18.70,1.84,1.81,1100,1100,1100,1100,1030,1501,1518,0,748
70823,0,2.99,-6.02,-0.11,-0.068,-0.037,0.997,0.00,0.00,0.00,0.00,-2.99,6.02,0.13,-0.06,1.42,-13.17,35.48,1.68,1100,1100,1100,1100,1030,1501,1518,0,731
70835,0,-1.99,-4.46,-0.61,-0.114,-0.026,1.104,0.00,0.00,0.00,0.00,1.99,4.46,0.13,-0.06,1.42,3.44,18.65,2.95,1100,1100,1100,1100,1030,1501,1518,0,731
70847,0,3.43,0.48,0.37,-0.116,-0.018,1.073,0.00,0.00,0.00,0.00,-3.43,-0.48,0.13,-0.06,1.43,-10.85,-17.46,0.50,1100,1100,1100,1100,1030,1501,1518,0,731
70859,0,1.09,2.66,-0.93,-0.079,-0.059,1.049,0.00,0.00,0.00,0.00,-1.09,-2.66,0.14,-0.05,1.45,-9.35,-27.33,3.77,1100,1100,1100,1100,1029,1501,1518,0,731
70871,0,-6.10,-6.30,-0.29,-0.041,-0.022,0.996,0.00,0.00,0.00,0.00,6.10,6.30,0.14,-0.04,1.45,26.24,11.46,2.19,1100,1100,1100,1100,1029,1501,1518,0,731
70883,0,1.79,-9.07,0.37,-0.023,-0.044,0.929,0.00,0.00,0.00,0.00,-1.79,9.07,0.14,-0.02,1.46,-8.21,23.88,0.53,1100,1100,1100,1100,1030,1502,1517,0,731
70895,0,-2.93,-12.15,-0.71,-0.053,-0.035,1.027,0.00,0.00,0.00,0.00,2.93,12.15,0.14,-0.01,1.46,5.81,29.73,3.24,1100,1100,1100,1100,1030,1501,1518,0,731
70907,0,1.27,2.37,0.32,-0.095,-0.018,1.073,0.00,0.00,0.00,0.00,-1.27,-2.37,0.14,-0.01,1.45,-2.93,-23.48,0.65,1100,1100,1100,1100,1030,1501,1518,0,731
70919,0,1.09,4.65,0.18,-0.037,-0.065,1.031,0.00,0.00,0.00,0.00,-1.09,-4.65,0.14,-0.00,1.45,-9.53,-32.68,1.00,1100,1100,1100,1100,1030,1501,1518,0,726
70931,0,-2.48,-1.41,0.17,-0.023,-0.050,1.021,0.00,0.00,0.00,0.00,2.48,1.41,0.14,0.00,1.44,9.98,0.34,1.01,1100,1100,1100,1100,1030,1501,1518,0,726
70943,0,2.04,-11.21,0.72,0.030,-0.062,0.904,0.00,0.00,0.00,0.00,-2.04,11.21,0.14,0.02,1.44,-9.41,30.19,-0.35,1100,1100,1100,1100,1030,1501,1518,0,726
70955,0,-1.24,-8.31,-0.63,-0.010,-0.050,1.015,0.00,0.00,0.00,0.00,1.24,8.31,0.14,0.03,1.45,1.76,23.37,3.04,1100,1100,1100,1100,1030,1501,1518,0,726
70967,0,-1.86,-2.43,-0.47,-0.049,-0.018,1.010,0.00,0.00,0.00,0.00,1.86,2.43,0.15,0.04,1.45,6.96,-11.83,2.63,1100,1100,1100,1100,1030,1501,1518,0,726
70979,0,-0.40,-3.33,0.37,0.022,-0.038,0.939,0.00,0.00,0.00,0.00,0.40,3.33,0.15,0.05,1.45,-0.42,-7.29,0.53,1100,1100,1100,1100,1030,1501,1518,0,726
70991,0,-1.08,-5.35,-0.98,-0.008,-0.030,0.968,0.00,0.00,0.00,0.00,1.08,5.35,0.15,0.07,1.46,1.07,-7.22,3.91,1100,1100,1100,1100,1030,1501,1518,0,726
71003,0,-0.88,-11.25,0.75,0.056,-0.036,0.873,0.00,0.00,0.00,0.00,0.88,11.25,0.15,0.09,1.45,2.88,22.57,-0.42,1100,1100,1100,1100,1030,1501,1519,0,726
71015,0,1.44,-11.40,0.38,0.060,-0.031,0.939,0.00,0.00,0.00,0.00,-1.44,11.40,0.15,0.11,1.46,-7.75,15.09,0.51,1100,1100,1100,1100,1030,1501,1519,0,726
71027,0,0.32,-7.22,0.01,0.057,-0.034,0.894,0.00,0.00,0.00,0.00,-0.32,7.22,0.15,0.13,1.44,-3.02,-2.26,1.42,1100,1100,1100,1100,1030,1501,1519,0,727
71039,0,1.00,-5.67,0.91,0.103,-0.050,0.897,0.00,0.00,0.00,0.00,-1.00,5.67,0.15,0.15,1.44,-2.58,-10.34,-0.82,1100,1100,1100,1100,1029,1502,1517,0,727
71051,0,-0.15,-6.06,-1.73,0.153,-0.084,0.877,0.00,0.00,0.00,0.00,0.15,6.06,0.15,0.17,1.46,-0.21,-1.42,5.79,1100,1100,1100,1100,1029,1502,1517,0,727
71063,0,-4.54,-7.23,-0.09,0.189,-0.070,0.800,0.00,0.00,0.00,0.00,4.54,7.23,0.15,0.19,1.45,18.55,6.08,1.67,1100,1100,1100,1100,1031,1500,1518,0,727
71075,0,0.05,-2.20,-0.57,0.155,-0.070,0.895,0.00,0.00,0.00,0.00,-0.05,2.20,0.15,0.19,1.48,0.97,1.38,2.91,1100,1100,1100,1100,1029,1500,1519,0,727
71087,0,0.55,1.57,-1.11,0.073,-0.054,0.924,0.00,0.00,0.00,0.00,-0.55,-1.57,0.15,0.19,1.49,-6.18,-9.87,4.25,1100,1100,1100,1100,1029,1500,1519,0,727
71099,0,1.81,1.33,0.91,0.082,-0.042,0.943,0.00,0.00,0.00,0.00,-1.81,-1.33,0.15,0.19,1.51,-5.46,-6.56,-0.78,1100,1100,1100,1100,1029,1501,1517,0,727
71111,0,3.13,2.11,-1.48,0.080,-0.058,0.959,0.00,0.00,0.00,0.00,-3.13,-2.11,0.15,0.19,1.54,-13.01,-11.91,5.24,1100,1100,1100,1100,1029,1501,1517,0,727
71123,0,-2.69,-1.88,-0.40,0.093,-0.073,0.911,0.00,0.00,0.00,0.00,2.69,1.88,0.15,0.19,1.54,11.70,4.72,2.54,1100,1100,1100,1100,1030,1501,1517,0,726
71135,0,-0.20,-6.33,-0.09,0.133,-0.048,0.918,0.00,0.00,0.00,5.40,0.20,11.73,0.15,0.21,1.56,3.38,16.74,1.79,1100,1100,1100,1100,1020,1497,1527,0,726
71147,0,0.16,-5.39,-1.32,0.120,-0.051,0.904,0.00,0.00,0.00,5.40,-0.16,10.79,0.15,0.23,1.57,-1.71,17.25,4.88,1100,1100,1100,1100,1020,1497,1527,0,726
71159,0,-0.75,0.53,0.07,0.117,-0.032,0.938,0.00,0.00,0.00,0.00,0.75,-0.53,0.15,0.23,1.58,3.82,-11.71,1.41,1100,1100,1100,1100,1030,1500,1518,0,726
71171,0,0.80,-0.00,-0.91,0.131,-0.047,0.927,0.00,0.00,0.00,0.00,-0.80,0.00,0.15,0.23,1.60,-1.88,-2.76,3.88,1100,1100,1100,1100,1030,1500,1518,0,726
71183,0,-0.53,2.70,-0.37,0.076,-0.041,0.943,0.00,0.00,0.00,0.00,0.53,-2.70,0.15,0.24,1.61,-0.19,-16.01,2.52,1100,1100,1100,1100,1030,1500,1518,0,726
71195,0,-0.35,-1.58,0.47,0.115,-0.005,0.912,0.00,0.00,0.00,0.00,0.35,1.58,0.15,0.24,1.62,2.73,2.95,0.44,1100,1100,1100,1100,1030,1500,1518,0,726
71207,0,3.95,-2.01,-0.93,0.042,-0.019,0.947,0.00,0.00,0.00,0.00,-3.95,2.01,0.15,0.24,1.64,-15.65,5.62,3.95,1100,1100,1100,1100,1030,1500,1518,0,726
71219,0,-1.12,-3.54,-1.09,0.038,-0.045,0.966,0.00,0.00,0.00,0.00,1.12,3.54,0.15,0.24,1.66,4.38,16.46,4.39,1100,1100,1100,1100,1030,1500,1518,0,728
71231,0,-0.99,-0.02,-1.17,0.011,-0.040,0.995,0.00,0.00,0.00,0.00,0.99,0.02,0.15,0.25,1.69,9.48,-4.92,4.62,1100,1100,1100,1100,1030,1500,1518,0,728
71243,0,1.17,0.46,-0.65,0.010,-0.066,0.977,0.00,0.00,0.00,0.00,-1.17,-0.46,0.15,0.24,1.71,-4.90,-1.84,3.34,1100,1100,1100,1100,1030,1500,1518,0,728
71255,0,-3.90,3.83,-0.26,-0.008,-0.004,1.005,0.00,0.00,0.00,0.00,3.90,-3.83,0.15,0.25,1.73,14.76,-20.24,2.39,1100,1100,1100,1100,1030,1500,1519,0,728
71267,0,3.20,1.58,-0.68,-0.017,-0.031,1.013,0.00,0.00,0.00,0.00,-3.20,-1.58,0.14,0.24,1.75,-9.69,0.18,3.45,1100,1100,1100,1100,1030,1500,1519,0,728
71279,0,1.15,0.48,-0.82,-0.046,-0.037,1.049,0.00,0.00,0.00,0.00,-1.15,-0.48,0.15,0.24,1.76,-12.07,2.18,3.80,1100,1100,1100,1100,1036,1500,1518,0,728
71291,0,-2.74,-7.40,0.18,-0.012,-0.013,1.023,0.00,0.00,0.00,0.00,2.74,7.40,0.15,0.24,1.77,13.63,31.28,1.33,1100,1100,1100,1100,1036,1500,1518,0,728
71303,0,4.45,4.82,-0.30,-0.079,-0.037,1.077,0.00,0.00,0.00,0.00,-4.45,-4.82,0.15,0.24,1.79,-19.87,-17.55,2.53,1100,1100,1100,1100,1030,1501,1518,0,728
71315,0,-6.61,2.95,-0.99,-0.093,-0.021,1.078,0.00,0.00,0.00,0.00,6.61,-2.95,0.16,0.24,1.81,22.14,-12.55,4.29,1100,1100,1100,1100,1030,1500,1519,0,728
71327,0,2.24,3.73,-0.69,-0.098,-0.010,1.046,0.00,0.00,0.00,0.00,-2.24,-3.73,0.15,0.23,1.83,-4.02,-8.45,3.56,1100,1100,1100,1100,1030,1500,1519,0,731
71339,0,0.36,-6.62,-0.84,-0.067,-0.036,1.008,0.00,0.00,0.00,0.00,-0.36,6.62,0.16,0.24,1.84,-9.32,20.12,3.94,1100,1100,1100,1100,1030,1501,1519,0,731
71351,0,-4.14,-6.79,0.59,-0.065,0.029,1.030,0.00,0.00,0.00,0.00,4.14,6.79,0.15,0.25,1.83,21.41,23.70,0.35,1100,1100,1100,1100,1030,1501,1519,0,731
71363,0,5.21,-0.16,0.61,-0.092,-0.022,1.021,0.00,0.00,0.00,0.00,-5.21,0.16,0.15,0.25,1.83,-20.74,-8.36,0.31,1100,1100,1100,1100,1030,1501,1518,0,731
71375,0,-2.76,-0.03,-0.18,-0.080,-0.026,1.070,0.00,0.00,0.00,0.00,2.76,0.03,0.15,0.25,1.83,8.81,-4.89,2.28,1100,1100,1100,1100,1030,1501,1518,0,731
71387,0,3.32,6.02,-0.09,-0.062,-0.021,1.028,0.00,0.00,0.00,0.00,-3.32,-6.02,0.15,0.25,1.83,-6.87,-22.76,2.06,1100,1100,1100,1100,1030,1501,1518,0,731
71399,0,1.02,2.29,-0.10,-0.019,-0.046,0.986,0.00,0.00,0.00,0.00,-1.02,-2.29,0.15,0.25,1.83,-8.37,-8.14,2.09,1100,1100,1100,1100,1030,1501,1518,0,731
71411,0,-4.64,1.08,-0.03,-0.059,-0.023,1.052,0.00,0.00,0.00,0.00,4.64,-1.08,0.15,0.25,1.82,20.81,3.60,1.90,1100,1100,1100,1100,1030,1501,1518,0,731
71423,0,3.55,-4.17,0.69,-0.031,-0.053,0.974,0.00,0.00,0.00,0.00,-3.55,4.17,0.15,0.25,1.82,-13.06,21.43,0.09,1100,1100,1100,1100,1031,1502,1517,0,732
71435,0,-3.27,-4.42,-0.56,-0.040,-0.069,1.042,0.00,0.00,0.00,0.00,3.27,4.42,0.16,0.25,1.83,8.26,20.94,3.23,1100,1100,1100,1100,1031,1502,1517,0,732
71447,0,-1.72,6.12,-0.75,-0.056,-0.033,1.086,0.00,0.00,0.00,0.00,1.72,-6.12,0.15,0.24,1.82,11.45,-17.72,3.70,1100,1100,1100,1100,1031,1502,1517,0,732
71459,0,1.79,9.36,-0.00,-0.009,-0.063,1.031,0.00,0.00,0.00,0.00,-1.79,-9.36,0.16,0.23,1.83,-10.75,-33.02,1.84,1100,1100,1100,1100,1030,1502,1517,0,732
71471,0,-2.83,7.35,-0.56,-0.048,-0.036,1.047,0.00,0.00,0.00,0.00,2.83,-7.35,0.16,0.22,1.84,10.45,-10.53,3.23,1100,1100,1100,1100,1030,1502,1517,0,732
71483,0,4.78,3.36,0.34,-0.072,-0.035,1.038,0.00,0.00,0.00,0.00,-4.78,-3.36,0.15,0.20,1.84,-16.26,14.37,0.98,1100,1100,1100,1100,1030,1501,1519,0,732
71495,0,1.22,1.67,-0.43,-0.140,-0.039,1.121,0.00,0.00,0.00,0.00,-1.22,-1.67,0.15,0.19,1.87,-8.20,16.60,2.94,1100,1100,1100,1100,1030,1501,1518,0,732
71507,0,-2.90,5.97,-1.27,-0.180,-0.015,1.136,0.00,0.00,0.00,0.00,2.90,-5.97,0.15,0.17,1.88,16.12,-4.13,5.04,1100,1100,1100,1100,1030,1501,1518,0,732
71519,0,1.75,6.47,0.40,-0.194,-0.017,1.109,0.00,0.00,0.00,0.00,-1.75,-6.47,0.15,0.16,1.89,-6.35,-12.65,0.90,1100,1100,1100,1100,1029,1501,1518,0,746
71531,0,-3.16,1.75,-1.84,-0.176,-0.040,1.109,0.00,0.00,0.00,0.00,3.16,-1.75,0.16,0.15,1.92,10.21,8.31,6.52,1100,1100,1100,1100,1029,1501,1518,0,746
71543,0,-0.97,0.37,-0.21,-0.131,-0.029,1.069,0.00,0.00,0.00,0.00,0.97,-0.37,0.15,0.15,1.92,5.48,4.96,2.43,1100,1100,1100,1100,1030,1501,1519,0,746
71555,0,1.13,-3.63,0.41,-0.056,-0.056,1.029,0.00,0.00,0.00,0.00,-1.13,3.63,0.16,0.16,1.94,-7.82,12.54,0.91,1100,1100,1100,1100,1030,1501,1519,0,746
71567,0,-1.76,-3.33,-0.64,-0.035,-0.031,1.013,0.00,0.00,0.00,0.00,1.76,3.33,0.16,0.16,1.93,4.05,5.25,3.54,1100,1100,1100,1100,1030,1501,1519,0,746
71579,0,2.82,1.22,1.57,0.017,-0.043,1.001,0.00,0.00,0.00,0.00,-2.82,-1.22,0.16,0.16,1.93,-10.10,-5.23,-2.00,1100,1100,1100,1100,1030,1501,1518,0,746
71591,0,1.44,3.38,-1.43,0.011,-0.067,1.022,0.00,0.00,0.00,0.00,-1.44,-3.38,0.16,0.16,1.95,-9.11,-15.29,5.53,1100,1100,1100,1100,1030,1501,1518,0,746
71603,0,-3.35,0.12,-0.55,0.049,-0.073,0.961,0.00,0.00,0.00,0.00,3.35,-0.12,0.16,0.16,1.95,17.12,7.65,3.32,1100,1100,1100,1100,1030,1501,1518,0,746
71615,0,0.97,1.38,0.13,0.035,-0.073,0.990,0.00,0.00,0.00,0.00,-0.97,-1.38,0.16,0.15,1.97,-3.05,-1.70,1.63,1100,1100,1100,1100,1030,1501,1518,0,746
71627,0,-2.42,-5.00,-1.37,0.025,-0.052,0.966,0.00,0.00,0.00,0.00,2.42,5.00,0.16,0.15,1.97,9.30,23.08,5.39,1100,1100,1100,1100,1030,1501,1518,0,731
71639,0,1.36,0.38,0.53,0.029,-0.039,1.000,0.00,0.00,0.00,0.00,-1.36,-0.38,0.15,0.15,1.98,-3.20,-3.25,0.66,1100,1100,1100,1100,1030,1501,1518,0,731
71651,0,1.70,-0.55,-1.03,0.058,-0.051,0.973,0.00,0.00,0.00,0.00,-1.70,0.55,0.16,0.16,2.01,-7.88,-4.61,4.60,1100,1100,1100,1100,1030,1501,1518,0,731
71663,0,0.27,2.75,-0.68,0.039,-0.049,1.000,0.00,0.00,0.00,0.00,-0.27,-2.75,0.15,0.16,2.02,0.42,-11.32,3.72,1100,1100,1100,1100,1030,1501,1518,0,731
71675,0,0.59,1.07,0.51,0.085,-0.024,0.975,0.00,0.00,0.00,0.00,-0.59,-1.07,0.15,0.15,2.04,-2.59,0.65,0.77,1100,1100,1100,1100,1029,1501,1519,0,731
71687,0,-0.17,1.35,-1.22,0.046,-0.009,0.972,0.00,0.00,0.00,0.00,0.17,-1.35,0.16,0.15,2.06,0.55,-0.22,5.10,1100,1100,1100,1100,1029,1501,1519,0,731
71699,0,-0.73,2.02,-0.24,0.052,-0.030,0.987,0.00,0.00,0.00,0.00,0.73,-2.02,0.16,0.14,2.06,2.73,1.72,2.66,1100,1100,1100,1100,1030,1501,1518,0,731
71711,0,-1.88,1.26,-0.82,0.052,-0.036,0.964,0.00,0.00,0.00,0.00,1.88,-1.26,0.16,0.14,2.09,8.55,-3.18,4.14,1100,1100,1100,1100,1030,1501,1518,0,731
71723,0,0.02,-4.40,-0.57,0.073,-0.057,0.937,0.00,0.00,0.00,0.00,-0.02,4.40,0.16,0.15,2.09,1.02,17.47,3.50,1100,1100,1100,1100,1030,1501,1518,0,744
71735,0,-0.57,0.25,0.84,0.104,-0.014,0.941,0.00,0.00,0.00,0.00,0.57,-0.25,0.16,0.15,2.09,1.22,-6.47,-0.02,1100,1100,1100,1100,1030,1501,1518,0,744
71747,0,2.05,-0.98,-0.31,0.094,-0.025,0.942,0.00,0.00,0.00,0.00,-2.05,0.98,0.15,0.15,2.09,-4.05,0.65,2.86,1100,1100,1100,1100,1030,1501,1518,0,744
71759,0,3.05,3.39,-0.29,0.077,-0.047,0.994,0.00,0.00,0.00,0.00,-3.05,-3.39,0.15,0.15,2.09,-14.30,-14.53,2.81,1100,1100,1100,1100,1030,1501,1518,0,744
71771,0,-2.35,-2.24,0.31,0.138,-0.044,0.917,0.00,0.00,0.00,0.00,2.35,2.24,0.15,0.15,2.10,12.46,8.22,1.31,1100,1100,1100,1100,1030,1501,1518,0,744
71783,0,2.32,1.69,-0.78,0.098,-0.058,0.936,0.00,0.00,0.00,0.00,-2.32,-1.69,0.15,0.15,2.11,-7.36,-5.71,4.07,1100,1100,1100,1100,1030,1501,1518,0,744
71795,0,-4.71,-1.22,-0.32,0.069,-0.022,0.942,0.00,0.00,0.00,0.00,4.71,1.22,0.16,0.15,2.12,15.77,7.94,2.93,1100,1100,1100,1100,1030,1500,1518,0,744
71807,0,0.85,3.63,-0.77,-0.010,0.006,1.010,0.00,0.00,0.00,0.00,-0.85,-3.63,0.15,0.14,2.15,0.40,-2.70,4.06,1100,1100,1100,1100,1030,1500,1518,0,744
71819,0,1.50,-1.34,-1.11,0.003,-0.033,1.012,0.00,0.00,0.00,0.00,-1.50,1.34,0.16,0.14,2.16,-11.51,10.22,4.94,1100,1100,1100,1100,1030,1501,1518,0,732
71831,0,-2.68,2.58,0.46,0.012,0.015,1.009,0.00,0.00,0.00,0.00,2.68,-2.58,0.15,0.14,2.16,13.00,-9.94,1.01,1100,1100,1100,1100,1030,1501,1518,0,732
71843,0,3.35,-1.66,-0.16,0.038,-0.027,0.951,0.00,0.00,0.00,0.00,-3.35,1.66,0.15,0.14,2.17,-12.38,3.70,2.57,1100,1100,1100,1100,1031,1502,1517,0,732
71855,0,-2.74,-0.59,0.18,0.018,-0.032,0.994,0.00,0.00,0.00,0.00,2.74,0.59,0.16,0.14,2.16,8.54,5.38,1.72,1100,1100,1100,1100,1030,1501,1518,0,732
71867,0,1.65,-2.70,0.13,0.024,-0.012,0.964,0.00,0.00,0.00,0.00,-1.65,2.70,0.15,0.14,2.17,-1.28,7.52,1.84,1100,1100,1100,1100,1030,1501,1518,0,732
71879,0,2.84,2.02,-0.87,0.022,-0.050,0.983,0.00,0.00,0.00,0.00,-2.84,-2.02,0.15,0.14,2.18,-13.71,-6.12,4.35,1100,1100,1100,1100,1030,1499,1518,0,732
71891,0,-3.70,5.21,0.21,-0.021,-0.008,1.011,0.00,0.00,0.00,0.00,3.70,-5.21,0.15,0.13,2.17,17.78,-14.98,1.64,1100,1100,1100,1100,1030,1499,1518,0,732
71903,0,2.18,4.60,0.15,-0.036,-0.038,0.988,0.00,0.00,0.00,0.00,-2.18,-4.60,0.15,0.12,2.18,-6.42,-2.53,1.80,1100,1100,1100,1100,1029,1501,1519,0,732
71915,0,-2.79,1.51,-0.49,-0.086,-0.032,1.071,0.00,0.00,0.00,0.00,2.79,-1.51,0.15,0.11,2.18,7.50,11.84,3.42,1100,1100,1100,1100,1030,1501,1518,0,732
71927,0,-0.20,3.03,-0.34,-0.100,0.003,1.087,0.00,0.00,0.00,0.00,0.20,-3.03,0.15,0.10,2.19,4.42,4.76,3.04,1100,1100,1100,1100,1030,1501,1518,0,732
71939,0,2.87,3.97,-0.20,-0.065,-0.039,1.066,0.00,0.00,0.00,0.00,-2.87,-3.97,0.15,0.10,2.20,-15.48,-9.85,2.69,1100,1100,1100,1100,1030,1501,1518,0,732
71951,0,-1.58,3.03,0.18,-0.055,-0.032,1.060,0.00,0.00,0.00,0.00,1.58,-3.03,0.15,0.09,2.20,5.30,-9.35,1.74,1100,1100,1100,1100,1030,1501,1518,0,732
71963,0,3.42,-3.69,0.44,0.040,-0.053,0.939,0.00,0.00,0.00,0.00,-3.42,3.69,0.15,0.10,2.20,-11.14,12.80,1.09,1100,1100,1100,1100,1030,1504,1515,0,732
71975,0,-0.54,-4.77,-0.30,0.055,-0.050,0.981,0.00,0.00,0.00,0.00,0.54,4.77,0.15,0.11,2.21,-0.39,13.28,2.96,1100,1100,1100,1100,1030,1501,1518,0,732
71987,0,-5.52,-4.87,-0.51,0.053,0.000,0.930,0.00,0.00,0.00,0.00,5.52,4.87,0.15,0.12,2.20,25.93,5.73,3.47,1100,1100,1100,1100,1030,1501,1518,0,732
71999,0,2.49,3.19,0.14,0.029,-0.010,0.957,0.00,0.00,0.00,0.00,-2.49,-3.19,0.15,0.11,2.21,-8.08,-10.73,1.85,1100,1100,1100,1100,1030,1501,1518,0,732
72011,0,-1.24,0.16,-1.22,0.013,-0.021,0.995,0.00,0.00,0.00,0.00,1.24,-0.16,0.15,0.11,2.22,0.21,-1.95,5.28,1100,1100,1100,1100,1030,1501,1518,0,732
72023,0,0.84,0.74,0.61,0.068,-0.020,0.927,0.00,0.00,0.00,0.00,-0.84,-0.74,0.15,0.11,2.21,1.46,2.34,0.68,1100,1100,1100,1100,1030,1501,1518,0,729
72035,0,3.79,3.35,0.82,0.004,-0.034,1.008,0.00,0.00,0.00,0.00,-3.79,-3.35,0.15,0.11,2.22,-17.10,-13.34,0.16,1100,1100,1100,1100,1030,1501,1518,0,729
72047,0,-2.56,-5.21,-0.26,0.052,-0.041,0.951,0.00,0.00,0.00,0.00,2.56,5.21,0.15,0.10,2.21,10.64,31.07,2.86,1100,1100,1100,1100,1030,1501,1518,0,729
72059,0,0.35,-3.70,1.03,0.015,-0.023,0.966,0.00,0.00,0.00,0.00,-0.35,3.70,0.15,0.11,2.21,0.62,3.02,-0.38,1100,1100,1100,1100,1030,1501,1518,0,729
72071,0,0.46,-0.01,-1.10,0.008,-0.057,1.012,0.00,0.00,0.00,0.00,-0.46,0.01,0.15,0.11,2.22,-7.43,-2.99,4.98,1100,1100,1100,1100,1030,1501,1518,0,729
72083,0,-4.78,5.22,-0.62,-0.031,-0.046,1.000,0.00,0.00,0.00,0.00,4.78,-5.22,0.16,0.11,2.21,18.57,-23.42,3.77,1100,1100,1100,1100,1030,1501,1518,0,729
72095,0,0.83,-0.04,0.18,0.012,-0.076,1.003,0.00,0.00,0.00,0.00,-0.83,0.04,0.16,0.11,2.23,-3.86,2.17,1.77,1100,1100,1100,1100,1030,1501,1518,0,729
72107,0,-2.49,-4.59,-0.71,-0.011,-0.056,0.979,0.00,0.00,0.00,0.00,2.49,4.59,0.16,0.11,2.23,5.16,19.17,4.00,1100,1100,1100,1100,1030,1501,1518,0,729
72119,0,1.20,-3.69,1.12,-0.006,-0.014,0.998,0.00,0.00,0.00,0.00,-1.20,3.69,0.16,0.12,2.22,-2.19,11.55,-0.57,1100,1100,1100,1100,1030,1507,1512,0,738
72131,0,3.20,-3.64,-0.57,0.018,-0.047,1.011,0.00,0.00,0.00,0.00,-3.20,3.64,0.16,0.12,2.24,-15.48,1.48,3.66,1100,1100,1100,1100,1030,1507,1512,0,738
72143,0,-0.88,0.80,-0.69,0.010,-0.053,0.986,0.00,0.00,0.00,0.00,0.88,-0.80,0.16,0.13,2.24,4.61,-19.23,3.97,1100,1100,1100,1100,1030,1501,1518,0,738
72155,0,1.78,-2.07,-0.09,0.100,-0.054,0.949,0.00,0.00,0.00,0.00,-1.78,2.07,0.16,0.14,2.26,-5.12,-6.45,2.48,1100,1100,1100,1100,1030,1501,1518,0,738
72167,0,-2.50,-7.05,-1.31,0.106,-0.048,0.885,0.00,0.00,0.00,0.00,2.50,7.05,0.16,0.15,2.28,8.23,20.89,5.56,1100,1100,1100,1100,1030,1501,1518,0,738
72179,0,-1.20,-2.86,-0.04,0.078,-0.009,0.928,0.00,0.00,0.00,0.00,1.20,2.86,0.16,0.16,2.28,6.57,2.40,2.39,1100,1100,1100,1100,1030,1501,1518,0,738
72191,0,1.28,-1.00,-0.76,0.064,-0.019,0.956,0.00,0.00,0.00,0.00,-1.28,1.00,0.16,0.16,2.32,-8.25,1.19,4.22,1100,1100,1100,1100,1030,1501,1518,0,738
72203,0,-0.51,3.50,-0.85,0.008,-0.020,0.983,0.00,0.00,0.00,0.00,0.51,-3.50,0.16,0.15,2.32,1.03,-15.82,4.45,1100,1100,1100,1100,1030,1501,1518,0,738
72215,0,1.34,0.98,0.63,0.072,0.008,0.969,0.00,0.00,0.00,0.00,-1.34,-0.98,0.16,0.16,2.33,-4.54,-5.89,0.76,1100,1100,1100,1100,1031,1502,1517,0,738
72227,0,0.23,-4.86,-0.17,0.065,-0.015,0.911,0.00,0.00,0.00,0.00,-0.23,4.86,0.16,0.16,2.34,-0.80,16.43,2.75,1100,1100,1100,1100,1031,1502,1517,0,731
72239,0,-0.09,-1.74,0.03,0.088,-0.025,0.957,0.00,0.00,0.00,0.00,0.09,1.74,0.16,0.16,2.33,2.39,4.39,2.25,1100,1100,1100,1100,1031,1502,1517,0,731
72251,0,0.88,-2.04,0.33,0.128,-0.029,0.937,0.00,0.00,0.00,0.00,-0.88,2.04,0.16,0.17,2.33,-1.55,0.54,1.51,1100,1100,1100,1100,1031,1502,1517,0,731
72263,0,1.84,1.05,-0.28,0.119,-0.049,0.916,0.00,0.00,0.00,0.00,-1.84,-1.05,0.15,0.17,2.33,-5.37,-5.88,3.02,1100,1100,1100,1100,1030,1502,1517,0,731
72275,0,-1.02,0.56,0.07,0.132,-0.019,0.939,0.00,0.00,0.00,0.00,1.02,-0.56,0.15,0.17,2.32,5.47,1.50,2.14,1100,1100,1100,1100,1031,1502,1517,0,731
72287,0,0.90,2.35,-0.05,0.073,-0.018,0.968,0.00,0.00,0.00,0.00,-0.90,-2.35,0.15,0.16,2.33,-0.65,-1.97,2.46,1100,1100,1100,1100,1031,1502,1517,0,731
72299,0,-0.75,5.25,-1.15,0.033,-0.008,1.020,0.00,0.00,0.00,0.00,0.75,-5.25,0.16,0.15,2.35,-0.19,-13.53,5.22,1100,1100,1100,1100,1032,1500,1517,0,731
72311,0,-1.70,2.11,-0.12,0.030,0.013,1.021,0.00,0.00,0.00,0.00,1.70,-2.11,0.15,0.15,2.36,8.16,0.18,2.66,1100,1100,1100,1100,1032,1500,1517,0,731
72323,0,2.72,-1.68,-0.75,-0.006,-0.020,0.980,0.00,0.00,0.00,0.00,-2.72,1.68,0.16,0.15,2.39,-13.57,12.56,4.26,1100,1100,1100,1100,1030,1501,1518,0,731
72335,0,-2.61,-5.30,-0.06,-0.021,-0.018,1.017,0.00,0.00,0.00,0.00,2.61,5.30,0.16,0.15,2.39,7.05,17.99,2.54,1100,1100,1100,1100,1030,1501,1518,0,731
72347,0,1.37,-9.50,0.62,0.011,-0.012,0.957,0.00,0.00,0.00,0.00,-1.37,9.50,0.16,0.17,2.39,-3.02,16.80,0.84,1100,1100,1100,1100,1030,1501,1518,0,731
72359,0,-0.40,-5.63,-0.62,0.033,-0.045,0.953,0.00,0.00,0.00,0.00,0.40,5.63,0.16,0.19,2.39,-2.93,-5.99,3.95,1100,1100,1100,1100,1030,1501,1518,0,731
72371,0,-4.68,-7.62,0.54,0.101,0.003,0.928,0.00,0.00,0.00,0.00,4.68,7.62,0.16,0.22,2.37,20.48,-7.18,1.02,1100,1100,1100,1100,1030,1501,1518,0,731
72383,0,2.86,-9.82,0.17,0.188,-0.051,0.805,0.00,0.00,0.00,0.00,-2.86,9.82,0.16,0.24,2.37,-11.76,7.24,1.95,1100,1100,1100,1100,1030,1501,1518,0,731
72395,0,-2.17,-13.26,0.06,0.194,-0.035,0.831,0.00,0.00,0.00,0.00,2.17,13.26,0.16,0.26,2.35,2.78,19.74,2.21,1100,1100,1100,1100,1030,1501,1518,0,731
72407,0,1.50,-12.78,1.00,0.212,-0.033,0.843,0.00,0.00,0.00,0.00,-1.50,12.78,0.16,0.28,2.34,-2.08,26.28,-0.16,1100,1100,1100,1100,1030,1501,1518,0,731
72419,0,2.91,1.31,0.24,0.160,-0.055,0.891,0.00,0.00,0.00,0.00,-2.91,-1.31,0.16,0.29,2.34,-16.44,-32.30,1.74,1100,1100,1100,1100,1030,1501,1518,0,732
72431,0,-3.73,2.45,0.32,0.143,-0.035,0.903,0.00,0.00,0.00,0.00,3.73,-2.45,0.16,0.30,2.32,15.55,-23.70,1.51,1100,1100,1100,1100,1030,1501,1518,0,732
72443,0,3.56,1.96,0.50,0.153,-0.065,0.838,0.00,0.00,0.00,0.00,-3.56,-1.96,0.16,0.30,2.32,-12.52,-10.67,1.08,1100,1100,1100,1100,1030,1501,1518,0,732
72455,0,-2.12,-10.77,-0.46,0.155,-0.065,0.866,0.00,0.00,0.00,0.00,2.12,10.77,0.17,0.31,2.31,5.09,41.50,3.46,1100,1100,1100,1100,1030,1501,1518,0,732
72467,0,-2.80,-6.17,0.15,0.109,-0.040,0.932,0.00,0.00,0.00,0.00,2.80,6.17,0.16,0.31,2.30,14.39,22.18,1.92,1100,1100,1100,1100,1030,1501,1518,0,732
72479,0,0.84,-1.70,0.78,0.107,-0.055,0.925,0.00,0.00,0.00,0.00,-0.84,1.70,0.17,0.32,2.29,-5.95,-4.31,0.34,1100,1100,1100,1100,1031,1501,1518,0,732
72491,0,-0.48,0.73,0.07,0.114,-0.049,0.959,0.00,0.00,0.00,0.00,0.48,-0.73,0.17,0.32,2.28,-0.33,-16.09,2.10,1100,1100,1100,1100,1031,1501,1518,0,732
72503,0,3.48,0.87,0.78,0.150,-0.058,0.864,0.00,0.00,0.00,0.00,-3.48,-0.87,0.16,0.33,2.26,-12.58,-10.37,0.32,1100,1100,1100,1100,1031,1500,1518,0,732
72515,0,1.28,-3.29,0.23,0.118,-0.034,0.908,0.00,0.00,0.00,0.00,-1.28,3.29,0.17,0.34,2.27,-6.67,1.78,1.69,1100,1100,1100,1100,1031,1501,1518,0,732
72527,0,-3.72,-7.36,-0.21,0.086,-0.025,0.884,0.00,0.00,0.00,0.00,3.72,7.36,0.17,0.34,2.26,17.05,26.55,2.78,1100,1100,1100,1100,1031,1501,1518,0,731
72539,0,0.72,0.24,0.84,0.017,-0.010,0.935,0.00,0.00,0.00,0.00,-0.72,-0.24,0.17,0.35,2.25,-1.49,-8.86,0.14,1100,1100,1100,1100,1031,1501,1518,0,731
72551,0,-0.98,-1.45,-1.41,0.037,-0.040,0.987,0.00,0.00,0.00,0.00,0.98,1.45,0.17,0.35,2.27,1.61,-0.21,5.79,1100,1100,1100,1100,1031,1501,1518,0,731
72563,0,-0.33,9.25,0.12,0.016,-0.030,0.940,0.00,0.00,0.00,0.00,0.33,-9.25,0.17,0.34,2.25,2.88,-33.96,1.95,1100,1100,1100,1100,1031,1501,1519,0,731
72575,0,0.84,0.61,0.50,0.056,-0.046,0.936,0.00,0.00,0.00,0.00,-0.84,-0.61,0.17,0.34,2.27,-5.50,-1.15,1.03,1100,1100,1100,1100,1037,1501,1519,0,731
72587,0,-1.44,-1.02,-0.51,0.007,-0.042,0.967,0.00,0.00,0.00,0.00,1.44,1.02,0.17,0.34,2.27,3.28,14.87,3.54,1100,1100,1100,1100,1037,1501,1519,0,731
72599,0,1.91,3.36,0.95,-0.027,-0.027,1.009,0.00,0.00,0.00,0.00,-1.91,-3.36,0.17,0.33,2.28,-7.42,-1.59,-0.10,1100,1100,1100,1100,1041,1500,1519,0,731
72611,0,1.70,7.30,-1.92,-0.053,-0.043,1.083,0.00,0.00,0.00,0.00,-1.70,-7.30,0.17,0.31,2.31,-8.79,-14.56,7.12,1100,1100,1100,1100,1041,1500,1519,0,731
72623,0,-2.55,10.57,-0.42,-0.088,-0.048,1.039,0.00,0.00,0.00,6.20,2.55,-4.37,0.17,0.31,2.31,11.70,-19.61,3.36,1100,1100,1100,1100,1033,1500,1531,0,733
72635,0,-0.98,6.17,-0.29,-0.083,-0.054,1.061,0.00,0.00,0.00,0.00,0.98,-6.17,0.17,0.31,2.34,5.46,-1.51,3.06,1100,1100,1100,1100,1046,1500,1519,0,733
72647,0,-1.14,-0.41,-1.22,-0.135,-0.030,1.074,0.00,0.00,0.00,0.00,1.14,0.41,0.17,0.30,2.34,4.26,22.75,5.40,1100,1100,1100,1100,1046,1500,1519,0,733
72659,0,0.93,1.59,0.74,-0.157,0.001,1.103,0.00,0.00,0.00,0.00,-0.93,-1.59,0.17,0.29,2.35,-2.59,10.55,0.49,1100,1100,1100,1100,1046,1500,1519,0,733
72671,0,1.63,4.31,-1.16,-0.141,-0.023,1.129,0.00,0.00,0.00,0.00,-1.63,-4.31,0.17,0.28,2.38,-7.45,-6.54,5.27,1100,1100,1100,1100,1046,1500,1519,0,733
72683,0,2.18,5.57,-0.64,-0.152,-0.022,1.147,0.00,0.00,0.00,0.00,-2.18,-5.57,0.17,0.27,2.38,-7.59,-14.01,3.98,1100,1100,1100,1100,1046,1501,1518,0,733
72695,0,0.41,4.94,0.34,-0.085,-0.016,1.116,0.00,0.00,0.00,0.00,-0.41,-4.94,0.17,0.27,2.40,1.04,-11.72,1.56,1100,1100,1100,1100,1071,1501,1518,0,733
72707,0,-0.87,-0.25,-1.00,-0.078,-0.011,1.073,0.00,0.00,0.00,0.00,0.87,0.25,0.17,0.27,2.41,3.70,9.89,4.92,1100,1100,1100,1100,1071,1501,1518,0,733
72719,0,-1.77,2.13,0.11,-0.087,-0.022,1.063,0.00,0.00,0.00,0.00,1.77,-2.13,0.17,0.26,2.41,6.40,4.50,2.13,1100,1100,1100,1100,1077,1501,1518,0,750
72731,0,-0.05,-2.47,-0.43,-0.059,-0.013,1.042,0.00,0.00,0.00,0.00,0.05,2.47,0.17,0.26,2.43,-0.60,5.95,3.50,1100,1100,1100,1100,1077,1501,1518,0,750
72743,0,1.38,-2.17,-0.70,-0.058,-0.042,1.027,0.00,0.00,0.00,0.00,-1.38,2.17,0.17,0.26,2.43,-6.03,14.21,4.19,1100,1100,1100,1100,1095,1501,1518,0,750
72755,0,-1.10,3.89,0.46,-0.047,0.015,1.039,0.00,0.00,0.00,0.00,1.10,-3.89,0.17,0.26,2.43,3.85,-23.45,1.28,1100,1100,1100,1100,1095,1501,1518,0,750
72767,0,0.64,-2.24,-0.32,-0.002,-0.010,0.987,0.00,0.00,0.00,0.00,-0.64,2.24,0.17,0.26,2.44,1.39,11.39,3.24,1100,1100,1100,1100,1095,1501,1518,0,750
72779,0,1.08,5.87,-0.15,-0.008,-0.028,1.029,0.00,0.00,0.00,0.00,-1.08,-5.87,0.17,0.26,2.44,-6.53,-23.41,2.80,1100,1100,1100,1100,1095,1501,1518,0,750
72791,0,-1.76,-2.00,0.27,0.065,-0.020,0.970,0.00,0.00,0.00,0.00,1.76,2.00,0.16,0.26,2.44,10.57,15.99,1.76,1100,1100,1100,1100,1095,1501,1518,0,750
72803,0,4.20,4.30,-0.25,-0.014,-0.044,1.024,0.00,0.00,0.00,0.00,-4.20,-4.30,0.16,0.25,2.45,-16.18,-3.95,3.09,1100,1100,1100,1100,1121,1501,1518,0,750
72815,0,-3.99,-1.10,-0.26,0.003,-0.029,1.004,0.00,0.00,0.00,0.00,3.99,1.10,0.17,0.24,2.46,13.55,16.25,3.10,1100,1100,1100,1100,1124,1501,1518,0,750
72827,0,2.02,10.34,-0.34,-0.084,0.001,1.092,0.00,0.00,0.00,0.00,-2.02,-10.34,0.16,0.23,2.47,-2.38,-30.58,3.33,1100,1100,1100,1100,1124,1501,1518,0,731
72839,0,0.94,3.88,-1.06,-0.062,-0.038,1.044,0.00,0.00,0.00,0.00,-0.94,-3.88,0.17,0.22,2.48,-9.07,-6.47,5.13,1100,1100,1100,1100,1134,1501,1518,0,731
72851,0,-5.55,5.93,0.03,-0.063,0.010,1.075,0.00,0.00,0.00,0.00,5.55,-5.93,0.17,0.21,2.49,25.41,-3.93,2.40,1100,1100,1100,1100,1134,1501,1518,0,731
72863,0,3.62,-8.37,0.18,0.001,-0.044,0.990,0.00,0.00,0.00,0.00,-3.62,8.37,0.16,0.22,2.49,-14.10,36.39,2.05,1100,1100,1100,1100,1137,1501,1518,0,731
72875,0,-1.65,-3.15,-0.20,-0.028,-0.042,1.041,0.00,0.00,0.00,0.00,1.65,3.15,0.17,0.21,2.49,0.78,14.83,3.00,1100,1100,1100,1100,1166,1501,1518,0,731
72887,0,3.90,4.81,0.19,-0.049,-0.025,1.072,0.00,0.00,0.00,0.00,-3.90,-4.81,0.16,0.21,2.50,-9.03,-21.49,2.03,1100,1100,1100,1100,1166,1501,1518,0,731
72899,0,4.51,5.97,-0.51,-0.017,-0.071,1.038,0.00,0.00,0.00,0.00,-4.51,-5.97,0.16,0.20,2.51,-21.59,-19.94,3.78,1100,1100,1100,1100,1181,1500,1518,0,731
72911,0,-7.55,4.19,-0.44,-0.028,-0.022,1.045,0.00,0.00,0.00,0.00,7.55,-4.19,0.17,0.20,2.51,34.85,-10.80,3.61,1100,1100,1100,1100,1181,1500,1518,0,731
72923,0,2.08,-4.67,0.24,0.013,-0.045,0.975,0.00,0.00,0.00,0.00,-2.08,4.67,0.16,0.20,2.52,-3.88,24.60,1.93,1178,1238,1134,1182,1183,1501,1518,0,734
72935,0,-3.58,-11.43,-0.49,0.017,-0.051,0.988,0.00,0.00,0.00,0.00,3.58,11.43,0.17,0.21,2.53,7.38,46.95,3.75,1178,1238,1134,1182,1186,1501,1518,0,734
72947,0,-2.39,-8.01,0.06,0.008,-0.006,1.006,0.00,0.00,0.00,0.00,2.39,8.01,0.16,0.22,2.51,14.73,17.47,2.36,1178,1238,1134,1182,1186,1501,1518,0,734
72959,0,6.90,3.40,0.17,0.014,-0.072,1.024,0.00,0.00,0.00,0.00,-6.90,-3.40,0.16,0.22,2.52,-29.61,-21.80,2.10,1178,1238,1134,1182,1187,1501,1518,0,734
72971,0,-3.68,-4.02,-1.09,-0.005,-0.059,1.051,0.00,0.00,0.00,0.00,3.68,4.02,0.17,0.22,2.53,10.37,13.03,5.26,1178,1238,1134,1182,1187,1501,1518,0,734
72983,0,-5.13,-2.37,-1.24,-0.049,0.005,1.033,0.00,0.00,0.00,0.00,5.13,2.37,0.16,0.22,2.52,28.88,1.04,5.63,1178,1238,1134,1182,1199,1501,1518,0,734
72995,0,6.37,-0.25,-0.03,-0.042,-0.056,0.981,0.00,0.00,0.00,0.00,-6.37,0.25,0.16,0.21,2.52,-20.82,5.88,2.60,1178,1238,1134,1182,1202,1501,1518,0,734
73007,0,0.39,-3.59,0.08,0.003,-0.064,1.014,0.00,0.00,0.00,0.00,-0.39,3.59,0.16,0.21,2.53,-4.94,24.29,2.32,1178,1238,1134,1182,1202,1501,1518,0,734
73019,0,-4.47,-5.31,-0.38,-0.005,-0.004,0.999,0.00,0.00,0.00,0.00,4.47,5.31,0.16,0.21,2.53,22.75,24.33,3.49,1200,1158,1250,1196,1201,1501,1519,0,733
73031,0,6.56,-1.36,0.75,-0.006,0.033,0.952,0.00,0.00,0.00,0.00,-6.56,1.36,0.15,0.22,2.52,-21.57,-6.37,0.64,1200,1158,1250,1196,1201,1501,1519,0,733
73043,0,7.90,-2.08,0.61,0.089,-0.030,0.910,0.00,0.00,0.00,0.00,-7.90,2.08,0.16,0.23,2.53,-40.91,-10.33,1.01,1200,1158,1250,1196,1202,1501,1518,0,733
73055,0,-8.74,-13.75,-0.81,0.183,-0.082,0.915,0.00,0.00,0.00,0.00,8.74,13.75,0.17,0.24,2.55,27.48,45.15,4.56,1200,1158,1250,1196,1207,1502,1517,0,733
73067,0,-6.33,-3.48,-1.51,0.087,-0.045,0.962,0.00,0.00,0.00,0.00,6.33,3.48,0.16,0.23,2.57,33.30,27.34,6.34,1200,1158,1250,1196,1207,1502,1517,0,733
73079,0,3.69,14.02,-2.18,-0.126,0.031,1.011,0.00,0.00,0.00,0.00,-3.69,-14.02,0.15,0.23,2.59,-5.65,-63.62,8.04,1200,1158,1250,1196,1209,1501,1518,0,733
73091,0,6.70,-11.56,-0.87,0.035,-0.014,0.912,0.00,0.00,0.00,0.00,-6.70,11.56,0.15,0.25,2.64,-24.64,21.79,4.81,1200,1158,1250,1196,1209,1501,1518,0,733
73103,0,5.83,-2.60,-1.10,0.168,-0.088,0.926,0.00,0.00,0.00,0.00,-5.83,2.60,0.15,0.23,2.71,-19.00,29.60,5.46,1200,1158,1250,1196,1211,1501,1518,0,733
73115,0,3.56,19.09,-3.10,-0.097,-0.010,1.067,0.00,0.00,0.00,0.00,-3.56,-19.09,0.15,0.25,2.79,-19.48,-105.04,10.56,1200,1158,1250,1196,1211,1500,1516,0,733
73127,0,-12.55,-25.62,-3.92,0.112,-0.045,0.854,0.00,0.00,0.00,0.00,12.55,25.62,0.15,0.26,2.90,48.73,97.57,12.70,1164,1340,1100,1242,1211,1500,1516,0,836
73139,0,-5.83,15.56,-5.70,-0.095,-0.003,1.043,0.00,0.00,0.00,0.00,5.83,-15.56,0.14,0.24,3.01,36.06,-44.54,17.25,1164,1340,1100,1242,1211,1501,1518,0,836
73151,0,3.63,-7.10,-3.73,0.058,0.040,0.971,0.00,0.00,0.00,0.00,-3.63,7.10,0.14,0.26,3.12,-10.04,18.99,12.45,1164,1340,1100,1242,1211,1501,1518,0,836
73163,0,9.68,11.27,-2.82,0.073,-0.057,0.947,0.00,0.00,0.00,0.00,-9.68,-11.27,0.14,0.24,3.24,-35.34,-32.43,10.30,1164,1340,1100,1242,1214,1501,1518,0,836
73175,0,9.79,3.76,-3.07,0.014,-0.045,1.026,0.00,0.00,0.00,0.00,-9.79,-3.76,0.15,0.25,3.37,-49.35,-28.87,11.06,1164,1340,1100,1242,1217,1501,1518,0,836
73187,0,-7.21,-15.98,-3.74,0.042,-0.101,0.896,0.00,0.00,0.00,0.00,7.21,15.98,0.15,0.26,3.50,22.10,60.80,12.85,1164,1340,1100,1242,1217,1501,1518,0,836
73199,0,-9.19,1.48,-6.40,-0.082,-0.005,1.089,0.00,0.00,0.00,0.00,9.19,-1.48,0.15,0.25,3.64,36.33,-5.61,19.65,1164,1340,1100,1242,1217,1501,1518,0,836
73211,0,-9.55,-10.68,-4.90,-0.032,-0.013,0.956,0.00,0.00,0.00,0.00,9.55,10.68,0.15,0.25,3.76,45.02,54.86,16.01,1164,1340,1100,1242,1217,1501,1518,0,836
73223,0,-0.40,10.95,-5.79,-0.061,0.035,1.078,0.00,0.00,0.00,0.00,0.40,-10.95,0.15,0.24,3.89,6.26,-35.33,18.36,1208,1322,1138,1212,1220,1501,1518,0,733
73235,0,5.16,1.93,-1.82,0.015,-0.006,0.964,0.00,0.00,0.00,0.00,-5.16,-1.93,0.15,0.24,3.97,-20.14,-5.57,8.54,1208,1322,1138,1212,1220,1501,1518,0,733
73247,0,9.37,9.33,-1.83,-0.007,-0.017,1.026,0.00,0.00,0.00,0.00,-9.37,-9.33,0.15,0.24,4.06,-45.63,-40.62,8.64,1208,1322,1138,1212,1220,1501,1518,0,733
73259,0,4.93,0.74,-1.29,0.027,-0.070,0.998,0.00,0.00,0.00,0.00,-4.93,-0.74,0.16,0.24,4.17,-28.37,5.35,7.41,1208,1322,1138,1212,1222,1501,1518,0,733
73271,0,-1.89,-6.04,-2.32,0.013,-0.068,0.964,0.00,0.00,0.00,0.00,1.89,6.04,0.16,0.25,4.25,0.12,7.28,10.04,1208,1322,1138,1212,1222,1501,1518,0,733
73283,0,-7.32,3.83,-4.51,-0.051,-0.040,1.083,0.00,0.00,0.00,0.00,7.32,-3.83,0.16,0.23,4.36,33.17,2.73,15.63,1208,1322,1138,1212,1224,1501,1518,0,733
73295,0,-6.21,-14.01,-2.95,0.003,-0.017,0.950,0.00,0.00,0.00,0.00,6.21,14.01,0.15,0.24,4.42,33.22,53.46,11.79,1208,1322,1138,1212,1236,1501,1518,0,733
73307,0,-0.69,10.61,-5.41,-0.130,0.008,1.093,0.00,0.00,0.00,0.00,0.69,-10.61,0.14,0.23,4.51,17.59,-37.95,18.03,1208,1322,1138,1212,1236,1501,1518,0,733
73319,0,6.14,1.10,-3.82,-0.021,-0.016,1.016,0.00,0.00,0.00,0.00,-6.14,-1.10,0.13,0.21,4.60,-5.23,25.79,14.15,1252,1230,1270,1192,1236,1501,1518,0,733
73331,0,6.90,-10.54,-2.54,0.098,-0.022,0.869,0.00,0.00,0.00,0.00,-6.90,10.54,0.12,0.23,4.67,-12.13,34.74,11.02,1252,1230,1270,1192,1236,1501,1518,0,733
73343,0,9.59,8.87,-2.89,-0.018,-0.024,0.978,0.00,0.00,0.00,0.00,-9.59,-8.87,0.12,0.25,4.76,-36.06,-67.37,12.00,1252,1230,1270,1192,1242,1501,1518,0,733
73355,0,7.53,16.68,-3.31,-0.000,-0.048,1.035,0.00,0.00,0.00,0.00,-7.53,-16.68,0.13,0.22,4.92,-38.29,-42.31,13.19,1252,1230,1270,1192,1242,1501,1518,0,733
73367,0,1.36,-12.56,-2.54,0.176,-0.092,0.836,0.00,0.00,0.00,0.00,-1.36,12.56,0.13,0.24,5.06,-18.43,42.12,11.40,1252,1230,1270,1192,1242,1501,1518,0,733
73379,0,-7.85,-3.65,-4.33,0.045,-0.084,0.927,0.00,0.00,0.00,0.00,7.85,3.65,0.15,0.26,5.20,16.32,-17.80,16.02,1252,1230,1270,1192,1244,1502,1517,0,733
73391,0,-12.79,7.92,-6.19,-0.046,-0.030,1.072,0.00,0.00,0.00,0.00,12.79,-7.92,0.15,0.23,5.38,38.82,-9.96,20.85,1252,1230,1270,1192,1244,1502,1517,0,733
73403,0,-10.75,-10.33,-5.41,0.070,-0.033,0.981,0.00,0.00,0.00,0.00,10.75,10.33,0.15,0.23,5.52,41.19,56.79,19.05,1252,1230,1270,1192,1243,1501,1519,0,733
73415,0,-8.22,-15.42,-5.47,0.073,-0.035,0.934,0.00,0.00,0.00,0.00,8.22,15.42,0.15,0.25,5.63,36.72,39.05,19.30,1252,1230,1270,1192,1251,1502,1517,0,733
73427,0,-4.49,-0.86,-6.33,-0.039,-0.005,1.025,0.00,0.00,0.00,0.00,4.49,0.86,0.15,0.25,5.75,29.08,-0.83,21.57,1229,1273,1255,1247,1251,1502,1517,0,733
73439,0,0.13,2.96,-5.46,-0.058,0.014,1.084,0.00,0.00,0.00,0.00,-0.13,-2.96,0.13,0.22,5.88,20.24,26.18,19.53,1229,1273,1255,1247,1257,1501,1518,0,733
73451,0,3.42,-12.28,-3.82,0.065,-0.015,0.959,0.00,0.00,0.00,0.00,-3.42,12.28,0.12,0.22,5.99,9.58,70.57,15.53,1229,1273,1255,1247,1257,1501,1518,0,733
73463,0,7.73,-16.70,-2.14,0.091,-0.011,0.905,0.00,0.00,0.00,0.00,-7.73,16.70,0.11,0.25,6.07,-15.00,41.46,11.43,1229,1273,1255,1247,1259,1501,1517,0,733
73475,0,13.46,3.33,-1.65,-0.064,0.023,1.029,0.00,0.00,0.00,0.00,-13.46,-3.33,0.10,0.25,6.16,-42.37,-28.95,10.29,1229,1273,1255,1247,1259,1501,1518,0,733
73487,0,16.63,18.71,-1.35,-0.136,0.011,1.112,0.00,0.00,0.00,0.00,-16.63,-18.71,0.09,0.22,6.26,-54.99,-49.67,9.64,1229,1273,1255,1247,1259,1501,1518,0,733
73499,0,13.74,8.47,-0.81,-0.005,-0.058,0.999,0.00,0.00,0.00,0.00,-13.74,-8.47,0.09,0.21,6.34,-47.44,-10.83,8.37,1229,1273,1255,1247,1259,1501,1518,0,733
73511,0,8.10,-5.08,-1.08,0.117,-0.094,0.846,0.00,0.00,0.00,0.00,-8.10,5.08,0.09,0.24,6.39,-31.73,-2.92,9.09,1229,1273,1255,1247,1259,1501,1518,0,733
73523,0,3.15,-0.29,-2.20,0.067,-0.076,0.870,0.00,0.00,0.00,0.00,-3.15,0.29,0.09,0.26,6.47,-14.69,-35.99,11.97,1211,1249,1309,1291,1265,1501,1518,0,733
73535,0,-0.42,12.11,-2.41,-0.078,-0.045,1.013,0.00,0.00,0.00,0.00,0.42,-12.11,0.09,0.26,6.54,-0.32,-48.66,12.56,1211,1249,1309,1291,1267,1501,1518,0,733
73547,0,-4.08,18.46,-1.74,-0.158,-0.040,1.125,0.00,0.00,0.00,0.00,4.08,-18.46,0.08,0.22,6.60,14.72,-31.48,10.95,1211,1249,1309,1291,1267,1501,1518,0,733
73559,0,-7.87,9.81,-0.92,-0.063,-0.074,1.085,0.00,0.00,0.00,0.00,7.87,-9.81,0.09,0.19,6.62,27.73,5.49,8.93,1211,1249,1309,1291,1267,1501,1518,0,733
73571,0,-11.19,-9.18,-0.19,0.139,-0.097,0.933,0.00,0.00,0.00,0.00,11.19,9.18,0.09,0.20,6.61,36.21,31.03,7.08,1211,1249,1309,1291,1267,1501,1518,0,733
73583,0,-11.81,-17.63,-0.24,0.245,-0.074,0.826,0.00,0.00,0.00,0.00,11.81,17.63,0.10,0.25,6.59,38.05,8.11,7.20,1211,1249,1309,1291,1280,1501,1518,0,733
73595,0,-10.80,-5.22,-1.49,0.137,-0.010,0.887,0.00,0.00,0.00,0.00,10.80,5.22,0.10,0.29,6.61,38.11,-44.35,10.34,1211,1249,1309,1291,1280,1501,1518,0,733
73607,0,-8.83,13.98,-2.27,-0.069,0.051,1.044,0.00,0.00,0.00,0.00,8.83,-13.98,0.10,0.28,6.65,36.13,-72.07,12.32,1211,1249,1309,1291,1280,1501,1518,0,733
73619,0,-7.69,23.57,-2.13,-0.203,0.080,1.178,0.00,0.00,0.00,0.00,7.69,-23.57,0.10,0.24,6.68,36.65,-52.01,12.00,1180,1308,1276,1356,1280,1501,1518,0,732
73631,0,-7.47,20.70,-1.53,-0.224,0.069,1.201,0.00,0.00,0.00,0.00,7.47,-20.70,0.10,0.19,6.71,39.15,-8.51,10.53,1180,1308,1276,1356,1280,1501,1518,0,732
73643,0,-6.70,9.02,-0.93,-0.177,0.055,1.170,0.00,0.00,0.00,0.00,6.70,-9.02,0.10,0.15,6.72,37.81,33.16,9.04,1180,1308,1276,1356,1281,1501,1518,0,732
73655,0,-4.87,-3.71,-0.96,-0.076,0.039,1.098,0.00,0.00,0.00,0.00,4.87,3.71,0.10,0.13,6.73,31.48,62.83,9.14,1180,1308,1276,1356,1281,1501,1518,0,732
73667,0,-2.82,-19.29,-1.24,0.090,0.034,0.986,0.00,0.00,0.00,0.00,2.82,19.29,0.10,0.13,6.75,23.46,87.72,9.84,1180,1308,1276,1356,1281,1501,1518,0,732
73679,0,-1.53,-33.77,-0.86,0.250,0.030,0.841,0.00,0.00,0.00,0.00,1.53,33.77,0.09,0.18,6.77,19.57,94.12,8.92,1180,1308,1276,1356,1282,1501,1518,0,732
73691,0,0.59,-31.97,-0.45,0.317,0.045,0.784,0.00,0.00,0.00,0.00,-0.59,31.97,0.09,0.23,6.77,13.38,61.13,7.90,1180,1308,1276,1356,1282,1501,1518,0,732
73703,0,4.51,-27.07,-0.07,0.316,0.073,0.759,0.00,0.00,0.00,0.00,-4.51,27.07,0.08,0.28,6.78,0.25,38.98,6.95,1180,1308,1276,1356,1284,1501,1518,0,732
73715,0,7.25,-21.34,0.34,0.276,0.084,0.765,0.00,0.00,0.00,0.00,-7.25,21.34,0.07,0.32,6.78,-7.80,23.55,5.92,1180,1308,1276,1356,1284,1500,1518,0,732
73727,0,10.29,-11.35,0.28,0.184,0.107,0.838,0.00,0.00,0.00,0.00,-10.29,11.35,0.06,0.35,6.77,-15.71,-0.58,6.06,1217,1225,1361,1333,1284,1500,1518,0,732
73739,0,12.27,-5.72,0.34,0.116,0.112,0.883,0.00,0.00,0.00,0.00,-12.27,5.72,0.04,0.37,6.75,-18.70,-11.73,5.91,1217,1225,1361,1333,1285,1501,1518,0,732
73751,0,15.32,0.20,-0.12,0.073,0.119,0.909,0.00,0.00,0.00,0.00,-15.32,-0.20,0.03,0.39,6.74,-28.19,-30.67,7.04,1217,1225,1361,1333,1285,1501,1518,0,732
73763,0,17.53,2.76,-0.47,0.089,0.126,0.885,0.00,0.00,0.00,0.00,-17.53,-2.76,0.00,0.41,6.74,-32.28,-41.77,7.91,1217,1225,1361,1333,1289,1501,1517,0,732
73775,0,18.91,3.70,-1.03,0.138,0.127,0.843,0.00,0.00,0.00,0.00,-18.91,-3.70,-0.02,0.43,6.75,-34.15,-53.00,9.33,1217,1225,1361,1333,1289,1501,1517,0,732
73787,0,19.60,0.45,-1.84,0.212,0.139,0.797,0.00,0.00,0.00,0.00,-19.60,-0.45,-0.05,0.46,6.78,-33.18,-45.16,11.40,1217,1225,1361,1333,1289,1501,1517,0,732
73799,0,19.00,-7.59,-2.29,0.332,0.159,0.734,0.00,0.00,0.00,0.00,-19.00,7.59,-0.08,0.50,6.82,-26.65,-28.22,12.55,1217,1225,1361,1333,1292,1501,1518,0,732
73811,0,17.40,-13.96,-2.74,0.425,0.167,0.676,0.00,0.00,0.00,0.00,-17.40,13.96,-0.10,0.55,6.86,-17.77,-19.82,13.71,1217,1225,1361,1333,1292,1501,1518,0,732
73823,0,16.32,-17.30,-3.41,0.486,0.175,0.654,0.00,0.00,0.00,0.00,-16.32,17.30,-0.13,0.60,6.90,-12.94,-11.97,15.44,1390,1340,1262,1184,1294,1500,1517,0,734
73835,0,15.10,-18.76,-3.95,0.569,0.164,0.596,0.00,0.00,0.00,0.00,-15.10,18.76,-0.16,0.66,6.95,-11.40,-10.23,16.82,1390,1340,1262,1184,1291,1502,1518,0,734
73847,0,12.54,-13.83,-4.80,0.609,0.162,0.578,0.00,0.00,0.00,0.00,-12.54,13.83,-0.18,0.71,7.02,-7.59,-22.57,19.02,1390,1340,1262,1184,1291,1502,1518,0,734
73859,0,8.98,-4.71,-5.54,0.583,0.164,0.620,0.00,0.00,0.00,0.00,-8.98,4.71,-0.20,0.74,7.11,-1.58,-39.04,20.97,1390,1340,1262,1184,1301,1501,1518,0,734
73871,0,3.17,5.60,-5.88,0.483,0.152,0.706,0.00,0.00,0.00,0.00,-3.17,-5.60,-0.20,0.76,7.22,10.16,-50.52,21.93,1390,1340,1262,1184,1301,1501,1518,0,734
73883,0,-2.30,16.63,-6.05,0.333,0.136,0.820,0.00,0.00,0.00,0.00,2.30,-16.63,-0.20,0.74,7.34,18.47,-59.10,22.46,1390,1340,1262,1184,1302,1501,1518,0,734
73895,0,-6.68,27.30,-6.11,0.110,0.129,0.964,0.00,0.00,0.00,0.00,6.68,-27.30,-0.19,0.70,7.48,22.31,-60.08,22.76,1390,1340,1262,1184,1302,1501,1518,0,734
73907,0,-10.08,32.27,-5.94,-0.138,0.119,1.113,0.00,0.00,0.00,0.00,10.08,-32.27,-0.18,0.64,7.62,22.48,-42.86,22.47,1390,1340,1262,1184,1302,1501,1518,0,734
73919,0,-11.87,29.50,-5.28,-0.324,0.102,1.218,0.00,0.00,0.00,0.00,11.87,-29.50,-0.16,0.57,7.75,19.57,-15.66,20.95,1248,1318,1326,1316,1302,1501,1518,0,735
73931,0,-13.79,17.23,-4.43,-0.403,0.071,1.258,0.00,0.00,0.00,0.00,13.79,-17.23,-0.14,0.52,7.86,20.17,23.68,18.94,1248,1318,1326,1316,1302,1501,1518,0,735
73943,0,-14.26,1.59,-3.18,-0.412,0.054,1.251,0.00,0.00,0.00,0.00,14.26,-1.59,-0.11,0.49,7.95,18.59,55.52,15.89,1248,1318,1326,1316,1303,1501,1518,0,735
73955,0,-15.91,-17.67,-1.86,-0.342,0.029,1.205,0.00,0.00,0.00,0.00,15.91,17.67,-0.09,0.49,8.00,24.52,83.33,12.66,1248,1318,1326,1316,1306,1501,1518,0,735
73967,0,-12.07,-26.10,-0.15,-0.000,0.005,1.005,0.00,0.00,0.00,0.00,12.07,26.10,-0.06,0.53,8.06,7.43,68.43,8.43,1248,1318,1326,1316,1306,1501,1518,0,735
73979,0,-10.41,-17.96,0.15,0.173,-0.009,0.907,0.00,0.00,0.00,0.00,10.41,17.96,-0.04,0.55,8.12,8.22,36.94,7.76,1248,1318,1326,1316,1306,1501,1518,0,735
73991,0,-9.28,-0.77,0.07,0.138,-0.021,0.915,0.00,0.00,0.00,0.00,9.28,0.77,-0.03,0.55,8.19,8.79,2.52,8.02,1248,1318,1326,1316,1306,1501,1518,0,735
74003,0,-8.14,15.69,0.18,-0.074,-0.056,1.008,0.00,0.00,0.00,0.00,8.14,-15.69,-0.01,0.51,8.28,5.11,-18.39,7.82,1248,1318,1326,1316,1308,1501,1518,0,735
74015,0,-6.14,20.88,0.13,-0.338,-0.105,1.146,0.00,0.00,0.00,0.00,6.14,-20.88,0.01,0.46,8.38,-6.43,-17.05,8.04,1248,1318,1326,1316,1308,1501,1518,0,735
74027,0,-5.78,10.52,-0.81,-0.514,-0.130,1.271,0.00,0.00,0.00,0.00,5.78,-10.52,0.03,0.42,8.50,-11.92,10.09,10.53,1262,1394,1268,1308,1308,1501,1518,0,737
74039,0,-2.24,-8.69,-2.08,-0.497,-0.095,1.304,0.00,0.00,0.00,0.00,2.24,8.69,0.05,0.43,8.65,-28.06,34.36,13.85,1262,1394,1268,1308,1308,1501,1518,0,737
74051,0,-1.43,-27.42,-3.76,-0.269,-0.051,1.215,0.00,0.00,0.00,0.00,1.43,27.42,0.07,0.49,8.84,-32.50,34.52,18.23,1262,1394,1268,1308,1308,1501,1518,0,737
74063,0,0.77,-34.73,-4.70,0.044,0.004,1.041,0.00,0.00,0.00,0.00,-0.77,34.73,0.09,0.57,9.04,-41.11,16.11,20.78,1262,1394,1268,1308,1323,1501,1518,0,737
74075,0,1.43,-31.77,-5.57,0.274,0.029,0.876,0.00,0.00,0.00,0.00,-1.43,31.77,0.11,0.66,9.24,-43.83,-10.18,23.17,1262,1394,1268,1308,1325,1501,1518,0,737
74087,0,1.75,-17.68,-5.75,0.346,0.012,0.821,0.00,0.00,0.00,0.00,-1.75,17.68,0.12,0.72,9.41,-42.69,-43.70,23.78,1262,1394,1268,1308,1325,1501,1518,0,737
74099,0,3.14,-1.31,-5.88,0.277,-0.025,0.814,0.00,0.00,0.00,0.00,-3.14,1.31,0.14,0.75,9.57,-43.20,-68.78,24.27,1262,1394,1268,1308,1326,1501,1518,0,737
74111,0,5.09,11.91,-6.64,0.140,-0.064,0.866,0.00,0.00,0.00,0.00,-5.09,-11.91,0.15,0.76,9.73,-44.27,-87.87,26.34,1262,1394,1268,1308,1326,1501,1518,0,737
74123,0,5.24,15.87,-8.72,0.058,-0.060,0.933,0.00,0.00,0.00,0.00,-5.24,-15.87,0.16,0.76,9.92,-32.35,-80.63,31.72,1361,1307,1385,1251,1326,1501,1518,0,734
74135,0,5.58,31.29,-9.17,-0.026,-0.047,0.981,0.00,0.00,0.00,0.00,-5.58,-31.29,0.15,0.74,10.14,-14.45,-110.00,33.05,1361,1307,1385,1251,1326,1501,1518,0,734
74147,0,3.31,40.68,-9.17,-0.155,-0.041,1.091,0.00,0.00,0.00,0.00,-3.31,-40.68,0.14,0.70,10.36,5.50,-110.00,33.28,1361,1307,1385,1251,1326,1501,1518,0,734
74159,0,0.79,34.54,-8.17,-0.307,0.015,1.237,0.00,0.00,0.00,0.00,-0.79,-34.54,0.13,0.64,10.61,18.30,-64.52,31.03,1361,1307,1385,1251,1329,1500,1518,0,734
74171,0,-0.75,13.24,-6.81,-0.283,0.128,1.271,0.00,0.00,0.00,0.00,0.75,-13.24,0.13,0.63,10.87,25.72,-16.23,27.90,1361,1307,1385,1251,1329,1500,1518,0,734
74183,0,-10.46,-8.88,-2.91,-0.124,0.122,1.124,0.00,0.00,0.00,0.00,10.46,8.88,0.13,0.68,11.09,56.40,3.81,18.38,1361,1307,1385,1251,1325,1505,1514,0,734
74195,0,-17.73,-22.20,-2.55,0.093,-0.047,0.986,0.00,0.00,0.00,0.00,17.73,22.20,0.14,0.74,11.26,72.94,13.75,17.64,1361,1307,1385,1251,1325,1501,1519,0,734
74207,0,-17.54,-9.21,-9.72,0.126,-0.103,0.951,0.00,0.00,0.00,0.00,17.54,9.21,0.14,0.77,11.54,70.64,-10.42,35.85,1361,1307,1385,1251,1325,1501,1519,0,734
74219,0,-13.87,7.07,-14.29,-0.201,-0.065,1.092,0.00,0.00,0.00,0.00,13.87,-7.07,0.14,0.74,11.91,60.92,1.23,47.63,1220,1312,1434,1338,1326,1500,1518,0,734
74231,0,-8.79,-9.63,-15.85,-0.383,-0.071,1.202,0.00,0.00,0.00,0.00,8.79,9.63,0.14,0.73,12.27,38.53,72.94,51.90,1220,1312,1434,1338,1326,1500,1518,0,734
74243,0,-3.09,-41.01,-13.74,-0.134,-0.085,1.046,0.00,0.00,0.00,0.00,3.09,41.01,0.13,0.80,12.59,18.52,98.71,46.94,1220,1312,1434,1338,1325,1502,1518,0,734
74255,0,-4.06,-51.03,-8.44,0.167,-0.185,0.858,0.00,0.00,0.00,0.00,4.06,51.03,0.12,0.90,12.79,29.24,76.75,33.88,1220,1312,1434,1338,1326,1501,1518,0,734
74267,0,-4.60,-36.65,-9.16,0.351,-0.242,0.896,0.00,0.00,0.00,0.00,4.60,36.65,0.11,0.96,12.99,34.55,46.17,35.90,1220,1312,1434,1338,1326,1501,1518,0,734
74279,0,-2.18,-0.68,-9.71,0.046,-0.112,1.075,0.00,0.00,0.00,0.00,2.18,0.68,0.09,0.96,13.34,27.30,-10.90,37.62,1220,1312,1434,1338,1326,1501,1518,0,734
74291,0,-1.54,-32.51,-5.59,-0.120,-0.149,1.102,0.00,0.00,0.00,0.00,1.54,32.51,0.08,0.96,13.69,12.29,110.00,27.67,1220,1312,1434,1338,1326,1501,1518,0,734
74303,0,6.54,-63.71,-7.03,0.194,-0.228,0.931,0.00,0.00,0.00,0.00,-6.54,63.71,0.08,1.04,14.01,-35.40,110.00,31.59,1220,1312,1434,1338,1325,1501,1518,0,734
74315,0,17.19,-39.33,-9.91,0.406,-0.262,0.795,0.00,0.00,0.00,0.00,-17.19,39.33,0.07,1.13,14.27,-78.60,21.39,39.05,1220,1312,1434,1338,1325,1501,1518,0,734
74327,0,20.02,6.55,-16.04,0.266,-0.227,0.875,0.00,0.00,0.00,0.00,-20.02,-6.55,0.07,1.17,14.57,-91.00,-110.00,54.67,1258,1400,1326,1316,1325,1501,1518,0,734
74339,0,20.10,27.65,-19.03,-0.157,-0.058,1.108,0.00,0.00,0.00,0.00,-20.10,-27.65,0.07,1.13,15.02,-87.20,-103.80,62.60,1258,1400,1326,1316,1333,1501,1518,0,734
74351,0,18.59,-4.86,-13.70,-0.301,0.022,1.216,0.00,0.00,0.00,0.00,-18.59,4.86,0.06,1.12,15.43,-70.63,44.69,49.69,1258,1400,1326,1316,1333,1501,1518,0,734
74363,0,19.86,-36.36,-8.83,-0.040,-0.005,1.118,0.00,0.00,0.00,0.00,-19.86,36.36,0.05,1.19,15.76,-65.29,78.22,37.84,1258,1400,1326,1316,1333,1501,1518,0,734
74375,0,26.61,-46.72,-1.68,0.260,-0.027,0.866,0.00,0.00,0.00,0.00,-26.61,46.72,0.02,1.31,15.99,-80.58,31.33,20.18,1258,1400,1326,1316,1335,1501,1518,0,734
74387,0,28.78,-59.81,2.14,0.557,-0.224,0.651,0.00,0.00,0.00,0.00,-28.78,59.81,-0.00,1.46,16.10,-85.05,23.41,10.74,1258,1400,1326,1316,1335,1501,1518,0,734
74399,128,42.36,-43.13,-3.38,0.710,-0.266,0.600,0.00,0.00,0.00,0.00,-42.36,43.13,-0.05,1.57,16.28,-110.00,-16.06,24.72,1258,1400,1326,1316,1336,1501,1518,0,734
74411,128,53.16,-22.53,-7.39,0.632,-0.278,0.718,0.00,0.00,0.00,0.00,-53.16,22.53,-0.11,1.63,16.48,-110.00,-35.98,34.97,1258,1400,1326,1316,1336,1501,1518,0,734
74423,128,60.62,-16.00,-12.49,0.549,-0.173,0.844,0.00,0.00,0.00,0.00,-60.62,16.00,-0.19,1.69,16.74,-110.00,-43.83,47.97,1320,1242,1494,1288,1336,1507,1507,0,758
74435,128,56.65,-11.25,-6.86,0.430,-0.147,0.877,0.00,0.00,0.00,0.00,-56.65,11.25,-0.26,1.72,16.94,-110.00,-17.76,34.08,1320,1242,1494,1288,1336,1501,1518,0,758
74447,0,50.70,-27.14,-2.38,0.424,-0.152,0.808,0.00,0.00,0.00,0.00,-50.70,27.14,-0.34,1.77,17.09,-97.55,50.07,23.05,1320,1242,1494,1288,1336,1501,1518,0,758
74459,0,37.28,-23.21,-0.67,0.294,-0.124,0.795,0.00,0.00,0.00,0.00,-37.28,23.21,-0.41,1.83,17.25,-46.88,8.41,18.92,1320,1242,1494,1288,1335,1501,1518,0,758
74471,0,34.00,-28.31,-3.70,0.203,-0.192,0.836,0.00,0.00,0.00,0.00,-34.00,28.31,-0.48,1.88,17.49,-32.29,45.44,26.75,1320,1242,1494,1288,1335,1501,1518,0,758
74483,0,37.87,-28.35,-7.43,0.299,-0.265,0.747,0.00,0.00,0.00,0.00,-37.87,28.35,-0.56,1.93,17.79,-45.90,42.96,36.36,1320,1242,1494,1288,1336,1501,1518,0,758
74495,0,42.16,-7.76,-13.29,0.277,-0.327,0.855,0.00,0.00,0.00,0.00,-42.16,7.76,-0.63,1.96,18.08,-76.56,-26.04,51.30,1320,1242,1494,1288,1336,1501,1518,0,758
74507,0,43.48,11.30,-19.71,0.063,-0.165,1.036,0.00,0.00,0.00,0.00,-43.48,-11.30,-0.70,1.94,18.50,-85.13,-56.61,67.77,1320,1242,1494,1288,1336,1501,1518,0,758
74519,0,37.00,10.41,-16.87,-0.294,-0.045,1.229,0.00,0.00,0.00,0.00,-37.00,-10.41,-0.76,1.91,18.93,-67.23,-3.38,61.11,1339,1467,1327,1211,1336,1501,1518,0,732
74531,0,34.49,-29.53,-12.28,-0.199,-0.007,1.233,0.00,0.00,0.00,0.00,-34.49,29.53,-0.81,1.93,19.33,-69.92,105.12,50.04,1339,1467,1327,1211,1336,1501,1518,0,732
74543,0,31.94,-49.51,-4.29,0.110,0.014,1.014,0.00,0.00,0.00,0.00,-31.94,49.51,-0.85,2.05,19.63,-70.90,57.51,30.35,1339,1467,1327,1211,1335,1501,1519,0,732
74555,0,26.37,-49.88,-3.71,0.453,-0.131,0.809,0.00,0.00,0.00,0.00,-26.37,49.88,-0.88,2.18,19.86,-62.06,-0.69,29.13,1339,1467,1327,1211,1336,1501,1518,0,732
74567,0,31.91,-13.29,-12.66,0.454,-0.096,0.766,0.00,0.00,0.00,0.00,-31.91,13.29,-0.92,2.24,20.26,-83.16,-73.49,51.91,1339,1467,1327,1211,1336,1501,1518,0,732
74579,0,36.03,20.09,-18.47,-0.048,0.008,0.994,0.00,0.00,0.00,0.00,-36.03,-20.09,-0.95,2.21,20.77,-97.96,-95.27,66.94,1339,1467,1327,1211,1337,1501,1518,0,732
74591,128,38.71,5.28,-21.94,-0.298,0.092,1.211,0.00,0.00,0.00,0.00,-38.71,-5.28,-0.98,2.22,21.28,-110.00,-32.06,76.14,1339,1467,1327,1211,1337,1501,1518,0,732
74603,0,26.86,-24.96,-12.45,-0.010,0.201,1.027,0.00,0.00,0.00,0.00,-26.86,24.96,-1.03,2.28,21.69,-37.17,33.93,52.81,1339,1467,1327,1211,1337,1502,1517,0,732
74615,0,27.37,-6.04,-8.88,0.178,0.091,0.935,0.00,0.00,0.00,0.00,-27.37,6.04,-1.06,2.34,21.96,-42.81,-68.71,44.16,1339,1467,1327,1211,1336,1505,1514,0,732
74627,0,21.87,16.61,-4.26,-0.008,0.111,0.947,0.00,0.00,0.00,0.00,-21.87,-16.61,-1.10,2.36,22.26,-16.45,-98.93,32.92,1275,1227,1500,1305,1336,1505,1514,0,1005
74639,0,16.38,14.23,-7.17,-0.202,0.033,1.079,0.00,0.00,-21.20,0.00,-37.58,-14.23,-1.18,2.34,22.58,-1.99,-44.03,40.51,1275,1227,1500,1305,1335,1394,1518,0,1005
74651,0,25.86,28.32,-12.67,-0.560,0.166,1.219,0.00,0.00,-21.20,0.00,-47.06,-28.32,-1.28,2.30,23.01,-29.61,-52.96,54.69,1275,1227,1500,1305,1335,1394,1518,0,1005
74663,0,31.28,28.36,-17.03,-0.826,0.258,1.469,0.00,0.00,0.00,0.00,-31.28,-28.36,-1.32,2.27,23.41,-53.04,-73.27,65.99,1275,1227,1500,1305,1336,1501,1518,0,1005
74675,0,25.31,-20.91,-17.71,-0.814,0.310,1.432,0.00,0.00,0.00,0.00,-25.31,20.91,-1.35,2.33,23.83,-37.10,28.80,68.12,1275,1227,1500,1305,1335,1501,1518,0,1005
74687,0,20.81,-69.10,-10.62,-0.494,0.232,1.223,0.00,0.00,0.00,0.00,-20.81,69.10,-1.38,2.45,24.14,-21.72,110.00,50.68,1275,1227,1500,1305,1335,1501,1518,0,1005
74699,0,22.90,-65.47,-5.74,-0.315,0.082,1.094,0.00,0.00,0.00,0.00,-22.90,65.47,-1.41,2.61,24.37,-42.22,48.48,38.72,1275,1227,1500,1305,1337,1501,1517,0,1005
74711,0,28.87,-55.69,-5.19,-0.256,-0.086,0.997,0.00,0.00,0.00,0.00,-28.87,55.69,-1.45,2.76,24.65,-70.52,-3.66,37.63,1275,1227,1500,1305,1337,1501,1517,0,1005
74723,0,33.59,-48.46,-6.12,-0.155,-0.206,0.909,0.00,0.00,0.00,0.00,-33.59,48.46,-1.49,2.87,24.98,-83.91,4.87,40.28,1280,1276,1500,1280,1335,1503,1516,0,734
74735,128,42.99,-39.64,-10.51,-0.063,-0.229,0.967,0.00,0.00,0.00,0.00,-42.99,39.64,-1.54,2.99,25.32,-110.00,-32.31,51.60,1280,1276,1500,1280,1335,1501,1517,0,734
74747,128,47.31,-31.06,-12.36,0.043,-0.139,0.982,0.00,0.00,0.00,0.00,-47.31,31.06,-1.59,3.12,25.69,-110.00,-81.97,56.60,1280,1276,1500,1280,1335,1501,1517,0,734
74759,128,45.26,-13.66,-11.73,-0.043,-0.051,1.048,0.00,0.00,0.00,0.00,-45.26,13.66,-1.64,3.22,26.03,-110.00,-110.00,55.37,1280,1276,1500,1280,1335,1500,1515,0,734
74771,0,36.72,-34.98,-10.98,-0.084,-0.042,1.045,0.00,0.00,0.00,0.00,-36.72,34.98,-1.68,3.30,26.41,-85.74,15.06,53.86,1280,1276,1500,1280,1335,1500,1515,0,734
74783,0,31.52,-43.69,-10.67,-0.014,-0.098,1.018,0.00,0.00,0.00,0.00,-31.52,43.69,-1.73,3.38,26.77,-62.26,64.49,53.46,1280,1276,1500,1280,1335,1501,1512,0,734
74795,0,35.98,-34.16,-4.58,-0.064,-0.121,0.962,0.00,0.00,0.00,0.00,-35.98,34.16,-1.78,3.47,27.08,-76.70,16.89,38.52,1280,1276,1500,1280,1335,1501,1511,0,734
74807,0,35.10,-50.07,-2.08,0.213,-0.295,0.800,0.00,0.00,0.00,0.00,-35.10,50.07,-1.83,3.58,27.31,-73.54,37.51,32.51,1280,1276,1500,1280,1335,1501,1511,0,734
74819,0,46.89,-42.18,-6.11,0.580,-0.329,0.614,0.00,0.00,0.00,0.00,-46.89,42.18,-1.91,3.68,27.57,-102.07,12.04,42.85,1407,1467,1287,1179,1335,1502,1512,0,735
74831,128,55.59,12.76,-12.97,0.499,-0.320,0.728,0.00,0.00,0.00,0.00,-55.59,-12.76,-1.98,3.69,27.88,-110.00,-110.00,60.30,1407,1467,1287,1179,1335,1502,1512,0,735
74843,128,59.54,44.31,-21.59,0.153,-0.159,0.965,0.00,0.00,0.00,0.00,-59.54,-44.31,-2.07,3.64,28.33,-110.00,-110.00,82.31,1407,1467,1287,1179,1338,1502,1512,0,735
74855,128,55.26,46.93,-17.08,-0.177,-0.031,1.130,0.00,0.00,0.00,0.00,-55.26,-46.93,-2.16,3.55,28.78,-109.48,-90.02,71.49,1407,1467,1287,1179,1335,1504,1513,0,735
74867,0,50.94,21.38,-11.23,-0.142,0.056,1.170,0.00,0.00,0.00,0.00,-50.94,-21.38,-2.24,3.48,29.15,-86.97,3.93,57.23,1407,1467,1287,1179,1335,1504,1513,0,735
74879,0,40.66,32.57,-8.70,-0.156,0.098,1.192,0.00,0.00,0.00,0.00,-40.66,-32.57,-2.32,3.42,29.48,-48.89,-47.65,51.24,1407,1467,1287,1179,1335,1516,1512,0,735
74891,0,33.58,24.37,-9.15,-0.184,0.085,1.127,0.00,0.00,0.00,0.00,-33.58,-24.37,-2.37,3.36,29.82,-39.15,-2.53,52.69,1407,1467,1287,1179,1335,1516,1512,0,735
74903,0,30.19,15.57,-12.63,-0.173,0.024,1.122,0.00,0.00,0.00,0.00,-30.19,-15.57,-2.42,3.31,30.14,-52.32,13.11,61.72,1407,1467,1287,1179,1335,1516,1498,0,735
74915,0,19.79,-13.13,-12.91,0.089,0.027,0.942,0.00,0.00,14.20,-5.60,-5.59,7.53,-2.44,3.34,30.43,-18.09,35.61,62.70,1407,1467,1287,1179,1334,1571,1472,0,735
74927,0,11.65,0.30,-10.21,0.360,-0.046,0.815,0.00,0.00,14.20,-5.60,2.55,-5.90,-2.43,3.34,30.63,3.26,-32.01,56.16,1264,1254,1490,1328,1334,1571,1472,0,794
74939,0,8.40,48.02,-11.20,0.061,-0.051,0.948,0.00,0.00,18.40,0.00,10.00,-48.02,-2.40,3.28,30.93,-0.65,-110.00,58.93,1264,1254,1490,1328,1334,1592,1495,0,794
74951,0,5.86,31.19,-10.78,-0.192,-0.068,1.054,0.00,0.00,18.40,0.00,12.54,-31.19,-2.35,3.22,31.34,-11.95,-26.17,58.28,1264,1254,1490,1328,1334,1592,1495,0,794
74963,0,6.95,12.81,-11.91,-0.093,-0.043,1.108,0.00,0.00,20.60,0.00,13.65,-12.81,-2.29,3.20,31.71,-29.07,-4.81,61.49,1264,1254,1490,1328,1335,1603,1495,0,794
74975,0,0.23,3.11,-9.89,0.184,0.004,0.973,0.00,0.00,21.20,0.00,20.97,-3.11,-2.23,3.24,31.98,-3.37,-52.52,56.72,1264,1254,1490,1328,1336,1606,1495,0,794
74987,0,-5.21,4.17,-12.28,0.420,0.054,0.861,0.00,0.00,21.20,0.00,26.41,-4.17,-2.17,3.28,32.28,17.07,-56.00,62.99,1264,1254,1490,1328,1336,1606,1495,0,794
74999,0,-9.51,25.59,-12.85,0.325,0.012,0.911,0.00,0.00,22.00,0.00,31.51,-25.59,-2.10,3.26,32.60,34.42,-87.26,64.72,1264,1254,1490,1328,1335,1610,1497,0,794
75011,0,-6.90,33.48,-12.06,0.126,-0.063,1.010,0.00,0.00,22.00,0.00,28.90,-33.48,-2.03,3.20,32.95,25.30,-57.74,63.11,1264,1254,1490,1328,1335,1610,1497,0,794
75023,0,1.40,22.50,-10.48,0.190,-0.081,0.973,0.00,0.00,22.20,0.00,20.80,-22.50,-1.98,3.15,33.29,-2.87,-4.35,59.49,1291,1405,1385,1259,1335,1611,1496,0,738
75035,0,5.64,34.15,-11.07,0.302,-0.034,0.992,0.00,0.00,20.60,0.00,14.96,-34.15,-1.93,3.12,33.57,-13.68,-88.52,61.24,1291,1405,1385,1259,1335,1603,1495,0,738
75047,0,-0.81,28.38,-9.96,0.368,0.012,0.952,0.00,0.00,20.60,0.00,21.41,-28.38,-1.88,3.10,33.81,17.87,-71.99,58.70,1291,1405,1385,1259,1335,1603,1495,0,738
75059,0,-6.92,50.64,-11.35,0.247,0.052,1.023,0.00,0.00,20.80,0.00,27.72,-50.64,-1.83,3.01,34.09,43.18,-86.37,62.46,1291,1405,1385,1259,1335,1604,1499,0,738
75071,0,-8.68,43.24,-10.48,0.063,-0.017,1.090,0.00,0.00,20.80,0.00,29.48,-43.24,-1.77,2.94,34.38,44.79,-47.63,60.58,1291,1405,1385,1259,1335,1604,1499,0,738
75083,0,-0.22,38.87,-10.06,0.023,0.007,1.160,0.00,0.00,21.20,0.00,21.42,-38.87,-1.72,2.86,34.68,3.78,-35.28,59.83,1291,1405,1385,1259,1334,1606,1499,0,738
75095,0,-5.00,37.49,-9.48,0.012,0.101,1.188,0.00,0.00,24.80,0.00,29.80,-37.49,-1.65,2.82,34.95,15.60,-84.27,58.65,1291,1405,1385,1259,1335,1624,1498,0,738
75107,0,-12.89,32.26,-10.51,0.106,0.090,1.132,0.00,0.00,24.80,0.00,37.69,-32.26,-1.57,2.75,35.21,50.22,-14.38,61.48,1291,1405,1385,1259,1335,1624,1498,0,738
75119,0,-10.07,39.13,-10.85,-0.073,0.129,1.244,0.00,0.00,27.40,0.00,37.47,-39.13,-1.49,2.69,35.52,31.67,-53.32,62.66,1190,1420,1376,1358,1336,1637,1497,0,775
75131,0,-12.17,4.03,-10.99,0.118,0.074,1.014,0.00,0.00,27.40,0.00,39.57,-4.03,-1.40,2.66,35.84,37.19,51.17,63.31,1190,1420,1376,1358,1336,1637,1497,0,775
75143,0,-7.28,14.51,-13.42,0.171,0.032,0.990,0.00,0.00,27.20,0.00,34.48,-14.51,-1.32,2.65,36.13,16.64,-24.95,69.68,1190,1420,1376,1358,1335,1636,1494,0,775
75155,0,-6.83,18.46,-11.02,0.049,0.059,1.011,0.00,0.00,26.00,0.00,32.83,-18.46,-1.23,2.65,36.41,9.73,-69.91,63.96,1190,1420,1376,1358,1335,1630,1498,0,775
75167,0,-4.90,-3.73,-8.67,0.168,0.100,0.957,0.00,0.00,26.00,0.00,30.90,3.73,-1.15,2.65,36.72,5.08,22.50,58.39,1190,1420,1376,1358,1335,1630,1498,0,775
75179,0,-1.49,-21.65,-2.54,0.388,0.065,0.862,0.00,0.00,26.20,0.00,27.69,21.65,-1.06,2.69,36.93,-10.37,43.91,43.27,1190,1420,1376,1358,1335,1631,1498,0,775
75191,0,7.58,-32.41,-1.94,0.581,-0.070,0.710,0.00,0.00,26.20,0.00,18.62,32.41,-0.99,2.77,37.08,-43.10,25.61,41.92,1190,1420,1376,1358,1335,1631,1498,0,775
75203,0,22.79,-10.89,-6.47,0.616,-0.106,0.644,0.00,0.00,23.60,0.00,0.81,10.89,-0.93,2.79,37.29,-96.80,-11.21,53.45,1190,1420,1376,1358,1335,1618,1506,0,775
75215,128,36.19,2.44,-12.02,0.546,-0.129,0.801,0.00,0.00,23.60,0.00,-12.59,-2.44,-0.90,2.74,37.55,-110.00,33.36,67.61,1190,1420,1376,1358,1335,1618,1508,0,775
75227,128,48.78,16.41,-6.94,0.415,-0.090,0.839,0.00,0.00,23.60,0.00,-25.18,-16.41,-0.87,2.71,37.77,-110.00,-19.51,55.12,1214,1384,1396,1346,1335,1618,1508,0,736
75239,0,32.77,-1.93,-2.36,0.501,-0.022,0.835,0.00,0.00,17.80,0.00,-14.97,1.93,-0.86,2.69,37.92,-86.80,48.11,43.83,1214,1384,1396,1346,1335,1589,1509,0,736
75251,0,37.87,11.76,-0.80,0.430,-0.033,0.761,0.00,0.00,17.80,0.00,-20.07,-11.76,-0.85,2.65,38.09,-98.30,16.28,40.09,1214,1384,1396,1346,1335,1589,1509,0,736
75263,0,27.35,17.32,-2.13,0.297,-0.184,0.815,0.00,0.00,8.60,0.00,-18.75,-17.32,-0.88,2.60,38.23,-41.42,11.37,43.54,1214,1384,1396,1346,1334,1543,1511,0,736
75275,0,29.95,20.26,-1.71,0.098,-0.206,0.749,0.00,0.00,0.00,0.00,-29.95,-20.26,-0.92,2.52,38.39,-39.91,35.73,42.68,1214,1384,1396,1346,1334,1501,1518,0,736
75287,0,27.24,33.76,-6.87,-0.092,-0.139,0.910,0.00,0.00,0.00,0.00,-27.24,-33.76,-0.98,2.41,38.56,-28.63,26.25,55.72,1214,1384,1396,1346,1334,1501,1518,0,736
75299,0,18.92,8.50,-6.52,-0.235,-0.015,1.005,0.00,0.00,0.00,0.00,-18.92,-8.50,-1.04,2.33,38.70,11.18,97.51,55.00,1214,1384,1396,1346,1335,1501,1518,0,736
75311,0,9.32,-19.21,-6.03,-0.104,0.049,0.995,0.00,0.00,0.00,0.00,-9.32,19.21,-1.10,2.29,38.82,44.42,110.00,53.90,1214,1384,1396,1346,1335,1501,1518,0,736
75323,0,0.17,-14.84,-1.49,0.009,0.046,0.936,0.00,0.00,0.00,0.00,-0.17,14.84,-1.14,2.30,38.88,65.84,70.36,42.61,1244,1364,1406,1326,1335,1501,1518,0,732
75335,0,-4.92,-26.93,-3.59,0.350,-0.066,0.718,0.00,0.00,0.00,0.00,4.92,26.93,-1.18,2.32,38.95,79.45,102.49,47.92,1244,1364,1406,1326,1335,1500,1518,0,732
75347,0,3.62,34.87,-5.57,0.137,0.024,0.945,0.00,0.00,0.00,0.00,-3.62,-34.87,-1.21,2.31,39.05,33.61,-110.00,52.97,1244,1364,1406,1326,1335,1500,1518,0,732
75359,0,4.10,19.72,-3.37,0.090,0.154,0.899,0.00,0.00,0.00,29.80,-4.10,10.08,-1.24,2.35,39.19,21.07,-55.54,47.61,1244,1364,1406,1326,1201,1504,1649,0,732
75371,0,-4.16,24.47,-4.28,0.137,0.180,0.917,0.00,0.00,0.00,29.80,4.16,5.33,-1.25,2.38,39.35,56.18,-20.58,50.05,1244,1364,1406,1326,1201,1504,1649,0,732
75383,0,-6.29,45.71,-4.79,0.017,0.123,1.031,0.00,0.00,0.00,0.00,6.29,-45.71,-1.27,2.31,39.51,59.27,-86.06,51.49,1244,1364,1406,1326,1336,1500,1518,0,732
75395,0,-4.92,35.61,-6.54,0.014,0.172,1.010,0.00,0.00,0.00,0.00,4.92,-35.61,-1.28,2.27,39.75,50.17,-54.17,56.09,1244,1364,1406,1326,1334,1501,1518,0,732
75407,0,-7.75,12.13,-8.47,0.196,0.159,0.833,0.00,0.00,0.00,0.00,7.75,-12.13,-1.29,2.23,39.98,61.34,27.57,61.17,1244,1364,1406,1326,1334,1501,1518,0,732
75419,0,-6.26,8.94,-9.46,0.368,0.115,0.691,0.00,0.00,0.00,0.00,6.26,-8.94,-1.30,2.22,40.16,52.45,1.23,63.80,1221,1345,1451,1323,1335,1501,1518,0,730
75431,0,-3.44,16.04,-4.76,0.528,0.065,0.601,0.00,0.00,0.00,0.00,3.44,-16.04,-1.30,2.25,40.24,38.05,-94.51,52.15,1221,1345,1451,1323,1335,1501,1518,0,730
75443,0,8.60,30.63,0.27,0.294,0.021,0.684,0.00,0.00,0.00,0.00,-8.60,-30.63,-1.31,2.28,40.25,-22.44,-110.00,39.57,1221,1345,1451,1323,1335,1501,1518,0,730
75455,0,24.69,36.31,-0.22,0.190,0.012,0.789,0.00,0.00,0.00,0.00,-24.69,-36.31,-1.32,2.23,40.37,-80.89,-99.40,40.92,1221,1345,1451,1323,1335,1501,1518,0,730
75467,0,13.25,14.68,1.30,0.100,-0.017,0.873,0.00,0.00,0.00,0.00,-13.25,-14.68,-1.34,2.18,40.47,-18.28,24.84,37.21,1221,1345,1451,1323,1335,1501,1518,0,730
75479,0,12.29,11.45,-0.38,-0.127,-0.000,1.145,0.00,0.00,0.00,0.00,-12.29,-11.45,-1.38,2.15,40.52,1.72,10.22,41.46,1221,1345,1451,1323,1335,1501,1518,0,730
75491,0,27.28,35.43,0.75,-0.274,0.158,1.310,0.00,0.00,0.00,0.00,-27.28,-35.43,-1.43,2.13,40.59,-35.80,-104.52,38.71,1221,1345,1451,1323,1335,1501,1518,0,730
75503,0,38.60,-31.15,5.93,0.276,-0.011,0.786,0.00,0.00,0.00,0.00,-38.60,31.15,-1.48,2.23,40.87,-80.81,32.11,73.74,1221,1345,1451,1323,1335,1501,1518,0,730
75515,0,25.84,20.92,-0.44,0.012,0.105,0.951,0.00,0.00,0.00,0.00,-25.84,-20.92,-1.53,2.33,41.28,-39.13,-110.00,90.08,1221,1345,1451,1323,1335,1501,1518,0,730
75527,0,0.66,-108.01,4.84,0.222,0.054,0.643,0.00,0.00,0.00,0.00,-0.66,108.01,-1.59,2.47,41.65,103.42,110.00,77.24,1241,1500,1209,1301,1335,1501,1518,0,734
75539,0,16.49,-9.91,5.41,-0.282,0.076,1.192,0.00,0.00,0.00,0.00,-16.49,9.91,-1.66,2.46,42.14,31.28,-8.87,110.00,1241,1500,1209,1301,1333,1500,1519,0,734
75551,0,21.70,-93.24,15.30,-0.219,-0.099,0.945,0.00,0.00,0.00,0.00,-21.70,93.24,-1.73,2.63,42.91,10.70,110.00,91.96,1241,1500,1209,1301,1333,1500,1519,0,734
75563,0,38.84,-71.63,12.90,-0.227,0.114,1.046,0.00,0.00,0.00,5.80,-38.84,77.43,-1.80,2.77,43.63,-60.99,87.21,93.28,1241,1500,1209,1301,1321,1501,1529,0,734
75575,0,30.55,-97.31,11.91,-0.358,0.179,1.181,0.00,0.00,0.00,0.00,-30.55,97.31,-1.86,3.06,44.23,-31.12,-10.02,96.35,1241,1500,1209,1301,1332,1501,1518,0,734
75587,0,20.12,-158.03,13.90,0.235,0.055,0.724,0.00,0.00,0.00,0.00,-20.12,158.03,-1.94,3.32,44.73,35.09,110.00,87.37,1241,1500,1209,1301,1332,1501,1518,0,734
75599,0,38.19,-41.13,18.43,-0.107,0.070,1.107,0.00,0.00,0.00,0.00,-38.19,41.13,-2.02,3.54,45.16,-35.52,-110.00,82.79,1241,1500,1209,1301,1332,1501,1518,0,734
75611,0,30.39,-79.02,21.32,-0.163,0.077,0.913,0.00,0.00,0.00,0.00,-30.39,79.02,-2.09,3.90,45.63,-12.48,-110.00,76.02,1241,1500,1209,1301,1332,1501,1518,0,734
75623,0,43.19,-145.96,18.31,0.378,-0.084,0.533,0.00,0.00,0.00,0.00,-43.19,145.96,-2.19,4.16,45.93,-34.17,110.00,73.94,1285,1495,1299,1249,1332,1501,1518,0,736
75635,128,57.82,-98.22,23.86,-0.138,0.147,0.850,0.00,0.00,0.00,0.00,-57.82,98.22,-2.28,4.43,46.13,-107.43,-2.47,60.29,1285,1495,1299,1249,1332,1501,1518,0,736
75647,0,38.81,-143.36,22.81,-0.232,0.126,0.989,0.00,0.00,0.00,0.00,-38.81,143.36,-2.38,4.74,46.28,-1.78,110.00,60.35,1285,1495,1299,1249,1332,1501,1518,0,736
75659,0,56.90,-92.72,25.79,-0.224,0.074,1.088,0.00,0.00,0.00,0.00,-56.90,92.72,-2.50,4.92,46.42,-64.25,42.36,53.95,1285,1495,1299,1249,1332,1501,1518,0,736
75671,0,30.69,-93.27,25.05,-0.323,0.028,0.985,0.00,0.00,0.00,0.00,-30.69,93.27,-2.59,5.25,46.50,21.30,-82.35,55.88,1285,1495,1299,1249,1332,1501,1518,0,736
75683,0,42.80,-130.50,24.72,-0.143,0.107,0.890,0.00,0.00,0.00,0.00,-42.80,130.50,-2.70,5.46,46.61,-12.13,110.00,56.80,1285,1495,1299,1249,1332,1501,1518,0,736
75695,0,48.38,-117.98,29.75,-0.225,0.217,1.093,0.00,0.00,0.00,0.00,-48.38,117.98,-2.80,5.81,46.67,-57.90,-25.87,44.30,1285,1495,1299,1249,1331,1501,1519,0,736
75707,0,31.47,-143.85,26.43,0.496,-0.057,0.700,0.00,0.00,0.00,0.00,-31.47,143.85,-2.88,6.10,46.73,12.81,110.00,53.56,1285,1495,1299,1249,1331,1501,1519,0,736
75719,0,20.34,-48.74,29.06,-0.130,0.155,0.890,0.00,0.00,0.00,0.00,-20.34,48.74,-2.94,6.40,46.78,21.08,-110.00,47.03,1155,1469,1291,1417,1333,1501,1518,0,737
75731,0,6.71,-205.02,23.49,0.380,-0.027,0.363,0.00,0.00,0.00,0.00,-6.71,205.02,-3.00,6.72,46.87,67.29,110.00,61.06,1155,1469,1291,1417,1333,1501,1518,0,737
75743,0,25.68,-75.46,22.78,-0.298,0.045,1.040,0.00,0.00,0.00,0.00,-25.68,75.46,-3.05,6.91,46.93,-29.60,-37.21,62.89,1155,1469,1291,1417,1333,1501,1518,0,737
75755,0,18.23,-96.49,28.84,-0.190,0.061,0.959,0.00,0.00,0.00,0.00,-18.23,96.49,-3.07,7.21,47.05,-32.66,-66.26,47.84,1155,1469,1291,1417,1333,1500,1518,0,737
75767,0,15.74,-54.09,23.96,-0.070,0.032,1.077,0.00,0.00,0.00,0.00,-15.74,54.09,-3.09,7.40,47.27,-29.85,-110.00,65.66,1155,1469,1291,1417,1333,1500,1518,0,737
75779,0,13.96,-66.37,29.49,-0.094,-0.060,0.915,0.00,0.00,0.00,0.00,-13.96,66.37,-3.10,7.63,47.48,-42.29,-57.96,64.65,1155,1469,1291,1417,1333,1500,1519,0,737
75791,0,-1.30,-145.10,24.58,0.186,-0.150,0.551,0.00,0.00,0.00,0.00,1.30,145.10,-3.10,7.88,47.87,-1.19,110.00,77.31,1155,1469,1291,1417,1333,1500,1519,0,737
75803,0,-0.10,-128.55,19.44,0.211,-0.154,0.689,0.00,0.00,0.00,0.00,0.10,128.55,-3.10,8.03,48.29,-7.61,110.00,95.08,1155,1469,1291,1417,1333,1500,1519,0,737
75815,0,-9.19,-129.15,26.37,-0.147,-0.053,0.706,0.00,0.00,0.00,0.00,9.19,129.15,-3.09,8.30,48.64,11.77,110.00,78.13,1155,1469,1291,1417,1332,1501,1518,0,737
75827,0,-25.07,-117.01,25.27,-0.058,0.035,0.846,0.00,0.00,0.00,0.00,25.07,117.01,-3.06,8.46,49.42,60.93,110.00,110.00,1187,1500,1257,1271,1332,1501,1518,0,735
75839,0,-31.18,-74.68,27.37,-0.047,0.002,1.124,0.00,0.00,0.00,0.00,31.18,74.68,-3.04,8.67,50.27,81.92,-22.34,110.00,1187,1500,1257,1271,1332,1501,1518,0,735
75851,0,-27.60,-97.38,29.64,0.202,-0.018,0.860,0.00,0.00,0.00,0.00,27.60,97.38,-3.00,8.91,51.45,49.08,39.73,110.00,1187,1500,1257,1271,1332,1501,1518,0,735
75863,0,-30.48,-27.93,22.52,0.206,0.095,1.084,0.00,0.00,0.00,0.00,30.48,27.93,-2.95,9.07,52.63,44.70,-110.00,110.00,1187,1500,1257,1271,1314,1501,1518,0,735
75875,0,-32.96,-70.12,34.23,0.033,0.067,0.968,0.00,0.00,0.00,0.00,32.96,70.12,-2.90,9.29,53.65,60.41,-22.44,110.00,1187,1500,1257,1271,1304,1501,1518,0,735
75887,0,-34.80,3.91,34.24,-0.131,-0.033,1.192,0.00,0.00,0.00,0.00,34.80,-3.91,-2.86,9.35,54.75,78.05,-110.00,110.00,1187,1500,1257,1271,1304,1501,1518,0,735
75899,0,-37.08,-10.36,34.88,-0.087,0.002,1.064,0.00,0.00,0.00,0.00,37.08,10.36,-2.81,9.46,56.05,79.27,-110.00,110.00,1187,1500,1257,1271,1234,1501,1518,0,735
75911,0,-33.41,-13.76,33.37,0.089,-0.054,0.937,0.00,0.00,0.00,0.00,33.41,13.76,-2.77,9.49,57.41,76.21,7.82,110.00,1187,1500,1257,1271,1234,1501,1518,0,735
75923,0,-33.23,-42.99,34.21,0.175,0.122,0.826,0.00,0.00,0.00,0.00,33.23,42.99,-2.72,9.59,58.80,63.41,73.14,110.00,1115,1389,1259,1100,1214,1501,1518,0,736
75935,0,-28.86,-5.14,33.84,0.198,0.093,0.939,0.00,0.00,0.00,0.00,28.86,5.14,-2.67,9.58,60.13,43.84,13.41,110.00,1115,1389,1259,1100,1038,1501,1518,0,736
75947,0,-31.73,14.05,35.48,0.048,0.174,1.016,0.00,0.00,0.00,0.00,31.73,-14.05,-2.59,9.60,61.38,31.52,-92.57,110.00,1115,1389,1259,1100,1038,1501,1518,0,736
75959,0,-33.51,6.34,33.51,0.279,0.018,0.862,0.00,0.00,0.00,0.00,33.51,-6.34,-2.52,9.58,62.59,33.96,1.29,110.00,1115,1389,1259,1100,1038,1501,1518,0,736
75971,0,-25.45,41.05,37.08,0.017,0.155,0.907,0.00,0.00,0.00,0.00,25.45,-41.05,-2.43,9.57,63.71,-31.62,-110.00,110.00,1115,1389,1259,1100,1038,1501,1518,0,736
75983,0,-34.64,-10.85,36.74,0.076,0.210,0.853,0.00,0.00,0.00,0.00,34.64,10.85,-2.33,9.57,64.68,-12.12,77.20,110.00,1115,1389,1259,1100,1038,1501,1518,0,736
75995,0,-44.45,-13.92,36.85,0.249,0.064,0.851,0.00,0.00,0.00,0.00,44.45,13.92,-2.23,9.50,65.49,34.65,110.00,110.00,1115,1389,1259,1100,1038,1501,1518,0,736
76007,0,-51.27,24.37,36.14,0.056,0.089,0.944,0.00,0.00,0.00,0.00,51.27,-24.37,-2.11,9.46,66.26,43.66,-31.58,110.00,1115,1389,1259,1100,1038,1501,1518,0,736
76019,0,-53.71,-1.52,36.15,0.189,0.080,0.748,0.00,0.00,0.00,0.00,53.71,1.52,-1.99,9.46,66.75,38.30,49.10,67.29,1100,1100,1100,1100,1036,1500,1518,0,733
76031,0,-59.48,41.86,32.22,0.032,0.211,0.771,0.00,0.00,0.00,0.00,59.48,-41.86,-1.86,9.43,66.81,42.34,-110.00,77.16,1100,1100,1100,1100,1036,1500,1518,0,733
76043,0,-58.00,27.57,33.36,0.268,0.189,0.552,0.00,0.00,0.00,0.00,58.00,-27.57,-1.73,9.37,66.92,29.93,-30.17,73.51,1100,1100,1100,1100,1037,1501,1518,0,733
76055,0,-58.77,11.36,34.40,0.471,0.087,0.392,0.00,0.00,0.00,0.00,58.77,-11.36,-1.58,9.35,66.97,15.99,-11.41,70.96,1100,1100,1100,1100,1036,1501,1518,0,733
76067,0,-69.37,29.60,30.10,0.148,0.101,0.561,0.00,0.00,0.00,0.00,69.37,-29.60,-1.43,9.31,65.96,41.99,-77.48,-9.31,1100,1100,1100,1100,1036,1501,1518,0,733
76079,0,-76.70,21.92,29.02,0.228,0.047,0.461,0.00,0.00,0.00,0.00,76.70,-21.92,-1.27,9.22,65.07,75.56,38.39,15.93,1100,1100,1100,1100,1037,1501,1518,0,733
76091,0,-71.61,-10.03,34.77,0.409,-0.027,0.178,0.00,0.00,0.00,0.00,71.61,10.03,-1.11,9.18,64.35,51.91,110.00,0.82,1100,1100,1100,1100,1037,1501,1518,0,733
76103,0,-65.05,43.54,31.46,0.177,0.054,0.336,0.00,0.00,0.00,0.00,65.05,-43.54,-0.93,9.09,63.55,-1.12,-49.55,-15.10,1100,1100,1100,1100,1035,1501,1519,0,733
76115,0,-80.06,43.92,26.47,0.012,0.068,0.615,0.00,0.00,0.00,0.00,80.06,-43.92,-0.75,9.02,62.71,51.45,-70.83,-3.48,1100,1100,1100,1100,1037,1502,1517,0,733
76127,0,-81.73,67.42,25.88,-0.011,0.094,0.434,0.00,0.00,0.00,0.00,81.73,-67.42,-0.57,8.89,61.87,60.94,-97.86,-2.83,1100,1100,1100,1100,1037,1502,1517,0,729
76139,0,-84.94,59.93,25.77,-0.237,0.091,0.476,0.00,0.00,0.00,0.00,84.94,-59.93,-0.38,8.74,61.10,59.16,-14.38,-3.33,1100,1100,1100,1100,1037,1502,1517,0,729
76151,128,-251.28,366.43,63.78,0.114,0.562,2.105,0.00,0.00,0.00,0.00,251.28,-366.43,0.04,8.25,59.91,110.00,-110.00,-99.55,1100,1100,1100,1100,1037,1502,1517,0,729
76163,128,-343.42,394.47,150.78,1.327,0.275,2.162,0.00,0.00,0.00,0.00,343.42,-394.47,0.77,7.69,56.04,110.00,-110.00,-110.00,1100,1100,1100,1100,1035,1501,1519,0,729
