time_ms,flags,gyro_x,gyro_y,gyro_z,accel_x,accel_y,accel_z,roll,pitch,rate_sp_roll,rate_sp_pitch,rate_err_roll,rate_err_pitch,rate_i_roll,rate_i_pitch,rate_i_yaw,pid_roll,pid_pitch,pid_yaw,m1,m2,m3,m4,rc_thr,rc_roll,rc_pitch,battery_mv,loop_us
32139,0,-0.01,-0.05,-0.06,0.046,-0.044,1.000,0.00,0.00,0.00,0.00,0.01,0.05,0.00,0.00,0.00,0.10,0.11,0.15,1000,1000,1000,1000,1020,1500,1514,0,738
32151,0,0.01,-0.04,-0.01,0.046,-0.044,1.000,0.00,0.00,0.00,0.00,-0.01,0.04,0.00,0.00,0.00,-0.05,-0.06,0.03,1000,1000,1000,1000,1020,1500,1512,0,738
32163,0,0.03,-0.04,-0.02,0.046,-0.044,1.000,0.00,0.00,0.00,0.00,-0.03,0.04,-0.00,0.00,0.00,-0.08,0.07,0.05,1000,1000,1000,1000,1022,1500,1512,0,738
32175,0,-0.04,-0.01,0.01,0.046,-0.044,0.999,0.00,0.00,0.00,0.00,0.04,0.01,-0.00,0.00,0.00,0.16,-0.02,-0.01,1000,1000,1000,1000,1022,1500,1512,0,738
32187,0,0.02,-0.03,-0.02,0.045,-0.044,1.001,0.00,0.00,0.00,0.00,-0.02,0.03,0.00,0.00,0.00,-0.10,0.02,0.06,1100,1100,1100,1100,1022,1500,1512,0,736
32199,0,-0.03,-0.05,-0.01,0.045,-0.044,1.001,0.00,0.00,0.00,0.00,0.03,0.05,0.00,0.00,0.00,0.04,0.02,0.04,1100,1100,1100,1100,1022,1497,1512,0,736
32211,0,-0.03,-0.09,-0.06,0.046,-0.044,1.001,0.00,0.00,0.00,0.00,0.03,0.09,0.00,0.00,0.01,0.02,0.17,0.15,1100,1100,1100,1100,1022,1500,1512,0,736
32223,0,0.01,-0.06,0.00,0.047,-0.043,1.001,0.00,0.00,0.00,0.00,-0.01,0.06,0.00,0.00,0.01,-0.09,0.04,-0.00,1100,1100,1100,1100,1022,1500,1512,0,736
32235,0,0.06,0.02,-0.02,0.046,-0.043,1.000,0.00,0.00,0.00,0.00,-0.06,-0.02,0.00,0.00,0.01,-0.24,-0.16,0.06,1100,1100,1100,1100,1022,1500,1512,0,736
32247,0,0.03,0.01,0.01,0.046,-0.043,1.001,0.00,0.00,0.00,0.00,-0.03,-0.01,0.00,0.00,0.01,-0.13,-0.16,-0.02,1100,1100,1100,1100,1022,1500,1512,0,736
32259,0,-0.03,0.06,-0.01,0.046,-0.042,1.000,0.00,0.00,0.00,0.00,0.03,-0.06,0.00,0.00,0.01,0.07,-0.34,0.02,1100,1100,1100,1100,1022,1500,1512,0,736
32271,0,-0.09,0.05,-0.05,0.045,-0.042,1.001,0.00,0.00,0.00,0.00,0.09,-0.05,0.00,0.00,0.01,0.26,-0.18,0.13,1100,1100,1100,1100,1022,1500,1512,0,736
32283,0,-0.04,0.00,-0.02,0.046,-0.044,1.001,0.00,0.00,0.00,0.00,0.04,-0.00,0.00,0.00,0.01,0.19,0.09,0.05,1100,1100,1100,1100,1022,1500,1512,0,736
32295,0,0.02,-0.08,-0.05,0.046,-0.043,1.000,0.00,0.00,0.00,0.00,-0.02,0.08,0.00,0.00,0.01,-0.03,0.25,0.14,1100,1100,1100,1100,1022,1500,1512,0,736
32307,0,0.00,-0.09,-0.00,0.046,-0.043,1.000,0.00,0.00,0.00,0.00,-0.00,0.09,0.00,0.00,0.01,0.00,0.29,0.01,1100,1100,1100,1100,1022,1500,1512,0,736
32319,0,-0.00,-0.08,-0.06,0.047,-0.043,1.000,0.00,0.00,0.00,0.00,0.00,0.08,0.00,0.00,0.01,-0.02,0.16,0.17,1100,1100,1100,1100,1022,1492,1512,0,736
32331,0,-0.01,-0.12,0.07,0.045,-0.046,1.000,0.00,0.00,-6.60,0.00,-6.59,0.12,-0.01,0.00,0.01,-2.78,0.49,-0.15,1100,1100,1100,1100,1022,1467,1512,0,736
32343,0,0.03,-0.12,-0.09,0.047,-0.047,0.997,0.00,0.00,-6.60,0.00,-6.63,0.12,-0.02,0.00,0.01,-2.99,0.24,0.23,1100,1100,1100,1100,1023,1467,1512,0,736
32355,0,-0.13,-0.09,-0.03,0.048,-0.045,0.999,0.00,0.00,0.00,0.00,0.13,0.09,-0.03,0.00,0.01,0.47,-0.24,0.08,1100,1100,1100,1100,1021,1502,1508,0,736
32367,0,-0.25,-0.02,0.01,0.048,-0.045,0.996,0.00,0.00,0.00,0.00,0.25,0.02,-0.03,0.00,0.01,0.92,0.67,-0.02,1100,1100,1100,1100,1021,1502,1508,0,736
32379,0,-0.66,-0.15,0.17,0.045,-0.050,0.997,0.00,0.00,0.00,0.00,0.66,0.15,-0.03,0.00,0.01,2.44,-0.10,-0.42,1100,1100,1100,1100,1022,1496,1512,0,737
32391,0,-0.66,-0.06,-0.49,0.050,-0.049,0.995,0.00,0.00,0.00,0.00,0.66,0.06,-0.03,0.00,0.02,2.15,-0.27,1.25,1100,1100,1100,1100,1022,1499,1512,0,737
32403,0,-0.47,0.03,0.23,0.038,-0.042,1.003,0.00,0.00,0.00,0.00,0.47,-0.03,-0.02,0.00,0.02,1.68,-0.52,-0.55,1100,1100,1100,1100,1023,1499,1512,0,737
32415,0,-0.20,-0.17,-0.04,0.038,-0.048,1.009,0.00,0.00,0.00,0.00,0.20,0.17,-0.02,0.00,0.01,0.46,0.90,0.10,1100,1100,1100,1100,1022,1500,1512,0,737
32427,0,0.04,0.37,-0.13,0.045,-0.043,1.001,0.00,0.00,0.00,0.00,-0.04,-0.37,-0.03,0.00,0.02,-0.07,-4.74,0.35,1100,1100,1100,1100,1022,1500,1512,0,737
32439,0,0.87,1.16,0.15,0.032,-0.048,1.013,0.00,0.00,0.00,0.00,-0.87,-1.16,-0.03,0.00,0.02,-3.34,-0.66,-0.36,1100,1100,1100,1100,1022,1500,1512,0,737
32451,0,1.05,-0.25,-0.25,0.047,-0.045,1.008,0.00,0.00,0.00,0.00,-1.05,0.25,-0.03,-0.00,0.02,-4.00,4.49,0.65,1100,1100,1100,1100,1022,1500,1512,0,737
32463,0,1.47,-0.41,-0.02,0.061,-0.031,0.999,0.00,0.00,0.00,0.00,-1.47,0.41,-0.03,-0.00,0.02,-5.76,2.57,0.07,1100,1100,1100,1100,1022,1500,1512,0,737
32475,0,1.39,-0.24,-0.19,0.063,-0.037,0.997,0.00,0.00,0.00,0.00,-1.39,0.24,-0.03,-0.00,0.02,-5.19,3.72,0.51,1100,1100,1100,1100,1022,1500,1512,0,737
32487,0,1.13,1.03,-0.16,0.051,-0.037,1.008,0.00,0.00,0.00,0.00,-1.13,-1.03,-0.03,-0.01,0.03,-4.23,-0.74,0.42,1100,1100,1100,1100,1022,1500,1512,0,736
32499,0,0.02,0.80,0.39,0.058,-0.031,1.002,0.00,0.00,0.00,0.00,-0.02,-0.80,-0.03,-0.01,0.02,0.40,-0.37,-0.96,1100,1100,1100,1100,1022,1497,1512,0,736
32511,0,-0.20,-0.23,-0.32,0.063,-0.038,0.990,0.00,0.00,0.00,0.00,0.20,0.23,-0.03,-0.01,0.03,0.40,0.36,0.83,1100,1100,1100,1100,1022,1492,1512,0,736
32523,0,-0.51,-0.15,0.11,0.053,-0.047,1.001,0.00,0.00,0.00,0.00,0.51,0.15,-0.03,-0.01,0.03,1.48,0.69,-0.24,1100,1100,1100,1100,1022,1492,1512,0,736
32535,0,-0.79,1.93,-0.17,0.029,-0.049,1.023,0.00,0.00,0.00,0.00,0.79,-1.93,-0.03,-0.01,0.03,2.42,-3.02,0.46,1100,1100,1100,1100,1022,1499,1512,0,736
32547,0,-0.24,0.99,-0.32,0.030,-0.049,1.030,0.00,0.00,0.00,0.00,0.24,-0.99,-0.03,-0.02,0.04,0.65,4.72,0.83,1100,1100,1100,1100,1022,1499,1512,0,736
32559,0,0.18,1.24,0.10,0.030,-0.055,1.021,0.00,0.00,0.00,0.00,-0.18,-1.24,-0.03,-0.02,0.04,-0.63,1.14,-0.22,1100,1100,1100,1100,1022,1492,1512,0,736
32571,0,0.42,0.94,-0.37,0.024,-0.051,1.008,0.00,0.00,0.00,0.00,-0.42,-0.94,-0.03,-0.02,0.05,-1.77,1.01,0.97,1100,1100,1100,1100,1022,1500,1512,0,736
32583,0,0.47,1.05,0.47,0.020,-0.043,1.022,0.00,0.00,0.00,0.00,-0.47,-1.05,-0.03,-0.03,0.04,-1.60,1.21,-1.14,1100,1100,1100,1100,1022,1500,1512,0,734
32595,0,0.53,2.23,-0.57,0.008,-0.033,1.039,0.00,0.00,0.00,0.00,-0.53,-2.23,-0.03,-0.03,0.04,-0.76,-2.88,1.47,1100,1100,1100,1100,1022,1500,1512,0,734
32607,0,0.29,0.10,-0.71,-0.008,-0.049,1.022,0.00,0.00,0.00,0.00,-0.29,-0.10,-0.03,-0.03,0.06,-1.41,6.59,1.83,1100,1100,1100,1100,1022,1500,1512,0,734
32619,0,-0.04,-2.45,1.00,0.040,-0.047,1.000,0.00,0.00,0.00,0.00,0.04,2.45,-0.03,-0.03,0.05,-0.13,11.39,-2.47,1100,1100,1100,1100,1023,1498,1512,0,734
32631,0,-0.22,0.33,-0.70,0.024,-0.041,1.010,0.00,0.00,0.00,0.00,0.22,-0.33,-0.03,-0.03,0.05,-1.03,-3.83,1.79,1100,1100,1100,1100,1023,1500,1513,0,734
32643,0,0.49,1.93,-0.06,0.011,-0.043,1.018,0.00,0.00,0.00,0.00,-0.49,-1.93,-0.03,-0.03,0.07,-2.02,-9.33,0.23,1100,1100,1100,1100,1021,1500,1513,0,734
32655,0,-0.87,0.37,0.53,0.023,-0.027,1.021,0.00,0.00,0.00,0.00,0.87,-0.37,-0.03,-0.03,0.05,4.22,-1.48,-1.26,1100,1100,1100,1100,1023,1499,1512,0,734
32667,0,0.32,0.89,-0.97,0.028,-0.050,1.018,0.00,0.00,0.00,0.00,-0.32,-0.89,-0.03,-0.03,0.08,-2.61,-2.45,2.51,1100,1100,1100,1100,1023,1499,1512,0,734
32679,0,-0.12,1.94,0.76,0.037,-0.023,1.030,0.00,0.00,0.00,0.00,0.12,-1.94,-0.03,-0.04,0.07,1.91,-0.79,-1.82,1100,1100,1100,1100,1022,1490,1513,0,734
32691,0,0.19,-0.67,-0.92,0.028,-0.052,1.005,0.00,0.00,0.00,0.00,-0.19,0.67,-0.03,-0.04,0.08,-1.69,7.20,2.38,1100,1100,1100,1100,1022,1499,1512,0,734
32703,0,-0.25,-0.06,0.76,0.032,-0.026,1.021,0.00,0.00,0.00,0.00,0.25,0.06,-0.03,-0.04,0.07,2.56,-1.26,-1.81,1100,1100,1100,1100,1022,1499,1512,0,734
32715,0,-0.33,-0.52,-0.73,0.030,-0.051,1.004,0.00,0.00,0.00,0.00,0.33,0.52,-0.03,-0.04,0.08,0.28,3.12,1.91,1100,1100,1100,1100,1022,1499,1512,0,734
32727,0,-0.67,2.98,0.58,0.021,-0.031,1.039,0.00,0.00,0.00,0.00,0.67,-2.98,-0.03,-0.04,0.08,4.17,-8.94,-1.38,1100,1100,1100,1100,1022,1499,1512,0,734
32739,0,-0.68,-1.08,-0.79,0.046,-0.061,1.004,0.00,0.00,0.00,0.00,0.68,1.08,-0.02,-0.04,0.09,0.78,6.99,2.07,1100,1100,1100,1100,1022,1499,1512,0,734
32751,0,-1.64,5.65,0.51,0.028,-0.036,1.045,0.00,0.00,0.00,0.00,1.64,-5.65,-0.03,-0.05,0.08,6.75,-17.10,-1.19,1100,1100,1100,1100,1022,1507,1505,0,734
32763,0,-0.11,1.66,-0.70,0.034,-0.062,1.026,0.00,0.00,-95.80,-105.80,-95.69,-107.46,-0.18,-0.23,0.10,-39.82,-38.73,1.85,1100,1100,1100,1100,1022,1021,971,0,734
32775,0,-1.47,1.38,0.75,0.020,-0.046,1.017,0.00,0.00,0.00,0.00,1.47,-1.38,-0.25,-0.31,0.09,5.31,-9.19,-1.79,1100,1100,1100,1100,1022,1500,1512,0,734
32787,0,1.04,2.16,-0.51,0.041,-0.065,1.008,0.00,0.00,0.00,0.00,-1.04,-2.16,-0.25,-0.31,0.10,-5.96,-14.46,1.38,1100,1100,1100,1100,1022,1500,1512,0,736
32799,0,0.18,4.72,0.49,0.022,-0.043,1.019,0.00,0.00,0.00,0.00,-0.18,-4.72,-0.25,-0.31,0.09,-1.25,-19.64,-1.14,1100,1100,1100,1100,1022,1500,1512,0,736
32811,0,3.25,4.84,0.17,0.046,-0.061,0.992,0.00,0.00,0.00,0.00,-3.25,-4.84,-0.26,-0.31,0.10,-13.67,-21.14,-0.32,1100,1100,1100,1100,1022,1500,1512,0,736
32823,0,0.93,1.47,0.01,0.012,-0.042,1.016,0.00,0.00,0.00,0.00,-0.93,-1.47,-0.26,-0.31,0.10,-5.09,-5.69,0.06,1100,1100,1100,1100,1022,1500,1512,0,736
32835,0,2.48,2.58,0.82,0.015,-0.018,1.022,0.00,0.00,-5.20,0.00,-7.68,-2.58,-0.27,-0.31,0.10,-11.12,-11.74,-1.94,1100,1100,1100,1100,1022,1474,1512,0,736
32847,0,0.86,1.20,-0.70,-0.014,-0.038,1.031,0.00,0.00,-5.20,0.00,-6.06,-1.20,-0.28,-0.31,0.11,-5.60,-0.30,1.86,1100,1100,1100,1100,1022,1474,1512,0,736
32859,0,-2.84,-1.67,0.06,-0.000,-0.012,1.045,0.00,0.00,0.00,0.00,2.84,1.67,-0.28,-0.31,0.10,13.55,13.02,-0.05,1100,1100,1100,1100,1022,1498,1512,0,736
32871,0,-2.41,-2.53,-0.46,0.023,-0.038,0.996,0.00,0.00,0.00,0.00,2.41,2.53,-0.27,-0.31,0.11,9.95,15.75,1.25,1100,1100,1100,1100,1022,1500,1512,0,736
32883,0,-3.35,-3.72,-0.03,0.052,-0.061,1.013,0.00,0.00,0.00,0.00,3.35,3.72,-0.27,-0.31,0.10,11.66,14.20,0.18,1100,1100,1100,1100,1022,1500,1512,0,736
32895,0,-1.52,-7.22,-0.06,0.122,-0.086,0.914,0.00,0.00,0.00,0.00,1.52,7.22,-0.27,-0.30,0.10,5.37,11.23,0.25,1100,1100,1100,1100,1022,1487,1512,0,736
32907,0,0.49,-3.07,-0.24,0.094,-0.081,0.962,0.00,0.00,0.00,0.00,-0.49,3.07,-0.27,-0.29,0.10,-5.09,1.29,0.70,1100,1100,1100,1100,1022,1487,1512,0,736
32919,0,3.06,4.15,0.75,0.094,-0.028,0.971,0.00,0.00,0.00,0.00,-3.06,-4.15,-0.28,-0.29,0.09,-13.53,-27.88,-1.79,1100,1100,1100,1100,1021,1494,1512,0,736
32931,0,4.20,1.92,-0.15,0.045,-0.046,1.010,0.00,0.00,0.00,0.00,-4.20,-1.92,-0.28,-0.29,0.10,-17.70,-15.38,0.47,1100,1100,1100,1100,1021,1500,1512,0,736
32943,0,-1.84,1.51,0.07,0.009,-0.024,1.003,0.00,0.00,0.00,0.00,1.84,-1.51,-0.27,-0.29,0.10,8.53,-6.83,-0.07,1100,1100,1100,1100,1022,1500,1512,0,736
32955,0,0.50,1.56,-0.14,-0.009,-0.040,1.025,0.00,0.00,0.00,0.00,-0.50,-1.56,-0.28,-0.29,0.11,2.18,-0.08,0.47,1100,1100,1100,1100,1022,1482,1511,0,736
32967,0,-1.29,-0.45,-0.94,-0.021,-0.044,1.081,0.00,0.00,0.00,0.00,1.29,0.45,-0.27,-0.30,0.11,3.04,11.58,2.47,1100,1100,1100,1100,1022,1482,1511,0,736
32979,0,-1.45,0.02,0.58,0.032,-0.032,1.024,0.00,0.00,0.00,0.00,1.45,-0.02,-0.28,-0.30,0.11,8.95,11.42,-1.33,1100,1100,1100,1100,1022,1498,1513,0,734
32991,0,1.97,3.19,-0.53,0.009,-0.066,1.068,0.00,0.00,0.00,0.00,-1.97,-3.19,-0.28,-0.31,0.12,-9.53,-3.30,1.45,1100,1100,1100,1100,1022,1500,1512,0,734
33003,0,-3.21,1.92,-0.20,0.027,-0.021,1.000,0.00,0.00,0.00,0.00,3.21,-1.92,-0.28,-0.32,0.12,12.21,-3.33,0.61,1100,1100,1100,1100,1022,1500,1512,0,734
33015,0,3.48,4.93,-0.05,0.032,-0.040,1.021,0.00,0.00,0.00,0.00,-3.48,-4.93,-0.28,-0.32,0.13,-11.56,-13.56,0.25,1100,1100,1100,1100,1022,1499,1513,0,734
33027,0,0.22,1.67,-0.38,-0.002,-0.016,1.039,0.00,0.00,0.00,0.00,-0.22,-1.67,-0.28,-0.32,0.12,-5.38,-4.67,1.07,1100,1100,1100,1100,1022,1499,1513,0,734
33039,0,-0.21,-4.05,1.26,0.057,0.011,0.977,0.00,0.00,0.00,0.00,0.21,4.05,-0.28,-0.32,0.12,4.84,18.43,-3.02,1100,1100,1100,1100,1022,1498,1512,0,734
33051,0,2.10,2.13,-0.64,0.037,-0.043,1.039,0.00,0.00,0.00,0.00,-2.10,-2.13,-0.28,-0.32,0.14,-10.17,-6.95,1.74,1100,1100,1100,1100,1022,1500,1512,0,734
33063,0,-5.08,-2.60,-0.46,0.058,-0.033,0.962,0.00,0.00,0.00,0.00,5.08,2.60,-0.28,-0.32,0.13,21.33,6.06,1.28,1100,1100,1100,1100,1022,1500,1512,0,734
33075,0,0.87,-2.51,-0.27,0.117,-0.081,0.953,0.00,0.00,0.00,0.00,-0.87,2.51,-0.28,-0.32,0.14,-1.15,8.77,0.81,1100,1100,1100,1100,1022,1499,1512,0,734
33087,0,-0.51,-0.26,-0.42,0.071,-0.058,0.972,0.00,0.00,0.00,0.00,0.51,0.26,-0.28,-0.31,0.13,-3.01,-5.64,1.18,1100,1100,1100,1100,1022,1499,1512,0,734
33099,0,2.01,-1.99,1.09,0.114,-0.005,0.961,0.00,0.00,0.00,0.00,-2.01,1.99,-0.28,-0.31,0.13,-5.76,-3.32,-2.59,1100,1100,1100,1100,1022,1500,1512,0,734
33111,0,3.53,-3.65,-0.04,0.151,-0.060,0.940,0.00,0.00,0.00,0.00,-3.53,3.65,-0.28,-0.30,0.13,-16.13,4.87,0.24,1100,1100,1100,1100,1022,1500,1512,0,734
33123,0,-3.92,-2.66,0.16,0.135,-0.047,0.947,0.00,0.00,0.00,0.00,3.92,2.66,-0.28,-0.29,0.13,17.12,-3.37,-0.28,1100,1100,1100,1100,1023,1500,1512,0,734
33135,0,1.06,-5.54,0.12,0.185,-0.068,0.905,0.00,0.00,0.00,0.00,-1.06,5.54,-0.28,-0.28,0.13,-1.40,9.75,-0.16,1100,1100,1100,1100,1022,1501,1511,0,734
33147,0,-0.95,-2.56,-0.77,0.179,-0.065,0.887,0.00,0.00,0.00,0.00,0.95,2.56,-0.28,-0.28,0.14,-0.20,3.90,2.06,1100,1100,1100,1100,1022,1501,1511,0,734
33159,0,-0.08,0.37,-0.48,0.184,-0.021,0.927,0.00,0.00,0.00,8.20,0.08,7.83,-0.28,-0.25,0.14,3.47,-9.06,1.35,1100,1100,1100,1100,1000,1503,1541,0,734
33171,0,2.15,0.04,0.04,0.164,-0.072,0.902,0.00,0.00,0.00,0.00,-2.15,-0.04,-0.28,-0.24,0.14,-9.81,-2.62,0.05,1100,1100,1100,1100,1000,1499,1513,0,734
33183,0,-2.67,1.19,0.37,0.105,-0.050,0.966,0.00,0.00,0.00,0.00,2.67,-1.19,-0.28,-0.24,0.14,10.76,-7.19,-0.79,1100,1100,1100,1100,1021,1499,1513,0,734
33195,0,2.58,0.11,0.95,0.136,-0.043,0.957,0.00,0.00,0.00,0.00,-2.58,-0.11,-0.28,-0.24,0.13,-8.32,3.95,-2.25,1100,1100,1100,1100,1022,1499,1512,0,734
33207,0,0.52,2.78,-0.38,0.095,-0.076,0.977,0.00,0.00,0.00,0.00,-0.52,-2.78,-0.28,-0.25,0.14,-4.77,-6.02,1.08,1100,1100,1100,1100,1022,1499,1512,0,734
33219,0,-1.74,2.57,-0.91,0.087,-0.050,1.012,0.00,0.00,0.00,0.00,1.74,-2.57,-0.28,-0.25,0.14,8.33,-7.72,2.42,1100,1100,1100,1100,1023,1500,1511,0,734
33231,0,0.66,0.55,0.30,0.110,-0.073,0.951,0.00,0.00,0.00,0.00,-0.66,-0.55,-0.28,-0.25,0.14,-3.72,0.73,-0.62,1100,1100,1100,1100,1023,1500,1512,0,734
33243,0,-1.53,-3.34,-0.38,0.118,-0.081,0.978,0.00,0.00,0.00,0.00,1.53,3.34,-0.28,-0.25,0.14,3.82,13.34,1.09,1100,1100,1100,1100,1022,1500,1512,0,734
33255,0,-0.56,-4.02,0.24,0.189,-0.040,0.928,0.00,0.00,0.00,0.00,0.56,4.02,-0.28,-0.24,0.13,2.03,8.30,-0.48,1100,1100,1100,1100,1022,1500,1512,0,734
33267,0,0.07,-1.30,0.15,0.180,-0.085,0.923,0.00,0.00,0.00,0.00,-0.07,1.30,-0.28,-0.23,0.15,-4.09,-4.01,-0.24,1100,1100,1100,1100,1022,1500,1512,0,734
33279,0,-1.86,2.63,-1.19,0.128,-0.063,0.966,0.00,0.00,0.00,0.00,1.86,-2.63,-0.28,-0.24,0.16,4.67,-12.25,3.14,1100,1100,1100,1100,1022,1501,1512,0,734
33291,0,0.98,1.15,0.55,0.120,-0.034,0.960,0.00,0.00,0.00,0.00,-0.98,-1.15,-0.28,-0.24,0.15,-2.79,-2.83,-1.22,1100,1100,1100,1100,1022,1500,1512,0,734
33303,0,1.17,-1.92,-0.38,0.096,-0.063,0.967,0.00,0.00,0.00,0.00,-1.17,1.92,-0.28,-0.24,0.17,-7.02,10.18,1.12,1100,1100,1100,1100,1022,1500,1512,0,734
33315,0,-1.57,-2.64,-0.24,0.082,-0.035,0.958,0.00,0.00,0.00,0.00,1.57,2.64,-0.28,-0.23,0.16,6.52,3.18,0.76,1100,1100,1100,1100,1022,1499,1512,0,734
33327,0,2.39,-7.35,0.86,0.143,-0.071,0.915,0.00,0.00,0.00,0.00,-2.39,7.35,-0.28,-0.22,0.16,-8.11,14.53,-1.98,1100,1100,1100,1100,1022,1499,1512,0,734
33339,0,-0.18,-1.52,-0.68,0.125,-0.052,0.936,0.00,0.00,0.00,0.00,0.18,1.52,-0.28,-0.21,0.17,-2.44,-9.82,1.87,1100,1100,1100,1100,1022,1485,1513,0,734
33351,0,-2.83,-3.67,0.64,0.158,-0.005,0.913,0.00,0.00,0.00,0.00,2.83,3.67,-0.28,-0.20,0.15,13.57,-2.98,-1.46,1100,1100,1100,1100,1022,1497,1511,0,734
33363,0,1.56,-1.23,0.15,0.167,-0.039,0.900,0.00,0.00,0.00,0.00,-1.56,1.23,-0.28,-0.19,0.15,-7.62,-5.23,-0.23,1100,1100,1100,1100,1022,1497,1511,0,734
33375,0,-3.39,-5.92,-0.52,0.159,-0.028,0.898,0.00,0.00,0.00,0.00,3.39,5.92,-0.27,-0.18,0.14,9.72,12.52,1.45,1100,1100,1100,1100,1022,1500,1512,0,734
33387,0,2.11,-0.11,0.55,0.146,-0.039,0.954,0.00,0.00,0.00,0.00,-2.11,0.11,-0.28,-0.19,0.14,-6.23,3.71,-1.22,1100,1100,1100,1100,1022,1500,1512,0,736
33399,0,0.63,0.52,-0.45,0.099,-0.073,0.938,0.00,0.00,0.00,0.00,-0.63,-0.52,-0.27,-0.19,0.15,-7.16,-4.05,1.26,1100,1100,1100,1100,1022,1498,1512,0,736
33411,0,-1.74,4.30,0.33,0.072,-0.052,1.012,0.00,0.00,0.00,0.00,1.74,-4.30,-0.27,-0.20,0.14,9.13,-12.76,-0.69,1100,1100,1100,1100,1022,1499,1512,0,736
33423,0,3.65,1.88,0.62,0.088,-0.059,0.963,0.00,0.00,0.00,0.00,-3.65,-1.88,-0.28,-0.19,0.14,-14.74,-15.55,-1.41,1100,1100,1100,1100,1022,1499,1512,0,736
33435,0,-0.35,-5.99,-0.50,0.128,-0.056,0.930,0.00,0.00,0.00,0.00,0.35,5.99,-0.28,-0.18,0.14,1.99,23.16,1.38,1100,1100,1100,1100,1022,1485,1512,0,736
33447,0,-2.08,-4.60,-0.29,0.161,-0.052,0.958,0.00,0.00,0.00,0.00,2.08,4.60,-0.28,-0.18,0.13,12.13,10.72,0.86,1100,1100,1100,1100,1022,1485,1512,0,736
33459,0,-2.40,-3.19,0.12,0.166,-0.112,0.892,0.00,0.00,0.00,0.00,2.40,3.19,-0.27,-0.17,0.13,8.77,5.34,-0.17,1100,1100,1100,1100,1022,1500,1513,0,736
33471,0,-0.38,-2.28,0.15,0.168,-0.094,0.964,0.00,0.00,0.00,0.00,0.38,2.28,-0.28,-0.17,0.13,-0.73,0.02,-0.25,1100,1100,1100,1100,1022,1500,1512,0,736
33483,0,3.42,-2.51,1.05,0.204,-0.058,0.885,0.00,0.00,0.00,0.00,-3.42,2.51,-0.28,-0.16,0.11,-16.87,-6.24,-2.50,1100,1100,1100,1100,1022,1500,1512,0,736
33495,0,0.95,-7.61,0.33,0.250,-0.072,0.868,0.00,0.00,0.00,0.00,-0.95,7.61,-0.27,-0.14,0.12,-5.49,10.25,-0.71,1100,1100,1100,1100,1022,1500,1512,0,736
33507,0,-1.24,-5.18,-0.46,0.246,-0.063,0.886,0.00,0.00,0.00,0.00,1.24,5.18,-0.27,-0.12,0.11,3.89,-8.86,1.26,1100,1100,1100,1100,1022,1500,1512,0,736
33519,0,-2.50,-11.90,0.77,0.325,-0.106,0.730,0.00,0.00,0.00,0.00,2.50,11.90,-0.27,-0.10,0.10,9.14,18.82,-1.84,1100,1100,1100,1100,1022,1494,1512,0,736
33531,0,-0.83,-5.30,-0.84,0.292,-0.102,0.836,0.00,0.00,0.00,0.00,0.83,5.30,-0.27,-0.09,0.10,1.39,2.79,2.22,1100,1100,1100,1100,1022,1490,1512,0,736
33543,0,-1.33,-2.60,0.25,0.233,-0.044,0.814,0.00,0.00,0.00,0.00,1.33,2.60,-0.27,-0.08,0.09,4.11,-6.20,-0.54,1100,1100,1100,1100,1022,1490,1512,0,736
33555,0,1.63,5.65,0.33,0.156,-0.049,0.913,0.00,0.00,0.00,0.00,-1.63,-5.65,-0.27,-0.09,0.10,-6.10,-21.67,-0.73,1100,1100,1100,1100,1022,1500,1512,0,736
33567,0,0.01,4.91,-0.52,0.054,-0.035,1.001,0.00,0.00,0.00,0.00,-0.01,-4.91,-0.27,-0.09,0.09,-2.19,-15.06,1.39,1100,1100,1100,1100,1022,1500,1512,0,736
33579,0,0.85,-0.92,1.33,0.045,-0.028,0.962,0.00,0.00,0.00,0.00,-0.85,0.92,-0.27,-0.10,0.09,-1.01,16.24,-3.23,1100,1100,1100,1100,1022,1500,1512,0,736
33591,0,1.54,-4.56,-0.68,0.039,-0.065,0.996,0.00,0.00,0.00,0.00,-1.54,4.56,-0.27,-0.10,0.10,-7.79,17.20,1.80,1100,1100,1100,1100,1022,1500,1512,0,736
33603,0,-2.54,-3.67,0.09,0.036,-0.054,0.981,0.00,0.00,0.00,0.00,2.54,3.67,-0.27,-0.09,0.08,9.87,5.21,-0.15,1100,1100,1100,1100,1022,1500,1512,0,736
33615,0,1.18,-4.38,0.71,0.070,-0.066,0.956,0.00,0.00,0.00,0.00,-1.18,4.38,-0.27,-0.07,0.07,-3.87,-3.75,-1.70,1100,1100,1100,1100,1022,1500,1512,0,736
33627,0,-0.08,-6.46,-0.25,0.145,-0.088,0.910,0.00,0.00,0.00,0.00,0.08,6.46,-0.27,-0.06,0.06,-2.64,5.48,0.68,1100,1100,1100,1100,1022,1500,1512,0,736
33639,0,-1.59,-2.47,1.60,0.186,-0.040,0.868,0.00,0.00,-5.60,0.00,-4.01,2.47,-0.28,-0.05,0.03,6.03,-12.35,-3.98,1100,1100,1100,1100,1022,1472,1512,0,736
33651,0,1.93,-2.27,-0.03,0.212,-0.076,0.867,0.00,0.00,0.00,0.00,-1.93,2.27,-0.29,-0.04,0.04,-8.28,-4.09,0.10,1100,1100,1100,1100,1022,1500,1512,0,736
33663,0,-0.76,-0.94,-0.49,0.160,-0.055,0.918,0.00,0.00,0.00,0.00,0.76,0.94,-0.29,-0.04,0.03,1.60,3.38,1.26,1100,1100,1100,1100,1022,1500,1512,0,736
33675,0,1.82,3.91,0.30,0.127,-0.031,0.963,0.00,0.00,0.00,0.00,-1.82,-3.91,-0.29,-0.05,0.03,-4.74,-4.58,-0.72,1100,1100,1100,1100,1022,1500,1512,0,736
33687,0,0.09,6.75,-0.86,0.082,-0.054,1.006,0.00,0.00,0.00,0.00,-0.09,-6.75,-0.29,-0.06,0.05,-1.42,-10.57,2.20,1100,1100,1100,1100,1022,1500,1512,0,737
33699,0,-1.33,7.38,0.32,0.042,-0.047,1.013,0.00,0.00,0.00,0.00,1.33,-7.38,-0.29,-0.08,0.05,7.09,-12.51,-0.75,1100,1100,1100,1100,1022,1498,1512,0,737
33711,0,2.75,0.42,-0.11,0.088,-0.060,0.966,0.00,0.00,0.00,0.00,-2.75,-0.42,-0.30,-0.08,0.06,-11.06,5.61,0.34,1100,1100,1100,1100,1022,1500,1512,0,737
33723,0,0.06,-1.75,-0.55,0.054,-0.037,1.006,0.00,0.00,0.00,0.00,-0.06,1.75,-0.29,-0.08,0.06,-1.70,10.34,1.43,1100,1100,1100,1100,1022,1500,1512,0,737
33735,0,-2.80,-3.82,0.43,0.088,0.009,0.957,0.00,0.00,0.00,0.00,2.80,3.82,-0.29,-0.07,0.05,12.93,6.10,-1.02,1100,1100,1100,1100,1021,1499,1513,0,737
33747,0,-0.06,-4.27,-0.07,0.125,-0.015,0.917,0.00,0.00,0.00,0.00,0.06,4.27,-0.29,-0.06,0.06,0.60,7.41,0.24,1100,1100,1100,1100,1021,1499,1513,0,737
33759,0,-1.00,-0.54,-0.51,0.104,-0.034,0.956,0.00,0.00,0.00,0.00,1.00,0.54,-0.29,-0.06,0.06,0.69,-7.01,1.32,1100,1100,1100,1100,1022,1500,1513,0,737
33771,0,1.58,1.66,0.37,0.112,-0.028,0.914,0.00,0.00,0.00,0.00,-1.58,-1.66,-0.30,-0.06,0.06,-4.51,-2.75,-0.87,1100,1100,1100,1100,1022,1501,1512,0,737
33783,0,3.25,6.74,-0.38,0.019,-0.054,1.020,0.00,0.00,0.00,0.00,-3.25,-6.74,-0.30,-0.07,0.07,-14.60,-18.01,1.02,1100,1100,1100,1100,1022,1501,1512,0,733
33795,0,-2.17,7.51,-0.14,-0.025,-0.019,1.025,0.00,0.00,0.00,0.00,2.17,-7.51,-0.29,-0.08,0.07,8.71,-12.94,0.43,1100,1100,1100,1100,1022,1500,1512,0,733
33807,0,0.86,2.30,0.07,-0.024,-0.022,1.040,0.00,0.00,0.00,0.00,-0.86,-2.30,-0.30,-0.09,0.08,0.25,5.61,-0.08,1100,1100,1100,1100,1022,1500,1512,0,733
33819,0,-1.07,-2.36,-1.32,-0.020,-0.047,1.065,0.00,0.00,0.00,0.00,1.07,2.36,-0.29,-0.10,0.09,1.15,21.71,3.40,1100,1100,1100,1100,1022,1500,1512,0,733
33831,0,-3.38,3.67,0.30,-0.024,-0.020,1.053,0.00,0.00,0.00,0.00,3.38,-3.67,-0.30,-0.10,0.08,15.66,-6.69,-0.68,1100,1100,1100,1100,1022,1495,1512,0,733
33843,0,2.96,-0.55,0.01,0.015,-0.081,1.043,0.00,0.00,0.00,0.00,-2.96,0.55,-0.30,-0.10,0.09,-12.12,4.51,0.07,1100,1100,1100,1100,1022,1495,1512,0,733
33855,0,-0.31,3.35,0.19,-0.032,-0.050,1.066,0.00,0.00,0.00,0.00,0.31,-3.35,-0.30,-0.11,0.08,-2.76,-7.49,-0.38,1100,1100,1100,1100,1022,1500,1512,0,733
33867,0,2.83,0.13,0.81,-0.020,-0.034,1.048,0.00,0.00,0.00,0.00,-2.83,-0.13,-0.30,-0.11,0.09,-8.01,-0.13,-1.94,1100,1100,1100,1100,1022,1500,1512,0,733
33879,0,1.83,1.39,-0.92,0.010,-0.070,1.069,0.00,0.00,0.00,0.00,-1.83,-1.39,-0.30,-0.11,0.10,-10.52,-0.15,2.39,1100,1100,1100,1100,1022,1500,1512,0,733
33891,0,-5.76,0.81,0.02,0.011,-0.034,1.025,0.00,0.00,0.00,0.00,5.76,-0.81,-0.29,-0.11,0.09,24.57,-7.47,0.03,1100,1100,1100,1100,1022,1500,1512,0,733
33903,0,0.49,-2.43,-0.40,0.060,-0.082,1.006,0.00,0.00,0.00,0.00,-0.49,2.43,-0.30,-0.11,0.10,-1.16,14.05,1.11,1100,1100,1100,1100,1022,1500,1512,0,733
33915,0,-1.86,0.88,-0.53,0.015,-0.060,1.038,0.00,0.00,0.00,0.00,1.86,-0.88,-0.29,-0.11,0.10,1.55,0.84,1.42,1100,1100,1100,1100,1021,1500,1513,0,733
33927,0,-2.35,-4.50,1.05,0.068,-0.021,0.983,0.00,0.00,0.00,0.00,2.35,4.50,-0.29,-0.11,0.09,9.00,10.87,-2.54,1100,1100,1100,1100,1021,1500,1513,0,733
33939,0,3.74,-0.05,-0.28,0.080,-0.068,0.997,0.00,0.00,0.00,0.00,-3.74,0.05,-0.29,-0.11,0.11,-18.30,-6.13,0.79,1100,1100,1100,1100,1024,1498,1512,0,733
33951,0,-2.18,0.51,-0.41,0.045,-0.056,1.021,0.00,0.00,0.00,0.00,2.18,-0.51,-0.29,-0.11,0.11,6.12,-3.24,1.13,1100,1100,1100,1100,1024,1500,1512,0,733
33963,0,2.50,3.69,-0.14,0.067,-0.051,1.018,0.00,0.00,0.00,0.00,-2.50,-3.69,-0.29,-0.11,0.12,-6.76,-6.95,0.47,1100,1100,1100,1100,1022,1500,1512,0,733
33975,0,0.21,4.43,-0.71,0.026,-0.056,1.016,0.00,0.00,0.00,0.00,-0.21,-4.43,-0.29,-0.12,0.13,-4.91,-6.95,1.91,1100,1100,1100,1100,1023,1500,1512,0,733
33987,0,-2.09,4.20,-0.32,0.005,-0.004,1.046,0.00,0.00,0.00,0.00,2.09,-4.20,-0.29,-0.13,0.14,11.45,-4.44,0.95,1100,1100,1100,1100,1023,1500,1512,0,734
33999,0,2.01,-0.77,-0.32,0.014,-0.033,1.013,0.00,0.00,0.00,0.00,-2.01,0.77,-0.29,-0.13,0.15,-7.81,8.35,0.95,1100,1100,1100,1100,1021,1497,1513,0,734
34011,0,-1.67,-0.16,-0.34,-0.034,-0.040,1.041,0.00,0.00,0.00,0.00,1.67,0.16,-0.29,-0.14,0.16,5.68,7.44,1.00,1100,1100,1100,1100,1021,1500,1511,0,734
34023,0,1.29,2.98,0.34,-0.020,0.006,1.048,0.00,0.00,0.00,0.00,-1.29,-2.98,-0.29,-0.14,0.16,-2.70,-7.20,-0.68,1100,1100,1100,1100,1023,1500,1511,0,734
34035,0,2.61,1.31,-0.14,-0.012,-0.044,1.031,0.00,0.00,0.00,0.00,-2.61,-1.31,-0.30,-0.14,0.17,-10.47,1.35,0.53,1100,1100,1100,1100,1022,1500,1512,0,734
34047,0,-0.81,5.30,-0.71,-0.043,-0.019,1.115,0.00,0.00,0.00,0.00,0.81,-5.30,-0.30,-0.15,0.18,4.07,-10.14,1.94,1100,1100,1100,1100,1022,1500,1512,0,734
34059,0,-0.07,6.59,0.16,-0.037,-0.048,1.104,0.00,0.00,0.00,0.00,0.07,-6.59,-0.30,-0.17,0.18,4.21,-7.56,-0.21,1100,1100,1100,1100,1022,1500,1512,0,734
34071,0,0.36,4.90,-0.37,-0.006,-0.080,1.098,0.00,0.00,0.00,0.00,-0.36,-4.90,-0.30,-0.18,0.20,-2.64,0.87,1.13,1100,1100,1100,1100,1022,1500,1512,0,734
34083,0,-2.68,2.11,-0.30,0.040,-0.036,1.034,0.00,0.00,0.00,0.00,2.68,-2.11,-0.30,-0.19,0.19,11.22,4.87,0.95,1100,1100,1100,1100,1022,1500,1512,0,734
34095,0,2.86,1.93,0.29,0.044,-0.057,1.044,0.00,0.00,0.00,0.00,-2.86,-1.93,-0.30,-0.19,0.20,-10.68,2.09,-0.51,1100,1100,1100,1100,1022,1500,1512,0,734
34107,0,-1.22,-0.40,-0.62,0.005,-0.030,1.048,0.00,0.00,0.00,0.00,1.22,0.40,-0.29,-0.19,0.20,0.44,2.75,1.75,1100,1100,1100,1100,1022,1500,1512,0,734
34119,0,-1.48,-4.41,0.82,0.068,-0.001,1.018,0.00,0.00,0.00,0.00,1.48,4.41,-0.30,-0.19,0.19,8.98,13.79,-1.85,1100,1100,1100,1100,1022,1499,1512,0,734
34131,0,1.62,-0.63,-0.10,0.089,-0.046,0.990,0.00,0.00,0.00,0.00,-1.62,0.63,-0.30,-0.19,0.20,-9.11,-3.24,0.46,1100,1100,1100,1100,1022,1500,1512,0,734
34143,0,-4.28,-0.08,-0.31,0.106,-0.038,0.955,0.00,0.00,0.00,0.00,4.28,0.08,-0.29,-0.18,0.19,14.68,-4.72,0.96,1100,1100,1100,1100,1022,1500,1512,0,734
34155,0,3.34,0.80,0.51,0.123,-0.069,0.952,0.00,0.00,0.00,0.00,-3.34,-0.80,-0.30,-0.18,0.19,-11.47,-2.83,-1.08,1100,1100,1100,1100,1022,1500,1512,0,734
34167,0,1.18,0.20,-0.55,0.099,-0.052,0.951,0.00,0.00,0.00,0.00,-1.18,-0.20,-0.29,-0.19,0.20,-10.15,0.38,1.57,1100,1100,1100,1100,1022,1500,1512,0,734
34179,0,-2.57,5.50,0.23,0.045,0.005,1.017,0.00,0.00,0.00,0.00,2.57,-5.50,-0.30,-0.20,0.19,14.50,-11.95,-0.39,1100,1100,1100,1100,1022,1500,1512,0,762
34191,0,3.14,9.68,-0.21,-0.045,-0.023,1.057,0.00,0.00,0.00,0.00,-3.14,-9.68,-0.30,-0.21,0.21,-13.14,-25.52,0.74,1100,1100,1100,1100,1022,1494,1512,0,762
34203,0,-3.19,3.51,-0.93,-0.065,-0.027,1.058,0.00,0.00,0.00,0.00,3.19,-3.51,-0.29,-0.22,0.22,10.35,10.58,2.53,1100,1100,1100,1100,1022,1494,1512,0,762
34215,0,0.37,2.42,-0.11,-0.066,-0.023,1.117,0.00,0.00,0.00,0.00,-0.37,-2.42,-0.30,-0.23,0.22,2.25,7.55,0.50,1100,1100,1100,1100,1022,1500,1512,0,762
34227,0,-0.51,-0.05,-0.37,-0.058,-0.064,1.047,0.00,0.00,0.00,0.00,0.51,0.05,-0.29,-0.24,0.23,-1.20,13.34,1.17,1100,1100,1100,1100,1022,1500,1512,0,762
34239,0,-1.01,7.55,0.24,-0.088,-0.044,1.165,0.00,0.00,0.00,0.00,1.01,-7.55,-0.29,-0.25,0.23,3.93,-22.50,-0.37,1100,1100,1100,1100,1022,1501,1511,0,762
34251,0,3.95,-1.73,1.10,0.023,-0.076,1.038,0.00,0.00,0.00,0.00,-3.95,1.73,-0.30,-0.25,0.22,-17.23,12.87,-2.53,1100,1100,1100,1100,1022,1500,1512,0,762
34263,0,-0.09,2.97,-0.23,0.023,-0.074,1.071,0.00,0.00,0.00,0.00,0.09,-2.97,-0.29,-0.25,0.23,-1.93,-10.76,0.80,1100,1100,1100,1100,1021,1500,1512,0,762
34275,0,-3.82,-0.43,-0.76,0.088,-0.050,1.037,0.00,0.00,0.00,0.00,3.82,0.43,-0.29,-0.25,0.23,17.34,3.87,2.13,1100,1100,1100,1100,1022,1499,1513,0,762
34287,0,-0.60,4.57,0.07,0.109,-0.077,0.958,0.00,0.00,0.00,0.00,0.60,-4.57,-0.29,-0.26,0.23,1.10,-14.23,0.05,1100,1100,1100,1100,1022,1499,1513,0,734
34299,0,-0.71,-3.56,-0.95,0.096,-0.058,0.984,0.00,0.00,0.00,0.00,0.71,3.56,-0.29,-0.25,0.24,-0.55,17.83,2.62,1100,1100,1100,1100,1022,1501,1512,0,734
34311,0,1.02,-4.22,0.49,0.092,-0.016,0.952,0.00,0.00,0.00,0.00,-1.02,4.22,-0.29,-0.25,0.23,-3.48,13.34,-0.99,1100,1100,1100,1100,1022,1500,1512,0,734
34323,0,1.68,-2.77,0.38,0.069,-0.038,0.967,0.00,0.00,0.00,0.00,-1.68,2.77,-0.29,-0.25,0.24,-7.01,4.62,-0.71,1100,1100,1100,1100,1022,1500,1512,0,734
34335,0,-0.26,6.79,-0.18,-0.010,-0.014,1.052,0.00,0.00,-6.00,0.00,-5.74,-6.79,-0.30,-0.25,0.24,-1.63,-28.68,0.69,1100,1100,1100,1100,1022,1470,1512,0,734
34347,0,2.48,5.05,0.73,0.018,-0.046,0.989,0.00,0.00,-6.00,0.00,-8.48,-5.05,-0.32,-0.26,0.24,-9.92,-9.49,-1.59,1100,1100,1100,1100,1022,1470,1512,0,734
34359,0,1.15,4.06,-1.17,0.001,-0.056,1.040,0.00,0.00,0.00,0.00,-1.15,-4.06,-0.32,-0.27,0.26,-5.64,-3.01,3.19,1100,1100,1100,1100,1022,1510,1502,0,734
34371,0,-3.58,-1.31,-0.11,0.009,-0.038,1.000,0.00,0.00,-6.20,0.00,-2.62,1.31,-0.32,-0.27,0.24,13.98,15.88,0.52,1100,1100,1100,1100,1022,1469,1512,0,734
34383,0,-0.53,-1.21,0.42,-0.014,-0.063,1.026,0.00,0.00,-6.20,0.00,-5.67,1.21,-0.34,-0.27,0.25,0.08,6.37,-0.81,1100,1100,1100,1100,1022,1469,1512,0,738
34395,0,-0.80,-5.33,-0.28,0.022,-0.066,1.004,0.00,0.00,0.00,0.00,0.80,5.33,-0.34,-0.27,0.23,0.61,19.15,0.94,1100,1100,1100,1100,1022,1500,1512,0,738
34407,0,1.00,0.99,1.37,0.039,-0.022,0.981,0.00,0.00,0.00,0.00,-1.00,-0.99,-0.34,-0.26,0.21,-2.81,-13.26,-3.20,1100,1100,1100,1100,1022,1500,1512,0,738
34419,0,2.62,3.39,-0.22,0.065,-0.054,0.977,0.00,0.00,0.00,0.00,-2.62,-3.39,-0.35,-0.27,0.22,-11.08,-16.20,0.78,1100,1100,1100,1100,1022,1500,1512,0,738
34431,0,-0.76,3.54,-0.51,0.000,-0.031,1.040,0.00,0.00,0.00,0.00,0.76,-3.54,-0.34,-0.27,0.22,3.38,-8.40,1.48,1100,1100,1100,1100,1022,1500,1512,0,738
34443,0,0.59,2.97,0.10,0.000,-0.028,1.049,0.00,0.00,0.00,0.00,-0.59,-2.97,-0.35,-0.28,0.23,0.12,6.27,-0.01,1100,1100,1100,1100,1022,1500,1512,0,738
34455,0,-0.18,5.73,-1.14,-0.059,-0.029,1.090,0.00,0.00,0.00,0.00,0.18,-5.73,-0.35,-0.30,0.25,-0.30,-3.14,3.09,1100,1100,1100,1100,1022,1493,1512,0,738
34467,0,-1.02,5.23,-0.16,-0.081,-0.028,1.082,0.00,0.00,0.00,0.00,1.02,-5.23,-0.35,-0.31,0.25,5.56,-2.99,0.65,1100,1100,1100,1100,1022,1493,1512,0,738
34479,0,2.17,2.52,-0.06,-0.046,-0.043,1.029,0.00,0.00,0.00,0.00,-2.17,-2.52,-0.35,-0.31,0.27,-8.81,-5.16,0.41,1100,1100,1100,1100,1022,1500,1512,0,734
34491,0,0.58,-1.50,-0.44,-0.043,-0.028,1.054,0.00,0.00,0.00,0.00,-0.58,1.50,-0.35,-0.31,0.27,-3.51,3.88,1.37,1100,1100,1100,1100,1022,1499,1513,0,734
34503,0,-2.56,-2.18,0.59,0.004,0.014,0.998,0.00,0.00,0.00,0.00,2.56,2.18,-0.35,-0.30,0.26,11.40,-0.35,-1.23,1100,1100,1100,1100,1021,1499,1513,0,734
34515,0,-0.22,0.19,0.03,0.003,-0.002,1.001,0.00,0.00,0.00,0.00,0.22,-0.19,-0.35,-0.30,0.27,2.52,1.81,0.18,1100,1100,1100,1100,1021,1500,1513,0,734
34527,0,-0.84,0.47,-1.18,0.009,-0.042,1.054,0.00,0.00,0.00,0.00,0.84,-0.47,-0.35,-0.31,0.27,0.31,7.02,3.21,1100,1100,1100,1100,1021,1500,1513,0,734
34539,0,1.18,8.82,0.25,-0.019,-0.035,1.057,0.00,0.00,0.00,0.00,-1.18,-8.82,-0.35,-0.33,0.28,-3.05,-16.60,-0.35,1100,1100,1100,1100,1022,1499,1512,0,734
34551,0,4.07,7.09,-0.36,-0.018,-0.068,1.072,0.00,0.00,0.00,0.00,-4.07,-7.09,-0.35,-0.34,0.30,-16.51,-15.41,1.19,1100,1100,1100,1100,1022,1500,1512,0,734
34563,0,-1.46,4.19,0.25,-0.015,-0.044,1.040,0.00,0.00,0.00,0.00,1.46,-4.19,-0.35,-0.35,0.29,5.48,-0.02,-0.34,1100,1100,1100,1100,1022,1500,1512,0,734
34575,0,-0.48,-5.69,1.10,0.035,-0.051,0.991,0.00,0.00,0.00,0.00,0.48,5.69,-0.35,-0.34,0.29,5.17,18.62,-2.45,1100,1100,1100,1100,1021,1499,1513,0,734
34587,0,0.29,0.43,-1.00,0.033,-0.082,1.061,0.00,0.00,0.00,0.00,-0.29,-0.43,-0.35,-0.34,0.30,-3.08,0.20,2.79,1100,1100,1100,1100,1021,1499,1513,0,843
34599,0,-5.33,0.74,-0.14,0.043,-0.054,1.001,0.00,0.00,-5.80,0.00,-0.47,-0.74,-0.36,-0.35,0.29,19.45,1.68,0.63,1100,1100,1100,1100,1022,1471,1512,0,843
34611,0,2.16,8.02,-0.41,0.026,-0.074,1.065,0.00,0.00,0.00,0.00,-2.16,-8.02,-0.37,-0.36,0.30,-7.34,-22.72,1.31,1100,1100,1100,1100,1022,1500,1512,0,843
34623,0,-1.18,-0.45,-0.55,0.015,-0.075,1.027,0.00,0.00,0.00,0.00,1.18,0.45,-0.37,-0.36,0.29,0.16,9.03,1.66,1100,1100,1100,1100,1022,1500,1512,0,843
34635,0,0.14,0.91,1.36,0.019,-0.010,1.023,0.00,0.00,0.00,0.00,-0.14,-0.91,-0.37,-0.36,0.29,3.89,5.37,-3.10,1100,1100,1100,1100,1022,1500,1512,0,843
34647,0,3.37,-4.30,-0.09,0.050,-0.060,1.022,0.00,0.00,0.00,0.00,-3.37,4.30,-0.37,-0.36,0.30,-15.30,12.20,0.54,1100,1100,1100,1100,1022,1500,1512,0,843
34659,0,-2.40,0.98,-0.36,0.016,-0.050,1.019,0.00,0.00,0.00,0.00,2.40,-0.98,-0.37,-0.36,0.30,8.58,-7.15,1.20,1100,1100,1100,1100,1022,1500,1512,0,843
34671,0,3.42,3.92,-0.49,0.037,-0.030,1.037,0.00,0.00,0.00,0.00,-3.42,-3.92,-0.38,-0.36,0.32,-9.75,-16.54,1.55,1100,1100,1100,1100,1022,1500,1512,0,843
34683,0,-0.51,-0.61,-0.56,0.062,-0.044,0.984,0.00,0.00,0.00,0.00,0.51,0.61,-0.37,-0.36,0.32,-0.58,5.70,1.72,1100,1100,1100,1100,1022,1500,1512,0,733
34695,0,-4.08,3.58,-0.03,0.009,-0.004,1.022,0.00,0.00,0.00,0.00,4.08,-3.58,-0.37,-0.37,0.33,19.99,-8.86,0.40,1100,1100,1100,1100,1022,1500,1512,0,733
34707,0,0.80,-1.24,-0.29,0.005,-0.044,1.003,0.00,0.00,0.00,0.00,-0.80,1.24,-0.37,-0.37,0.34,-4.34,8.05,1.06,1100,1100,1100,1100,1022,1500,1512,0,733
34719,0,-1.08,-0.28,-0.43,-0.031,-0.033,1.035,0.00,0.00,0.00,0.00,1.08,0.28,-0.37,-0.37,0.34,2.65,10.79,1.43,1100,1100,1100,1100,1022,1500,1512,0,733
34731,0,1.38,3.07,0.08,-0.033,0.025,1.051,0.00,0.00,0.00,0.00,-1.38,-3.07,-0.38,-0.37,0.35,-3.99,-16.36,0.14,1100,1100,1100,1100,1022,1500,1512,0,733
34743,0,2.87,-0.53,-0.22,-0.010,-0.031,1.013,0.00,0.00,0.00,0.00,-2.87,0.53,-0.38,-0.37,0.36,-10.67,4.95,0.91,1100,1100,1100,1100,1022,1500,1512,0,733
34755,0,-1.16,4.45,-0.57,-0.040,-0.020,1.104,0.00,0.00,0.00,0.00,1.16,-4.45,-0.38,-0.38,0.37,4.46,-9.26,1.78,1100,1100,1100,1100,1023,1504,1508,0,733
34767,0,-0.17,3.79,0.01,-0.010,-0.055,1.089,0.00,0.00,0.00,0.00,0.17,-3.79,-0.38,-0.39,0.38,5.64,1.87,0.35,1100,1100,1100,1100,1023,1504,1508,0,733
34779,0,1.38,6.28,-0.34,-0.027,-0.078,1.099,0.00,0.00,0.00,0.00,-1.38,-6.28,-0.38,-0.41,0.39,-7.01,-5.51,1.25,1100,1100,1100,1100,1023,1510,1494,0,733
34791,0,-2.20,6.38,-0.59,-0.012,-0.043,1.064,0.00,0.00,0.00,0.00,2.20,-6.38,-0.38,-0.42,0.39,9.19,-9.70,1.86,1100,1100,1100,1100,1023,1500,1513,0,733
34803,0,3.53,3.26,0.38,-0.020,-0.053,1.080,0.00,0.00,0.00,0.00,-3.53,-3.26,-0.38,-0.43,0.40,-12.94,-2.63,-0.56,1100,1100,1100,1100,1021,1500,1513,0,733
34815,0,-0.75,-4.02,-0.55,-0.036,-0.050,1.060,0.00,0.00,0.00,0.00,0.75,4.02,-0.38,-0.43,0.40,-1.19,21.53,1.76,1100,1100,1100,1100,1021,1500,1512,0,733
34827,0,-3.05,-4.12,0.67,-0.000,-0.004,1.060,0.00,0.00,0.00,0.00,3.05,4.12,-0.38,-0.42,0.38,16.57,14.73,-1.28,1100,1100,1100,1100,1021,1500,1512,0,733
34839,0,1.06,-2.53,0.04,0.022,-0.063,1.025,0.00,0.00,0.00,0.00,-1.06,2.53,-0.38,-0.42,0.39,-6.16,3.11,0.28,1100,1100,1100,1100,1022,1495,1512,0,733
34851,0,-2.93,1.78,-0.59,0.049,-0.047,1.010,0.00,0.00,0.00,0.00,2.93,-1.78,-0.38,-0.42,0.39,9.22,-8.95,1.87,1100,1100,1100,1100,1022,1500,1512,0,733
34863,0,5.77,5.67,0.52,0.037,-0.045,1.044,0.00,0.00,0.00,0.00,-5.77,-5.67,-0.39,-0.42,0.39,-19.93,-22.97,-0.91,1100,1100,1100,1100,1022,1500,1512,0,733
34875,0,1.87,0.38,-0.53,0.031,-0.061,0.997,0.00,0.00,0.00,0.00,-1.87,-0.38,-0.38,-0.43,0.40,-11.96,5.34,1.73,1100,1100,1100,1100,1022,1500,1512,0,733
34887,0,-3.14,5.39,0.09,-0.043,-0.011,1.091,0.00,0.00,0.00,0.00,3.14,-5.39,-0.38,-0.44,0.40,18.08,-8.92,0.17,1100,1100,1100,1100,1022,1500,1512,0,733
34899,0,1.85,-0.20,0.48,-0.060,-0.042,1.053,0.00,0.00,0.00,0.00,-1.85,0.20,-0.38,-0.44,0.41,-7.42,2.64,-0.78,1100,1100,1100,1100,1022,1500,1512,0,733
34911,0,-2.65,-2.95,-0.80,-0.038,-0.045,1.030,0.00,0.00,0.00,0.00,2.65,2.95,-0.38,-0.44,0.41,8.57,12.88,2.42,1100,1100,1100,1100,1022,1500,1512,0,733
34923,0,0.78,-3.80,0.11,-0.014,-0.024,1.060,0.00,0.00,0.00,0.00,-0.78,3.80,-0.39,-0.43,0.40,0.33,4.00,0.13,1100,1100,1100,1100,1022,1500,1512,0,733
34935,0,-0.33,-0.86,0.01,-0.011,-0.072,1.004,0.00,0.00,0.00,0.00,0.33,0.86,-0.38,-0.42,0.40,-1.53,-2.97,0.38,1100,1100,1100,1100,1022,1500,1512,0,733
34947,0,-2.05,2.58,0.25,-0.053,-0.048,1.114,0.00,0.00,0.00,0.00,2.05,-2.58,-0.38,-0.42,0.39,7.97,-13.09,-0.24,1100,1100,1100,1100,1022,1500,1512,0,733
34959,0,4.70,6.44,1.23,-0.035,-0.062,1.092,0.00,0.00,0.00,0.00,-4.70,-6.44,-0.39,-0.44,0.39,-19.39,-7.98,-2.68,1100,1100,1100,1100,1022,1499,1512,0,733
34971,0,0.99,7.63,-0.48,-0.064,-0.087,1.138,0.00,0.00,0.00,0.00,-0.99,-7.63,-0.38,-0.45,0.40,-8.32,-13.00,1.60,1100,1100,1100,1100,1022,1500,1512,0,733
34983,0,-2.23,7.05,-1.03,-0.057,-0.077,1.165,0.00,0.00,0.00,0.00,2.23,-7.05,-0.38,-0.47,0.40,10.98,-0.13,2.98,1100,1100,1100,1100,1022,1500,1512,0,736
34995,0,-1.01,9.03,-0.23,-0.064,-0.085,1.105,0.00,0.00,0.00,0.00,1.01,-9.03,-0.38,-0.48,0.41,2.08,-18.86,0.98,1100,1100,1100,1100,1022,1500,1512,0,736
35007,0,-1.02,-3.54,-0.95,0.026,-0.087,1.074,0.00,0.00,0.00,0.00,1.02,3.54,-0.38,-0.49,0.42,3.41,30.93,2.79,1100,1100,1100,1100,1022,1500,1512,0,736
35019,0,0.43,-0.46,0.27,0.053,-0.039,1.018,0.00,0.00,0.00,0.00,-0.43,0.46,-0.38,-0.49,0.42,-2.14,2.67,-0.26,1100,1100,1100,1100,1022,1500,1512,0,736
35031,0,0.57,-2.67,0.33,0.059,-0.064,1.001,0.00,0.00,0.00,0.00,-0.57,2.67,-0.38,-0.49,0.44,-2.91,8.92,-0.39,1100,1100,1100,1100,1022,1500,1512,0,736
35043,0,-0.62,0.91,-0.74,0.029,-0.048,1.055,0.00,0.00,0.00,0.00,0.62,-0.91,-0.38,-0.49,0.44,0.79,-3.82,2.29,1100,1100,1100,1100,1022,1500,1512,0,736
35055,0,1.53,-1.04,0.62,0.048,-0.025,0.976,0.00,0.00,0.00,0.00,-1.53,1.04,-0.38,-0.49,0.44,-4.76,-2.02,-1.12,1100,1100,1100,1100,1023,1500,1512,0,736
35067,0,1.83,-1.26,-0.97,0.072,-0.036,0.987,0.00,0.00,0.00,0.00,-1.83,1.26,-0.38,-0.48,0.46,-8.58,-2.64,2.89,1100,1100,1100,1100,1023,1500,1512,0,736
35079,0,-4.02,-1.54,-0.37,0.096,-0.037,0.956,0.00,0.00,0.00,0.00,4.02,1.54,-0.38,-0.48,0.45,16.29,1.32,1.38,1100,1100,1100,1100,1022,1498,1513,0,735
35091,0,0.08,-5.58,0.47,0.136,-0.074,0.902,0.00,0.00,0.00,0.00,-0.08,5.58,-0.38,-0.47,0.46,0.86,10.16,-0.72,1100,1100,1100,1100,1022,1500,1512,0,735
35103,0,-0.03,-4.48,-0.82,0.165,-0.066,0.928,0.00,0.00,0.00,0.00,0.03,4.48,-0.38,-0.46,0.46,-3.73,9.18,2.52,1100,1100,1100,1100,1021,1500,1512,0,735
35115,0,-0.09,2.98,0.91,0.122,-0.004,0.940,0.00,0.00,0.00,0.00,0.09,-2.98,-0.38,-0.46,0.45,1.99,-22.88,-1.81,1100,1100,1100,1100,1022,1500,1512,0,735
35127,0,3.07,5.35,-0.08,0.106,-0.014,0.963,0.00,0.00,0.00,0.00,-3.07,-5.35,-0.38,-0.46,0.47,-12.32,-21.04,0.68,1100,1100,1100,1100,1022,1500,1512,0,735
35139,0,-1.99,4.24,-0.72,0.059,-0.024,1.015,0.00,0.00,0.00,0.00,1.99,-4.24,-0.38,-0.47,0.47,7.47,-5.38,2.26,1100,1100,1100,1100,1022,1498,1512,0,735
35151,0,-0.09,2.24,0.14,0.041,-0.035,1.018,0.00,0.00,0.00,0.00,0.09,-2.24,-0.38,-0.48,0.48,3.24,12.52,0.13,1100,1100,1100,1100,1022,1500,1512,0,735
35163,0,-0.66,3.73,-1.15,-0.006,-0.052,1.056,0.00,0.00,0.00,0.00,0.66,-3.73,-0.38,-0.50,0.50,0.80,4.91,3.38,1100,1100,1100,1100,1022,1500,1512,0,735
35175,0,-0.74,9.59,0.09,-0.091,-0.031,1.114,0.00,0.00,0.00,0.00,0.74,-9.59,-0.38,-0.52,0.50,3.20,-16.85,0.28,1100,1100,1100,1100,1022,1499,1512,0,735
35187,0,1.98,3.71,0.37,-0.057,-0.031,1.067,0.00,0.00,0.00,0.00,-1.98,-3.71,-0.38,-0.52,0.51,-8.90,-10.47,-0.43,1100,1100,1100,1100,1022,1499,1512,0,736
35199,0,-0.60,-5.21,-0.60,-0.003,-0.041,1.060,0.00,0.00,0.00,0.00,0.60,5.21,-0.38,-0.51,0.51,1.52,18.75,2.01,1100,1100,1100,1100,1022,1500,1512,0,736
35211,0,-2.26,-7.67,0.53,0.069,0.002,0.977,0.00,0.00,0.00,0.00,2.26,7.67,-0.38,-0.49,0.50,9.44,8.73,-0.82,1100,1100,1100,1100,1022,1500,1512,0,736
35223,0,-1.10,-11.90,0.31,0.171,-0.037,0.858,0.00,0.00,0.00,0.00,1.10,11.90,-0.38,-0.47,0.49,5.50,23.58,-0.28,1100,1100,1100,1100,1022,1500,1512,0,736
35235,0,-0.64,-3.20,-0.28,0.110,-0.037,0.929,0.00,0.00,0.00,0.00,0.64,3.20,-0.38,-0.46,0.48,-0.01,-9.86,1.18,1100,1100,1100,1100,1022,1500,1512,0,736
35247,0,1.16,-1.21,0.99,0.073,-0.006,0.921,0.00,0.00,0.00,0.00,-1.16,1.21,-0.38,-0.46,0.48,-5.53,-0.03,-1.99,1100,1100,1100,1100,1022,1500,1512,0,736
35259,0,2.14,0.95,-0.14,0.023,-0.032,1.017,0.00,0.00,0.00,0.00,-2.14,-0.95,-0.38,-0.46,0.50,-10.31,-4.25,0.86,1100,1100,1100,1100,1022,1500,1512,0,736
35271,0,-0.91,4.00,-0.45,-0.041,-0.013,1.036,0.00,0.00,-5.60,0.00,-4.69,-4.00,-0.38,-0.47,0.50,-1.58,-18.69,1.63,1100,1100,1100,1100,1022,1472,1512,0,736
35283,0,0.92,-3.04,0.08,0.031,-0.012,0.923,0.00,0.00,-5.60,0.00,-6.52,3.04,-0.40,-0.46,0.51,-4.27,4.05,0.31,1100,1100,1100,1100,1022,1472,1512,0,740
35295,0,0.58,-2.08,-1.08,0.018,-0.036,0.992,0.00,0.00,0.00,0.00,-0.58,2.08,-0.40,-0.45,0.52,-4.41,3.87,3.22,1100,1100,1100,1100,1022,1500,1512,0,740
35307,0,-5.52,-3.53,0.36,0.026,-0.011,0.937,0.00,0.00,0.00,0.00,5.52,3.53,-0.40,-0.45,0.51,22.70,11.05,-0.39,1100,1100,1100,1100,1022,1500,1512,0,740
35319,0,0.87,-0.32,0.13,0.009,-0.038,1.001,0.00,0.00,0.00,0.00,-0.87,0.32,-0.40,-0.45,0.52,-2.00,4.90,0.19,1100,1100,1100,1100,1021,1499,1513,0,740
35331,0,-0.15,1.35,-0.55,-0.021,-0.039,0.997,0.00,0.00,0.00,0.00,0.15,-1.35,-0.40,-0.46,0.52,-5.00,-3.74,1.88,1100,1100,1100,1100,1021,1487,1513,0,740
35343,0,3.10,5.03,0.92,-0.002,0.011,1.000,0.00,0.00,0.00,0.00,-3.10,-5.03,-0.40,-0.46,0.52,-8.86,-15.61,-1.80,1100,1100,1100,1100,1021,1487,1513,0,740
35355,0,5.40,2.44,-0.42,-0.030,-0.038,1.030,0.00,0.00,0.00,0.00,-5.40,-2.44,-0.40,-0.46,0.53,-23.20,-8.90,1.58,1100,1100,1100,1100,1022,1501,1512,0,740
35367,0,-4.06,-0.80,0.01,-0.054,-0.024,1.002,0.00,0.00,0.00,0.00,4.06,0.80,-0.40,-0.46,0.52,17.55,7.01,0.49,1100,1100,1100,1100,1022,1501,1512,0,740
35379,0,-0.86,-4.35,-0.44,-0.003,-0.049,1.025,0.00,0.00,0.00,0.00,0.86,4.35,-0.40,-0.46,0.54,8.96,16.55,1.64,1100,1100,1100,1100,1019,1501,1514,0,746
35391,0,-1.48,-3.18,-1.11,0.024,-0.075,0.990,0.00,0.00,0.00,0.00,1.48,3.18,-0.40,-0.46,0.54,1.47,10.45,3.33,1100,1100,1100,1100,1019,1480,1512,0,746
35403,0,-2.70,5.64,0.59,0.030,-0.023,1.005,0.00,0.00,0.00,0.00,2.70,-5.64,-0.40,-0.46,0.54,11.59,-26.61,-0.93,1100,1100,1100,1100,1022,1480,1512,0,746
35415,0,4.79,5.32,-0.29,0.020,-0.056,1.023,0.00,0.00,0.00,0.00,-4.79,-5.32,-0.40,-0.47,0.55,-21.13,-16.28,1.27,1100,1100,1100,1100,1022,1500,1512,0,746
35427,0,-1.74,1.24,-0.20,-0.028,-0.037,1.051,0.00,0.00,0.00,0.00,1.74,-1.24,-0.40,-0.48,0.55,3.08,9.69,1.06,1100,1100,1100,1100,1022,1500,1512,0,746
35439,0,0.01,-0.85,0.07,-0.032,0.004,1.082,0.00,0.00,0.00,0.00,-0.01,0.85,-0.40,-0.48,0.56,2.97,12.07,0.39,1100,1100,1100,1100,1022,1500,1512,0,746
35451,0,0.98,2.77,-0.48,-0.071,-0.024,1.055,0.00,0.00,0.00,0.00,-0.98,-2.77,-0.40,-0.49,0.57,-7.58,-2.54,1.78,1100,1100,1100,1100,1022,1500,1512,0,746
35463,0,-1.29,5.79,-0.29,-0.078,-0.010,1.088,0.00,0.00,0.00,0.00,1.29,-5.79,-0.40,-0.49,0.57,5.56,-19.13,1.30,1100,1100,1100,1100,1022,1500,1512,0,746
35475,0,3.77,1.00,-0.03,-0.040,-0.028,1.014,0.00,0.00,0.00,0.00,-3.77,-1.00,-0.40,-0.49,0.58,-13.19,-6.36,0.64,1100,1100,1100,1100,1022,1500,1512,0,746
35487,0,0.16,-1.02,-0.52,-0.053,-0.033,1.035,0.00,0.00,0.00,0.00,-0.16,1.02,-0.40,-0.49,0.59,-1.95,7.41,1.89,1100,1100,1100,1100,1022,1500,1512,0,737
35499,0,-2.55,0.28,-0.05,-0.020,0.019,1.028,0.00,0.00,0.00,0.00,2.55,-0.28,-0.40,-0.49,0.59,14.28,1.51,0.72,1100,1100,1100,1100,1022,1494,1512,0,737
35511,0,1.71,2.87,-0.04,-0.044,-0.029,1.029,0.00,0.00,0.00,0.00,-1.71,-2.87,-0.41,-0.50,0.61,-6.25,-1.01,0.71,1100,1100,1100,1100,1022,1485,1512,0,737
35523,0,-1.64,4.93,-1.39,-0.081,-0.035,1.126,0.00,0.00,0.00,0.00,1.64,-4.93,-0.40,-0.52,0.62,5.25,-0.85,4.10,1100,1100,1100,1100,1022,1485,1512,0,737
35535,0,1.38,7.67,0.18,-0.098,-0.012,1.137,0.00,0.00,-5.20,0.00,-6.58,-7.67,-0.42,-0.53,0.63,-5.69,-8.00,0.19,1100,1100,1100,1100,1022,1474,1512,0,737
35547,0,1.62,5.16,-0.25,-0.065,-0.060,1.133,0.00,0.00,-5.20,0.00,-6.82,-5.16,-0.43,-0.55,0.64,-11.66,-4.48,1.26,1100,1100,1100,1100,1022,1474,1512,0,737
35559,0,-2.70,2.76,0.09,-0.021,-0.034,1.071,0.00,0.00,0.00,0.00,2.70,-2.76,-0.42,-0.55,0.63,10.28,-0.70,0.41,1100,1100,1100,1100,1022,1500,1512,0,737
35571,0,1.63,-3.39,0.79,0.039,-0.076,1.027,0.00,0.00,-20.20,0.00,-21.83,3.39,-0.44,-0.55,0.63,-14.44,14.34,-1.33,1100,1100,1100,1100,1022,1399,1513,0,737
35583,0,0.24,-1.00,-0.88,0.047,-0.064,1.035,0.00,0.00,-20.20,0.00,-20.44,1.00,-0.49,-0.55,0.64,-13.25,4.31,2.84,1100,1100,1100,1100,1021,1399,1513,0,738
35595,0,-2.38,1.65,-0.20,0.060,-0.010,1.026,0.00,0.00,0.00,0.00,2.38,-1.65,-0.51,-0.55,0.63,12.63,-9.50,1.13,1100,1100,1100,1100,1022,1500,1512,0,738
35607,0,2.15,5.10,-0.26,0.053,-0.050,1.043,0.00,0.00,0.00,0.00,-2.15,-5.10,-0.51,-0.55,0.65,-8.58,-13.53,1.29,1100,1100,1100,1100,1022,1500,1512,0,738
35619,0,-4.21,4.33,-0.36,0.038,-0.031,1.029,0.00,0.00,0.00,0.00,4.21,-4.33,-0.50,-0.57,0.65,14.85,-2.68,1.56,1100,1100,1100,1100,1022,1500,1512,0,738
35631,0,3.55,3.88,0.63,0.016,-0.030,1.074,0.00,0.00,0.00,0.00,-3.55,-3.88,-0.51,-0.58,0.65,-10.40,1.86,-0.93,1100,1100,1100,1100,1022,1500,1512,0,738
35643,0,1.73,1.45,-0.76,-0.015,-0.047,1.042,0.00,0.00,0.00,0.00,-1.73,-1.45,-0.51,-0.59,0.67,-12.70,8.33,2.56,1100,1100,1100,1100,1022,1500,1512,0,738
35655,0,-2.08,5.15,-0.37,-0.072,-0.012,1.121,0.00,0.00,0.00,0.00,2.08,-5.15,-0.51,-0.59,0.67,10.31,-10.63,1.59,1100,1100,1100,1100,1022,1500,1512,0,738
35667,0,2.84,-1.65,0.51,-0.029,-0.045,1.055,0.00,0.00,0.00,0.00,-2.84,1.65,-0.51,-0.59,0.67,-12.85,3.43,-0.59,1100,1100,1100,1100,1022,1500,1512,0,738
35679,0,-2.90,-1.54,-0.37,-0.005,-0.049,1.025,0.00,0.00,0.00,0.00,2.90,1.54,-0.50,-0.59,0.68,8.43,4.61,1.59,1100,1100,1100,1100,1022,1500,1512,0,734
35691,0,-1.31,-3.99,-0.35,0.030,-0.042,1.049,0.00,0.00,0.00,0.00,1.31,3.99,-0.51,-0.58,0.68,7.56,5.20,1.55,1100,1100,1100,1100,1022,1500,1512,0,734
35703,0,-0.07,-0.17,-0.65,0.043,-0.103,0.982,0.00,0.00,0.00,0.00,0.07,0.17,-0.50,-0.58,0.69,-2.44,3.78,2.32,1100,1100,1100,1100,1022,1500,1512,0,734
35715,0,-0.41,5.11,-0.17,-0.006,-0.054,1.083,0.00,0.00,0.00,0.00,0.41,-5.11,-0.50,-0.59,0.69,0.42,-19.94,1.11,1100,1100,1100,1100,1022,1500,1512,0,734
35727,0,3.50,3.43,0.89,0.020,-0.061,1.061,0.00,0.00,0.00,0.00,-3.50,-3.43,-0.51,-0.60,0.69,-12.96,1.57,-1.54,1100,1100,1100,1100,1022,1500,1512,0,734
35739,0,1.09,5.60,-0.30,-0.028,-0.070,1.102,0.00,0.00,0.00,0.00,-1.09,-5.60,-0.51,-0.61,0.71,-5.19,-5.11,1.45,1100,1100,1100,1100,1022,1500,1512,0,734
35751,0,-3.15,2.06,-1.36,-0.007,-0.068,1.133,0.00,0.00,0.00,0.00,3.15,-2.06,-0.51,-0.62,0.72,14.48,9.02,4.13,1100,1100,1100,1100,1022,1500,1512,0,734
35763,0,-0.87,2.94,-0.23,0.039,-0.099,1.024,0.00,0.00,0.00,0.00,0.87,-2.94,-0.51,-0.63,0.73,3.93,-3.62,1.32,1100,1100,1100,1100,1022,1500,1512,0,734
35775,0,0.47,-0.74,-0.72,0.073,-0.067,1.027,0.00,0.00,0.00,0.00,-0.47,0.74,-0.51,-0.62,0.74,-3.64,1.38,2.54,1100,1100,1100,1100,1022,1494,1508,0,734
35787,0,-0.24,-4.84,0.53,0.074,-0.017,0.984,0.00,0.00,0.00,0.00,0.24,4.84,-0.51,-0.61,0.73,1.20,8.37,-0.60,1100,1100,1100,1100,1022,1494,1508,0,746
35799,0,0.82,-2.79,0.35,0.057,-0.039,0.987,0.00,0.00,-5.20,0.00,-6.02,2.79,-0.52,-0.61,0.75,-6.07,6.92,-0.13,1100,1100,1100,1100,1029,1474,1512,0,746
35811,0,-1.19,1.00,-0.62,0.006,-0.012,1.073,0.00,0.00,0.00,0.00,1.19,-1.00,-0.53,-0.61,0.75,2.63,-9.85,2.30,1100,1100,1100,1100,1029,1500,1512,0,746
35823,0,1.06,-1.37,0.92,0.050,-0.027,0.963,0.00,0.00,0.00,0.00,-1.06,1.37,-0.53,-0.61,0.74,-3.38,1.87,-1.55,1100,1100,1100,1100,1022,1500,1512,0,746
35835,0,1.33,3.78,-0.96,0.018,-0.039,1.010,0.00,0.00,0.00,0.00,-1.33,-3.78,-0.53,-0.61,0.76,-6.92,-16.62,3.16,1100,1100,1100,1100,1022,1497,1512,0,746
35847,0,-2.01,3.65,-0.11,-0.039,-0.016,1.026,0.00,0.00,0.00,0.00,2.01,-3.65,-0.53,-0.62,0.75,10.03,-7.78,1.01,1100,1100,1100,1100,1022,1497,1512,0,746
35859,0,0.92,-0.02,0.39,-0.039,-0.031,1.010,0.00,0.00,0.00,0.00,-0.92,0.02,-0.53,-0.62,0.75,-1.63,4.48,-0.21,1100,1100,1100,1100,1022,1499,1512,0,746
35871,0,-0.14,-2.35,-0.71,-0.036,-0.037,1.045,0.00,0.00,0.00,0.00,0.14,2.35,-0.53,-0.62,0.75,-0.02,14.31,2.52,1100,1100,1100,1100,1022,1500,1512,0,746
35883,0,-2.25,-1.79,0.54,-0.017,0.001,1.009,0.00,0.00,0.00,0.00,2.25,1.79,-0.53,-0.62,0.74,11.50,3.17,-0.60,1100,1100,1100,1100,1023,1500,1512,0,734
35895,0,1.78,2.00,0.11,-0.020,-0.030,0.992,0.00,0.00,0.00,0.00,-1.78,-2.00,-0.53,-0.62,0.74,-6.17,-9.99,0.47,1100,1100,1100,1100,1022,1499,1513,0,734
35907,0,-1.76,-3.95,-0.23,-0.015,-0.015,1.017,0.00,0.00,0.00,0.00,1.76,3.95,-0.53,-0.61,0.73,4.43,11.11,1.31,1100,1100,1100,1100,1022,1499,1513,0,734
35919,0,0.50,-4.68,0.82,0.005,-0.014,1.000,0.00,0.00,0.00,0.00,-0.50,4.68,-0.53,-0.61,0.72,-0.94,12.60,-1.32,1100,1100,1100,1100,1022,1499,1513,0,734
35931,0,-0.71,-3.96,-0.22,0.024,-0.048,0.983,0.00,0.00,0.00,0.00,0.71,3.96,-0.53,-0.60,0.72,-1.35,4.80,1.28,1100,1100,1100,1100,1022,1500,1512,0,734
35943,0,-1.57,-1.66,0.70,0.024,-0.043,0.999,0.00,0.00,0.00,0.00,1.57,1.66,-0.53,-0.59,0.71,5.23,-7.97,-1.04,1100,1100,1100,1100,1022,1500,1512,0,734
35955,0,3.43,-2.13,0.74,0.083,-0.074,0.926,0.00,0.00,0.00,0.00,-3.43,2.13,-0.53,-0.58,0.70,-15.60,-8.06,-1.15,1100,1100,1100,1100,1022,1500,1512,0,734
35967,0,0.65,-0.80,-0.68,0.070,-0.068,0.980,0.00,0.00,0.00,0.00,-0.65,0.80,-0.53,-0.58,0.70,-4.10,-5.55,2.40,1100,1100,1100,1100,1022,1500,1512,0,734
35979,0,-2.27,-0.86,-0.05,0.062,-0.055,0.986,0.00,0.00,0.00,0.00,2.27,0.86,-0.53,-0.58,0.69,12.56,3.86,0.81,1100,1100,1100,1100,1022,1500,1512,0,758
35991,0,-2.55,3.29,-0.16,0.018,-0.066,1.029,0.00,0.00,0.00,0.00,2.55,-3.29,-0.53,-0.59,0.69,10.49,-6.05,1.08,1100,1100,1100,1100,1022,1494,1512,0,758
36003,0,-1.16,1.79,-0.11,-0.027,-0.067,1.080,0.00,0.00,0.00,0.00,1.16,-1.79,-0.53,-0.59,0.69,2.42,4.04,0.96,1100,1100,1100,1100,1022,1494,1512,0,758
36015,0,3.30,4.24,0.82,-0.054,-0.032,1.060,0.00,0.00,0.00,0.00,-3.30,-4.24,-0.53,-0.60,0.69,-16.10,-7.15,-1.35,1100,1100,1100,1100,1022,1500,1512,0,758
36027,0,2.77,-3.42,0.11,-0.056,-0.048,1.075,0.00,0.00,0.00,0.00,-2.77,3.42,-0.53,-0.60,0.69,-12.78,11.01,0.41,1100,1100,1100,1100,1022,1500,1512,0,758
36039,0,-0.61,-0.39,-0.03,-0.083,-0.035,1.071,0.00,0.00,0.00,0.00,0.61,0.39,-0.53,-0.59,0.68,0.72,-9.24,0.76,1100,1100,1100,1100,1022,1500,1512,0,758
36051,0,-3.01,-9.44,0.89,-0.005,-0.033,0.949,0.00,0.00,0.00,0.00,3.01,9.44,-0.53,-0.57,0.68,12.71,18.92,-1.54,1100,1100,1100,1100,1022,1500,1512,0,758
36063,0,-0.84,-5.60,-1.18,0.017,-0.060,1.002,0.00,0.00,0.00,0.00,0.84,5.60,-0.52,-0.56,0.68,1.54,9.06,3.62,1100,1100,1100,1100,1022,1500,1512,0,758
36075,0,-4.00,-4.60,0.13,0.048,-0.035,0.928,0.00,0.00,0.00,0.00,4.00,4.60,-0.52,-0.55,0.67,12.98,-1.00,0.35,1100,1100,1100,1100,1022,1498,1512,0,758
36087,0,2.71,1.50,-0.00,0.074,-0.076,0.959,0.00,0.00,0.00,0.00,-2.71,-1.50,-0.53,-0.56,0.68,-10.64,-9.64,0.68,1100,1100,1100,1100,1022,1498,1512,0,733
36099,0,0.68,2.44,-0.17,0.033,-0.056,1.002,0.00,0.00,-4.60,0.00,-5.28,-2.44,-0.53,-0.55,0.67,-10.65,-14.44,1.09,1100,1100,1100,1100,1022,1477,1512,0,733
36111,0,0.36,2.83,1.71,0.025,-0.024,0.992,0.00,0.00,0.00,0.00,-0.36,-2.83,-0.54,-0.56,0.66,2.30,1.15,-3.61,1100,1100,1100,1100,1022,1500,1512,0,733
36123,0,2.69,3.99,-0.74,-0.024,-0.044,1.076,0.00,0.00,0.00,0.00,-2.69,-3.99,-0.54,-0.57,0.68,-12.22,-6.90,2.53,1100,1100,1100,1100,1022,1500,1512,0,733
36135,0,-3.92,1.19,-0.50,-0.039,-0.035,1.041,0.00,0.00,0.00,0.00,3.92,-1.19,-0.54,-0.58,0.68,15.54,8.08,1.92,1100,1100,1100,1100,1022,1500,1513,0,733
36147,0,1.14,1.16,-0.41,-0.001,-0.063,1.036,0.00,0.00,0.00,0.00,-1.14,-1.16,-0.55,-0.58,0.69,-1.51,-0.25,1.71,1100,1100,1100,1100,1022,1500,1513,0,733
36159,0,-0.39,-1.57,-0.78,0.013,-0.065,1.011,0.00,0.00,0.00,0.00,0.39,1.57,-0.54,-0.58,0.69,-3.33,5.64,2.63,1100,1100,1100,1100,1022,1500,1512,0,733
36171,0,-3.06,-1.88,1.03,0.030,-0.019,0.990,0.00,0.00,0.00,0.00,3.06,1.88,-0.54,-0.58,0.68,13.12,2.94,-1.88,1100,1100,1100,1100,1022,1500,1512,0,733
36183,0,2.89,1.48,-0.04,0.048,-0.038,1.012,0.00,0.00,0.00,0.00,-2.89,-1.48,-0.54,-0.58,0.70,-14.46,-7.10,0.81,1100,1100,1100,1100,1022,1500,1512,0,760
36195,0,-1.70,0.32,-0.70,0.007,-0.033,1.027,0.00,0.00,0.00,0.00,1.70,-0.32,-0.54,-0.58,0.70,2.55,-0.66,2.44,1100,1100,1100,1100,1023,1499,1512,0,760
36207,0,1.23,2.64,0.11,0.034,0.000,1.025,0.00,0.00,0.00,0.00,-1.23,-2.64,-0.54,-0.59,0.71,-2.61,-2.23,0.43,1100,1100,1100,1100,1023,1499,1512,0,760
36219,0,0.64,2.26,-0.45,-0.004,-0.026,1.015,0.00,0.00,0.00,0.00,-0.64,-2.26,-0.54,-0.59,0.72,-6.23,-4.35,1.83,1100,1100,1100,1100,1024,1501,1512,0,760
36231,0,-2.12,-0.71,0.10,-0.024,-0.018,1.028,0.00,0.00,0.00,0.00,2.12,0.71,-0.54,-0.59,0.72,9.03,7.34,0.48,1100,1100,1100,1100,1024,1500,1512,0,760
36243,0,2.17,-6.52,-0.25,0.047,-0.041,0.944,0.00,0.00,0.00,0.00,-2.17,6.52,-0.54,-0.58,0.73,-6.88,11.32,1.35,1100,1100,1100,1100,1029,1500,1512,0,760
36255,0,1.42,-3.46,-0.35,0.045,-0.029,0.967,0.00,0.00,0.00,0.00,-1.42,3.46,-0.54,-0.57,0.73,-6.96,-0.82,1.60,1100,1100,1100,1100,1030,1500,1512,0,760
36267,0,-2.03,3.96,0.16,0.042,0.017,0.957,0.00,0.00,0.00,0.00,2.03,-3.96,-0.54,-0.56,0.73,10.52,-29.03,0.34,1100,1100,1100,1100,1030,1500,1512,0,760
36279,0,2.82,2.44,-0.18,0.019,-0.011,0.992,0.00,0.00,0.00,0.00,-2.82,-2.44,-0.54,-0.57,0.74,-9.49,-6.31,1.20,1100,1100,1100,1100,1034,1500,1512,0,736
36291,0,-1.19,-1.98,-0.92,-0.015,-0.017,1.047,0.00,0.00,0.00,0.00,1.19,1.98,-0.54,-0.57,0.75,1.44,14.16,3.04,1100,1100,1100,1100,1034,1500,1512,0,736
36303,0,-1.89,-3.42,0.13,0.016,-0.021,1.039,0.00,0.00,0.00,0.00,1.89,3.42,-0.54,-0.57,0.75,9.72,19.87,0.43,1100,1100,1100,1100,1034,1500,1512,0,736
36315,0,1.99,-1.16,0.04,0.019,-0.068,1.042,0.00,0.00,0.00,0.00,-1.99,1.16,-0.54,-0.57,0.76,-11.24,3.27,0.65,1100,1100,1100,1100,1041,1496,1512,0,736
36327,0,-2.79,3.09,0.33,0.037,-0.041,0.998,0.00,0.00,0.00,0.00,2.79,-3.09,-0.54,-0.57,0.75,7.64,-22.14,-0.09,1100,1100,1100,1100,1041,1496,1512,0,736
36339,0,3.53,2.17,0.51,0.075,-0.047,0.980,0.00,0.00,0.00,0.00,-3.53,-2.17,-0.54,-0.57,0.75,-12.28,-16.46,-0.52,1100,1100,1100,1100,1043,1488,1512,0,736
36351,0,0.89,-1.79,-0.65,0.076,-0.068,0.976,0.00,0.00,0.00,0.00,-0.89,1.79,-0.54,-0.56,0.75,-7.92,6.73,2.37,1100,1100,1100,1100,1043,1500,1512,0,736
36363,0,-4.55,-5.60,0.46,0.087,-0.012,0.958,0.00,0.00,0.00,0.00,4.55,5.60,-0.54,-0.56,0.74,22.37,16.88,-0.40,1100,1100,1100,1100,1043,1500,1512,0,736
36375,0,1.84,-3.74,0.07,0.087,-0.065,0.976,0.00,0.00,0.00,0.00,-1.84,3.74,-0.54,-0.55,0.74,-6.63,10.27,0.57,1100,1100,1100,1100,1044,1499,1512,0,736
36387,0,-3.36,0.26,-0.31,0.064,-0.064,0.984,0.00,0.00,0.00,0.00,3.36,-0.26,-0.54,-0.55,0.73,9.96,-4.36,1.50,1100,1100,1100,1100,1044,1499,1512,0,738
36399,0,3.83,1.51,0.52,0.064,-0.045,1.011,0.00,0.00,0.00,0.00,-3.83,-1.51,-0.55,-0.55,0.73,-11.41,-12.85,-0.56,1100,1100,1100,1100,1046,1500,1512,0,738
36411,0,1.96,-1.62,-0.33,0.055,-0.074,0.964,0.00,0.00,0.00,0.00,-1.96,1.62,-0.54,-0.55,0.73,-12.48,1.56,1.55,1100,1100,1100,1100,1046,1499,1512,0,738
36423,0,-3.35,-0.19,0.53,0.031,-0.024,0.996,0.00,0.00,0.00,0.00,3.35,0.19,-0.54,-0.54,0.72,16.05,-5.46,-0.60,1100,1100,1100,1100,1048,1499,1512,0,738
36435,0,3.35,-3.39,0.90,0.045,-0.052,0.970,0.00,0.00,0.00,0.00,-3.35,3.39,-0.55,-0.54,0.72,-12.99,4.87,-1.53,1100,1100,1100,1100,1049,1501,1511,0,738
36447,0,-0.89,-2.94,-0.21,0.006,-0.049,0.984,0.00,0.00,0.00,0.00,0.89,2.94,-0.54,-0.53,0.71,0.22,3.91,1.24,1100,1100,1100,1100,1049,1501,1511,0,738
36459,0,-0.77,-0.93,-0.36,0.023,-0.034,1.055,0.00,0.00,0.00,0.00,0.77,0.93,-0.55,-0.53,0.70,6.74,-0.32,1.60,1100,1100,1100,1100,1047,1500,1513,0,738
36471,0,-0.66,5.24,-0.16,-0.002,-0.086,1.043,0.00,0.00,0.00,0.00,0.66,-5.24,-0.54,-0.54,0.71,0.02,-15.15,1.11,1100,1100,1100,1100,1047,1500,1512,0,738
36483,0,-3.62,4.92,-0.08,-0.019,-0.061,1.087,0.00,0.00,0.00,0.00,3.62,-4.92,-0.54,-0.55,0.71,12.45,-5.65,0.92,1100,1100,1100,1100,1049,1500,1512,0,738
36495,0,3.97,6.52,0.50,-0.037,-0.056,1.093,0.00,0.00,0.00,0.00,-3.97,-6.52,-0.54,-0.57,0.71,-16.06,-1.44,-0.54,1100,1100,1100,1100,1049,1500,1512,0,738
36507,0,0.93,0.84,-0.29,-0.060,-0.058,1.092,0.00,0.00,0.00,0.00,-0.93,-0.84,-0.54,-0.58,0.73,-8.63,13.14,1.46,1100,1100,1100,1100,1049,1500,1512,0,738
36519,0,-0.74,4.29,-0.91,-0.091,-0.033,1.118,0.00,0.00,0.00,0.00,0.74,-4.29,-0.54,-0.58,0.74,4.60,-8.07,3.00,1100,1100,1100,1100,1048,1493,1512,0,738
36531,0,0.09,-7.01,0.70,-0.026,-0.048,1.019,0.00,0.00,0.00,0.00,-0.09,7.01,-0.54,-0.57,0.74,-1.58,21.07,-1.00,1100,1100,1100,1100,1048,1500,1512,0,738
36543,0,-0.28,-2.37,-0.37,0.016,-0.058,1.015,0.00,0.00,0.00,0.00,0.28,2.37,-0.54,-0.56,0.75,-0.34,-4.01,1.66,1100,1100,1100,1100,1049,1500,1512,0,738
36555,0,-2.52,-5.95,0.04,0.086,-0.015,0.932,0.00,0.00,0.00,0.00,2.52,5.95,-0.54,-0.55,0.73,10.08,1.74,0.62,1100,1100,1100,1100,1050,1500,1512,0,738
36567,0,1.82,3.22,-0.04,0.068,-0.047,0.953,0.00,0.00,0.00,0.00,-1.82,-3.22,-0.54,-0.55,0.75,-7.30,-18.65,0.85,1100,1100,1100,1100,1050,1500,1512,0,738
36579,0,-0.76,3.29,-1.06,0.005,-0.005,1.006,0.00,0.00,0.00,0.00,0.76,-3.29,-0.54,-0.55,0.75,-0.77,-11.70,3.41,1100,1100,1100,1100,1049,1500,1512,0,800
36591,0,0.44,-0.43,0.74,-0.015,0.004,1.017,0.00,0.00,0.00,0.00,-0.44,0.43,-0.54,-0.56,0.76,1.03,15.23,-1.09,1100,1100,1100,1100,1049,1500,1512,0,800
36603,0,2.21,1.91,-0.45,-0.059,-0.016,1.040,0.00,0.00,0.00,0.00,-2.21,-1.91,-0.54,-0.56,0.78,-11.88,-2.14,1.90,1100,1100,1100,1100,1049,1500,1512,0,800
36615,0,-3.12,-1.48,-0.79,-0.065,-0.020,1.045,0.00,0.00,0.00,0.00,3.12,1.48,-0.54,-0.57,0.78,12.70,9.92,2.75,1100,1100,1100,1100,1050,1517,1495,0,800
36627,0,2.65,3.57,0.09,-0.057,-0.051,1.050,0.00,0.00,0.00,0.00,-2.65,-3.57,-0.54,-0.57,0.79,-8.74,-13.83,0.58,1100,1100,1100,1100,1050,1517,1495,0,800
36639,0,-0.38,1.96,-0.87,-0.036,-0.028,1.022,0.00,0.00,0.00,0.00,0.38,-1.96,-0.54,-0.57,0.80,-1.87,-9.03,2.98,1100,1100,1100,1100,1050,1500,1512,0,800
36651,0,-1.53,-1.96,0.82,-0.004,0.000,1.021,0.00,0.00,0.00,0.00,1.53,1.96,-0.54,-0.57,0.79,9.95,7.60,-1.27,1100,1100,1100,1100,1050,1500,1512,0,800
36663,0,2.21,-0.56,0.10,-0.007,-0.026,0.988,0.00,0.00,0.00,0.00,-2.21,0.56,-0.54,-0.57,0.80,-10.10,2.46,0.56,1100,1100,1100,1100,1056,1500,1512,0,800
36675,0,-2.06,-1.41,-0.98,-0.043,-0.027,1.067,0.00,0.00,0.00,0.00,2.06,1.41,-0.54,-0.57,0.80,7.12,6.69,3.25,1100,1100,1100,1100,1056,1500,1512,0,800
36687,0,1.99,2.26,-0.06,-0.054,-0.016,1.078,0.00,0.00,0.00,0.00,-1.99,-2.26,-0.54,-0.58,0.81,-6.24,-2.38,0.97,1100,1100,1100,1100,1056,1500,1512,0,732
36699,0,-0.79,6.44,-0.34,-0.061,-0.018,1.063,0.00,0.00,0.00,0.00,0.79,-6.44,-0.54,-0.58,0.82,-1.23,-18.64,1.68,1100,1100,1100,1100,1054,1500,1513,0,732
36711,0,-1.40,3.60,0.27,-0.049,-0.015,1.100,0.00,0.00,0.00,0.00,1.40,-3.60,-0.54,-0.59,0.82,5.84,-7.29,0.15,1100,1100,1100,1100,1054,1501,1511,0,732
36723,0,1.37,-3.04,0.17,0.005,-0.039,0.977,0.00,0.00,0.00,0.00,-1.37,3.04,-0.54,-0.59,0.83,-8.47,14.16,0.39,1100,1100,1100,1100,1056,1501,1511,0,732
36735,0,-1.34,-3.46,-0.79,-0.005,-0.030,1.042,0.00,0.00,0.00,0.00,1.34,3.46,-0.54,-0.58,0.83,3.66,13.37,2.81,1100,1100,1100,1100,1057,1500,1512,0,732
36747,0,-1.23,-1.99,0.06,-0.010,0.012,0.993,0.00,0.00,0.00,0.00,1.23,1.99,-0.54,-0.58,0.83,4.99,0.45,0.68,1100,1100,1100,1100,1057,1500,1512,0,732
36759,0,0.02,6.15,-0.22,-0.070,0.010,1.021,0.00,0.00,0.00,0.00,-0.02,-6.15,-0.54,-0.59,0.85,-0.45,-21.64,1.40,1100,1100,1100,1100,1058,1500,1512,0,732
36771,0,0.29,-0.04,-0.92,-0.074,0.002,1.106,0.00,0.00,0.00,0.00,-0.29,0.04,-0.54,-0.59,0.85,-2.77,2.85,3.16,1100,1100,1100,1100,1058,1500,1512,0,732
36783,0,-0.08,-1.70,0.57,-0.046,-0.016,1.028,0.00,0.00,0.00,0.00,0.08,1.70,-0.54,-0.59,0.86,0.41,12.50,-0.58,1100,1100,1100,1100,1058,1500,1512,0,768
36795,0,1.56,-1.41,-0.20,-0.033,-0.043,1.070,0.00,0.00,0.00,0.00,-1.56,1.41,-0.54,-0.59,0.87,-6.71,1.87,1.36,1100,1100,1100,1100,1059,1500,1512,0,768
36807,0,-0.19,3.36,0.30,-0.036,-0.023,1.046,0.00,0.00,0.00,0.00,0.19,-3.36,-0.54,-0.59,0.85,-0.71,-10.61,0.10,1100,1100,1100,1100,1059,1500,1512,0,768
36819,0,0.91,2.49,0.60,-0.052,-0.023,1.046,0.00,0.00,0.00,0.00,-0.91,-2.49,-0.54,-0.59,0.86,-2.21,-16.04,-0.64,1100,1100,1100,1100,1062,1484,1512,0,768
36831,0,0.04,-4.98,-0.98,0.020,-0.052,1.049,0.00,0.00,0.00,0.00,-0.04,4.98,-0.54,-0.59,0.85,-1.78,17.72,3.30,1100,1100,1100,1100,1062,1493,1512,0,768
36843,0,-4.20,-4.00,0.76,0.064,-0.028,0.975,0.00,0.00,0.00,0.00,4.20,4.00,-0.54,-0.58,0.83,17.44,6.45,-1.07,1100,1100,1100,1100,1062,1493,1512,0,768
36855,0,0.28,-2.57,0.11,0.098,-0.064,0.973,0.00,0.00,0.00,0.00,-0.28,2.57,-0.54,-0.58,0.84,-1.08,5.94,0.56,1100,1100,1100,1100,1066,1500,1512,0,768
36867,0,-0.23,2.62,-0.25,0.056,-0.049,0.999,0.00,0.00,0.00,0.00,0.23,-2.62,-0.54,-0.58,0.83,-3.06,-9.37,1.46,1100,1100,1100,1100,1066,1500,1512,0,768
36879,0,4.45,4.91,1.01,0.021,-0.021,1.003,0.00,0.00,0.00,0.00,-4.45,-4.91,-0.54,-0.58,0.83,-15.13,-20.32,-1.70,1100,1100,1100,1100,1067,1496,1512,0,756
36891,0,3.07,2.94,-1.09,0.026,-0.054,1.037,0.00,0.00,0.00,0.00,-3.07,-2.94,-0.54,-0.59,0.85,-13.90,-4.21,3.56,1100,1100,1100,1100,1067,1495,1512,0,756
36903,0,-3.65,4.46,0.05,-0.015,-0.036,1.037,0.00,0.00,0.00,0.00,3.65,-4.46,-0.54,-0.60,0.84,17.47,-7.27,0.72,1100,1100,1100,1100,1069,1495,1512,0,756
36915,0,-0.49,-4.71,0.08,0.027,-0.058,0.996,0.00,0.00,0.00,0.00,0.49,4.71,-0.54,-0.59,0.86,3.86,18.38,0.66,1100,1100,1100,1100,1069,1497,1512,0,756
36927,0,-1.21,-5.52,-0.71,0.032,-0.063,0.999,0.00,0.00,0.00,0.00,1.21,5.52,-0.54,-0.59,0.85,1.62,21.43,2.62,1100,1100,1100,1100,1069,1497,1512,0,756
36939,0,0.54,-2.11,0.64,0.038,-0.012,1.006,0.00,0.00,0.00,0.00,-0.54,2.11,-0.54,-0.58,0.84,-1.93,-7.27,-0.75,1100,1100,1100,1100,1071,1499,1512,0,756
36951,0,1.80,-6.42,-0.12,0.110,-0.072,0.952,0.00,0.00,0.00,0.00,-1.80,6.42,-0.54,-0.57,0.85,-9.98,8.39,1.16,1100,1100,1100,1100,1071,1499,1513,0,756
36963,0,-2.47,-3.12,0.45,0.079,-0.062,0.979,0.00,0.00,0.00,0.00,2.47,3.12,-0.54,-0.55,0.83,7.26,-9.96,-0.28,1100,1100,1100,1100,1070,1499,1513,0,756
36975,0,1.36,-3.14,0.88,0.137,-0.064,0.917,0.00,0.00,0.00,0.00,-1.36,3.14,-0.54,-0.55,0.83,-5.10,1.80,-1.36,1100,1100,1100,1100,1073,1495,1513,0,756
36987,0,1.83,2.56,-0.52,0.062,-0.068,0.983,0.00,0.00,0.00,0.00,-1.83,-2.56,-0.54,-0.55,0.83,-10.30,-12.96,2.12,1100,1100,1100,1100,1073,1495,1513,0,736
36999,0,-2.10,2.64,-0.65,0.042,-0.053,1.020,0.00,0.00,0.00,0.00,2.10,-2.64,-0.54,-0.56,0.84,10.28,-0.91,2.45,1100,1100,1100,1100,1075,1501,1512,0,736
37011,0,-0.12,6.21,-0.51,-0.010,-0.078,1.055,0.00,0.00,0.00,0.00,0.12,-6.21,-0.54,-0.57,0.85,1.33,-13.84,2.13,1100,1100,1100,1100,1075,1493,1512,0,736
37023,0,-0.86,-0.19,-0.42,-0.008,-0.087,1.067,0.00,0.00,0.00,0.00,0.86,0.19,-0.54,-0.57,0.85,2.12,14.85,1.89,1100,1100,1100,1100,1080,1493,1512,0,736
37035,0,0.46,6.19,0.71,-0.002,-0.026,1.056,0.00,0.00,0.00,0.00,-0.46,-6.19,-0.54,-0.58,0.85,-0.83,-12.53,-0.93,1100,1100,1100,1100,1080,1500,1512,0,736
37047,0,2.51,-0.54,-0.07,0.009,-0.061,1.075,0.00,0.00,0.00,0.00,-2.51,0.54,-0.54,-0.59,0.87,-9.58,9.46,1.03,1100,1100,1100,1100,1080,1500,1512,0,736
37059,0,-0.46,2.26,-0.93,-0.024,-0.037,1.091,0.00,0.00,0.00,0.00,0.46,-2.26,-0.54,-0.59,0.87,0.40,-0.43,3.19,1100,1100,1100,1100,1081,1500,1512,0,736
37071,0,-0.03,-2.57,0.28,0.034,-0.028,1.020,0.00,0.00,0.00,0.00,0.03,2.57,-0.54,-0.59,0.88,2.62,7.11,0.19,1100,1100,1100,1100,1081,1491,1512,0,736
37083,0,1.64,1.86,-0.91,0.037,-0.053,1.045,0.00,0.00,0.00,0.00,-1.64,-1.86,-0.54,-0.59,0.89,-9.28,-4.23,3.17,1100,1100,1100,1100,1080,1491,1512,0,734
37095,0,-4.85,4.00,-0.12,0.001,-0.018,1.003,0.00,0.00,0.00,0.00,4.85,-4.00,-0.54,-0.60,0.89,17.13,-14.06,1.19,1100,1100,1100,1100,1081,1500,1512,0,734
37107,0,0.88,-0.17,-0.08,0.039,-0.054,0.995,0.00,0.00,0.00,0.00,-0.88,0.17,-0.54,-0.60,0.90,-3.25,6.07,1.10,1100,1100,1100,1100,1081,1500,1512,0,734
37119,0,-0.50,0.13,-0.72,-0.004,-0.030,1.004,0.00,0.00,0.00,0.00,0.50,-0.13,-0.54,-0.60,0.91,-5.28,0.30,2.72,1100,1100,1100,1100,1081,1488,1512,0,734
37131,0,-1.02,-4.72,0.91,0.032,0.028,0.985,0.00,0.00,0.00,0.00,1.02,4.72,-0.54,-0.59,0.90,5.47,12.48,-1.36,1100,1100,1100,1100,1081,1500,1512,0,734
37143,0,3.46,-0.22,-0.29,0.023,-0.025,1.011,0.00,0.00,0.00,0.00,-3.46,0.22,-0.54,-0.59,0.91,-16.03,-3.93,1.63,1100,1100,1100,1100,1082,1500,1512,0,734
37155,0,-4.08,-1.96,0.09,0.043,-0.039,0.960,0.00,0.00,0.00,0.00,4.08,1.96,-0.53,-0.58,0.90,13.07,-4.35,0.67,1100,1100,1100,1100,1091,1500,1512,0,734
37167,0,2.18,-2.57,0.24,0.112,-0.072,0.943,0.00,0.00,0.00,0.00,-2.18,2.57,-0.54,-0.58,0.90,-4.22,0.73,0.31,1100,1100,1100,1100,1091,1500,1512,0,734
37179,0,1.34,-0.06,-0.55,0.075,-0.068,0.945,0.00,0.00,0.00,8.60,-1.34,8.66,-0.53,-0.55,0.90,-10.87,-3.47,2.28,1100,1100,1100,1100,1054,1506,1543,0,738
37191,0,-5.29,2.77,0.45,0.033,-0.013,0.996,0.00,0.00,0.00,0.00,5.29,-2.77,-0.53,-0.54,0.89,21.60,-7.34,-0.24,1100,1100,1100,1100,1054,1500,1512,0,738
37203,0,1.58,-0.97,0.30,0.009,-0.029,0.987,0.00,0.00,0.00,0.00,-1.58,0.97,-0.53,-0.54,0.90,-6.13,5.11,0.16,1100,1100,1100,1100,1095,1500,1512,0,738
37215,0,-1.75,-6.28,-0.53,0.015,-0.050,0.957,0.00,0.00,0.00,0.00,1.75,6.28,-0.53,-0.54,0.90,2.61,27.69,2.22,1100,1100,1100,1100,1095,1500,1513,0,738
37227,0,0.52,-1.50,-0.29,0.010,-0.027,1.026,0.00,0.00,0.00,0.00,-0.52,1.50,-0.53,-0.54,0.89,0.46,-1.89,1.62,1100,1100,1100,1100,1095,1500,1513,0,738
37239,0,1.05,-0.57,-0.03,0.001,-0.083,0.981,0.00,0.00,0.00,0.00,-1.05,0.57,-0.53,-0.53,0.89,-8.52,-8.34,0.96,1100,1100,1100,1100,1097,1499,1512,0,738
37251,0,-3.08,4.04,0.81,-0.027,-0.049,1.057,0.00,0.00,0.00,0.00,3.08,-4.04,-0.53,-0.53,0.88,10.77,-19.68,-1.15,1100,1100,1100,1100,1097,1500,1512,0,738
37263,0,4.17,5.55,0.82,-0.019,-0.058,1.062,0.00,0.00,0.00,0.00,-4.17,-5.55,-0.53,-0.54,0.88,-16.01,-16.27,-1.17,1100,1100,1100,1100,1098,1500,1512,0,738
37275,0,0.23,2.44,-0.77,-0.060,-0.083,1.080,0.00,0.00,0.00,0.00,-0.23,-2.44,-0.53,-0.55,0.90,-6.19,5.44,2.83,1100,1100,1100,1100,1099,1501,1512,0,738
37287,0,-2.41,3.48,-1.32,-0.066,-0.060,1.129,0.00,0.00,0.00,0.00,2.41,-3.48,-0.53,-0.56,0.91,12.65,4.23,4.20,1100,1100,1100,1100,1099,1501,1512,0,734
37299,0,0.09,1.60,0.05,-0.080,-0.072,1.071,0.00,0.00,0.00,0.00,-0.09,-1.60,-0.53,-0.56,0.91,-2.84,-0.82,0.78,1100,1100,1100,1100,1099,1500,1512,0,734
37311,0,-3.21,-4.12,-0.48,-0.031,-0.086,1.060,0.00,0.00,-4.80,0.00,-1.59,4.12,-0.53,-0.56,0.92,8.35,14.65,2.13,1100,1100,1100,1100,1099,1476,1514,0,734
37323,0,0.47,-8.55,0.58,0.053,-0.030,0.969,0.00,0.00,-4.80,0.00,-5.27,8.55,-0.54,-0.54,0.91,-4.61,11.69,-0.53,1100,1100,1100,1100,1098,1476,1514,0,734
37335,0,0.22,-12.29,0.21,0.123,-0.071,0.890,0.00,0.00,0.00,0.00,-0.22,12.29,-0.55,-0.52,0.92,-4.36,19.86,0.38,1100,1100,1100,1100,1102,1497,1512,0,734
37347,0,-0.49,-4.03,-0.46,0.113,-0.028,0.928,0.00,0.00,0.00,0.00,0.49,4.03,-0.54,-0.50,0.92,-0.74,-14.86,2.06,1100,1100,1100,1100,1102,1497,1512,0,734
37359,0,1.82,-7.47,1.14,0.160,-0.030,0.850,0.00,0.00,-5.60,0.00,-7.42,7.47,-0.56,-0.49,0.91,-9.79,6.68,-1.95,1100,1100,1100,1100,1107,1472,1512,0,734
37371,0,0.07,-2.68,-0.70,0.154,-0.056,0.892,0.00,0.00,0.00,0.00,-0.07,2.68,-0.57,-0.48,0.92,-2.50,-5.11,2.66,1100,1100,1100,1100,1107,1500,1512,0,734
37383,0,-4.27,-0.49,-0.68,0.153,-0.030,0.883,0.00,0.00,0.00,0.00,4.27,0.49,-0.56,-0.47,0.91,18.63,-7.92,2.60,1100,1100,1100,1100,1113,1500,1512,0,756
37395,0,0.97,2.82,-0.14,0.126,-0.081,0.911,0.00,0.00,0.00,0.00,-0.97,-2.82,-0.57,-0.48,0.93,-3.48,-8.84,1.28,1100,1100,1100,1100,1119,1500,1512,0,756
37407,0,-0.31,2.54,-1.02,0.085,-0.040,0.936,0.00,0.00,0.00,0.00,0.31,-2.54,-0.57,-0.48,0.94,-1.92,-2.58,3.50,1100,1100,1100,1100,1119,1500,1512,0,756
37419,0,1.75,3.14,0.87,0.033,-0.000,0.993,0.00,0.00,0.00,0.00,-1.75,-3.14,-0.57,-0.49,0.94,-4.48,-6.81,-1.22,1100,1100,1100,1100,1122,1500,1512,0,756
37431,0,2.44,-1.16,-0.38,0.032,-0.038,0.981,0.00,0.00,0.00,0.00,-2.44,1.16,-0.57,-0.49,0.96,-11.30,9.92,1.92,1100,1100,1100,1100,1122,1500,1512,0,756
37443,0,-2.50,1.47,-0.72,-0.016,-0.032,1.050,0.00,0.00,0.00,0.00,2.50,-1.47,-0.57,-0.49,0.96,10.58,-3.73,2.77,1100,1100,1100,1100,1125,1500,1512,0,756
37455,0,0.72,-3.03,-0.09,0.044,-0.074,0.995,0.00,0.00,0.00,0.00,-0.72,3.03,-0.57,-0.49,0.97,-1.09,11.54,1.20,1100,1100,1100,1100,1125,1500,1512,0,756
37467,0,-0.63,5.19,-0.94,0.028,-0.046,1.010,0.00,0.00,0.00,0.00,0.63,-5.19,-0.57,-0.50,0.99,-1.04,-17.30,3.33,1100,1100,1100,1100,1125,1500,1512,0,756
37479,0,-1.23,3.06,0.52,0.023,-0.013,1.027,0.00,0.00,0.00,0.00,1.23,-3.06,-0.57,-0.50,0.98,5.37,-10.82,-0.33,1100,1100,1100,1100,1124,1500,1513,0,736
37491,0,1.51,0.68,0.12,0.033,-0.032,0.981,0.00,0.00,0.00,0.00,-1.51,-0.68,-0.57,-0.50,1.00,-9.22,4.33,0.71,1100,1100,1100,1100,1124,1500,1512,0,736
37503,0,-2.23,0.10,-0.84,-0.017,-0.018,1.068,0.00,0.00,0.00,0.00,2.23,-0.10,-0.57,-0.51,1.00,7.31,7.58,3.10,1100,1100,1100,1100,1125,1500,1512,0,736
37515,0,1.71,0.15,0.30,-0.010,0.010,1.046,0.00,0.00,0.00,0.00,-1.71,-0.15,-0.57,-0.51,1.00,-5.50,5.66,0.24,1100,1100,1100,1100,1128,1499,1512,0,736
37527,0,-0.11,2.10,-0.16,-0.003,0.005,0.987,0.00,0.00,0.00,0.00,0.11,-2.10,-0.57,-0.52,1.02,-1.57,-4.61,1.41,1100,1100,1100,1100,1128,1499,1512,0,736
37539,0,0.71,4.28,-0.52,-0.042,0.013,1.085,0.00,0.00,0.00,0.00,-0.71,-4.28,-0.57,-0.52,1.02,0.09,-14.10,2.31,1100,1100,1100,1100,1128,1501,1511,0,736
37551,0,1.30,-2.41,0.25,-0.032,-0.016,0.975,0.00,0.00,0.00,0.00,-1.30,2.41,-0.57,-0.52,1.02,-3.34,11.62,0.40,1100,1100,1100,1100,1128,1500,1512,0,736
37563,0,0.43,1.47,-0.79,-0.064,-0.019,1.085,0.00,0.00,0.00,0.00,-0.43,-1.47,-0.57,-0.53,1.03,1.00,4.70,3.00,1100,1100,1100,1100,1131,1500,1512,0,736
37575,0,-0.05,6.41,0.12,-0.087,0.013,1.076,0.00,0.00,0.00,0.00,0.05,-6.41,-0.57,-0.54,1.03,1.59,-15.65,0.73,1100,1100,1100,1100,1142,1500,1512,0,736
37587,0,0.46,11.39,-0.31,-0.128,-0.020,1.120,0.00,0.00,0.00,0.00,-0.46,-11.39,-0.57,-0.56,1.05,-0.98,-19.57,1.84,1100,1100,1100,1100,1142,1500,1512,0,761
37599,0,-0.25,6.74,-1.49,-0.173,-0.017,1.235,0.00,0.00,0.00,0.00,0.25,-6.74,-0.57,-0.58,1.73,0.01,1.35,89.15,1100,1100,1100,1100,1143,1500,1516,0,761
37611,0,-1.09,3.43,0.48,-0.142,-0.027,1.159,0.00,0.00,0.00,0.00,1.09,-3.43,-0.57,-0.59,2.75,4.36,17.52,85.24,1100,1100,1100,1100,1143,1500,1512,0,761
37623,0,1.58,4.06,-0.74,-0.115,-0.044,1.206,0.00,0.00,0.00,0.00,-1.58,-4.06,-0.57,-0.61,2.77,-7.38,2.68,4.61,1100,1100,1100,1100,1144,1500,1512,0,761
37635,0,-0.83,2.70,-0.17,-0.067,-0.040,1.107,0.00,0.00,0.00,0.00,0.83,-2.70,-0.57,-0.62,2.76,0.74,1.48,3.19,1100,1100,1100,1100,1145,1500,1512,0,761
37647,0,1.10,1.75,0.36,-0.029,-0.055,1.067,0.00,0.00,0.00,0.00,-1.10,-1.75,-0.57,-0.61,2.77,-3.04,-6.76,1.88,1100,1100,1100,1100,1145,1500,1512,0,761
37659,0,0.69,-2.77,-1.03,0.019,-0.049,1.065,0.00,0.00,0.00,0.00,-0.69,2.77,-0.57,-0.61,2.78,-5.36,7.54,5.34,1100,1100,1100,1100,1153,1491,1512,0,761
37671,0,-3.33,-3.47,0.80,0.054,-0.008,1.005,0.00,0.00,0.00,0.00,3.33,3.47,-0.57,-0.60,2.76,15.30,8.09,0.77,1100,1100,1100,1100,1153,1500,1512,0,761
37683,0,1.08,-0.68,-0.34,0.080,-0.039,1.026,0.00,0.00,0.00,0.00,-1.08,0.68,-0.57,-0.60,2.78,-4.04,-0.32,3.64,1156,1172,1148,1144,1155,1500,1512,0,736
37695,0,-1.17,2.61,-0.30,0.068,-0.052,1.024,0.00,0.00,0.00,0.00,1.17,-2.61,-0.57,-0.61,2.76,0.91,-8.72,3.51,1156,1172,1148,1144,1158,1500,1512,0,736
37707,0,3.41,6.16,1.11,0.059,-0.047,1.017,0.00,0.00,0.00,0.00,-3.41,-6.16,-0.58,-0.62,2.76,-10.52,-14.32,-0.01,1156,1172,1148,1144,1158,1500,1512,0,736
37719,0,3.56,6.91,-0.83,0.005,-0.056,1.071,0.00,0.00,0.00,0.00,-3.56,-6.91,-0.58,-0.63,2.77,-17.82,-13.36,4.85,1156,1172,1148,1144,1160,1500,1512,0,736
37731,0,-3.64,5.05,0.24,-0.067,-0.034,1.105,0.00,0.00,0.00,0.00,3.64,-5.05,-0.57,-0.64,2.76,15.78,0.30,2.15,1156,1172,1148,1144,1160,1487,1511,0,736
37743,0,-1.00,-6.45,0.65,0.009,-0.044,1.028,0.00,0.00,0.00,0.00,1.00,6.45,-0.57,-0.64,2.77,6.19,26.04,1.15,1156,1172,1148,1144,1163,1487,1511,0,736
37755,0,0.39,1.38,-0.94,0.041,-0.077,1.050,0.00,0.00,0.00,0.00,-0.39,-1.38,-0.57,-0.64,2.77,-4.91,-8.20,5.13,1156,1172,1148,1144,1166,1482,1512,0,736
37767,0,-4.08,2.50,0.53,0.030,-0.051,1.028,0.00,0.00,0.00,0.00,4.08,-2.50,-0.57,-0.64,2.76,17.35,-3.88,1.43,1156,1172,1148,1144,1166,1482,1512,0,736
37779,0,1.27,-0.41,1.31,0.053,-0.046,0.995,0.00,0.00,0.00,0.00,-1.27,0.41,-0.57,-0.64,2.92,-3.70,-0.54,19.44,1153,1191,1185,1147,1169,1499,1512,0,737
37791,0,1.06,2.89,-0.70,0.055,-0.081,1.032,0.00,0.00,0.00,0.00,-1.06,-2.89,-0.57,-0.64,3.17,-9.64,-10.26,24.72,1153,1191,1185,1147,1169,1499,1513,0,737
37803,0,-0.71,5.93,0.37,-0.023,-0.026,1.087,0.00,0.00,0.00,0.00,0.71,-5.93,-0.57,-0.65,3.17,0.36,-15.46,2.23,1153,1191,1185,1147,1167,1499,1513,0,737
37815,0,0.74,5.81,1.13,0.003,-0.007,1.065,0.00,0.00,0.00,0.00,-0.74,-5.81,-0.57,-0.66,3.24,-0.14,-14.01,19.31,1153,1191,1185,1147,1178,1497,1512,0,737
37827,0,1.45,-5.62,0.09,0.112,-0.080,0.986,0.00,0.00,0.00,0.00,-1.45,5.62,-0.57,-0.66,3.47,-7.23,26.27,22.15,1153,1191,1185,1147,1178,1497,1512,0,737
37839,0,-1.11,1.71,-0.99,0.120,-0.120,1.022,0.00,0.00,0.00,0.00,1.11,-1.71,-0.57,-0.67,3.70,5.09,3.47,25.97,1153,1191,1185,1147,1180,1485,1512,0,737
37851,0,-2.27,2.89,0.29,0.118,-0.090,1.001,0.00,0.00,0.00,0.00,2.27,-2.89,-0.57,-0.67,3.93,11.49,-10.68,23.01,1153,1191,1185,1147,1180,1500,1512,0,737
37863,0,2.02,-7.36,1.96,0.202,-0.069,0.881,0.00,0.00,0.00,0.00,-2.02,7.36,-0.57,-0.65,4.15,-8.41,6.90,19.05,1153,1191,1185,1147,1181,1500,1512,0,737
37875,0,4.14,-14.78,1.31,0.277,-0.074,0.814,0.00,0.00,0.00,0.00,-4.14,14.78,-0.57,-0.61,4.37,-25.91,14.89,21.78,1153,1191,1185,1147,1182,1500,1512,0,737
37887,0,-5.49,-18.42,-0.28,0.279,-0.086,0.763,0.00,0.00,0.00,0.00,5.49,18.42,-0.56,-0.58,4.59,12.00,23.34,26.00,1166,1216,1186,1160,1182,1500,1512,0,738
37899,0,-6.99,-14.25,0.14,0.203,-0.072,0.777,0.00,0.00,0.00,0.00,6.99,14.25,-0.56,-0.56,4.81,29.40,22.43,25.17,1166,1216,1186,1160,1182,1500,1512,0,738
37911,0,4.67,0.70,1.22,0.108,-0.039,0.898,0.00,0.00,0.00,0.00,-4.67,-0.70,-0.57,-0.55,5.05,-15.21,-19.95,22.70,1166,1216,1186,1160,1182,1500,1512,0,738
37923,0,5.06,3.74,0.38,0.043,-0.026,0.963,0.00,0.00,0.00,0.00,-5.06,-3.74,-0.56,-0.54,5.30,-29.34,-37.16,24.14,1166,1216,1186,1160,1182,1500,1512,0,738
37935,0,-9.96,-12.41,-1.01,0.095,-0.067,0.890,0.00,0.00,-5.40,0.00,4.56,12.41,-0.56,-0.52,5.53,31.80,22.74,27.86,1166,1216,1186,1160,1181,1473,1512,0,738
37947,0,-0.27,-5.76,-0.03,0.118,-0.072,0.887,0.00,0.00,-5.40,0.00,-5.13,5.76,-0.59,-0.52,5.75,5.58,19.67,25.63,1166,1216,1186,1160,1181,1473,1512,0,738
37959,0,5.96,3.28,1.81,0.069,0.041,0.961,0.00,0.00,0.00,0.00,-5.96,-3.28,-0.58,-0.51,5.98,-32.83,-32.13,22.16,1166,1216,1186,1160,1182,1500,1512,0,738
37971,0,-5.05,-17.44,0.18,0.283,-0.097,0.774,0.00,0.00,0.00,0.00,5.05,17.44,-0.57,-0.49,6.25,6.84,49.12,26.50,1166,1216,1186,1160,1182,1500,1512,0,738
37983,0,-4.76,-2.21,-1.84,0.322,-0.161,0.826,0.00,0.00,0.00,0.00,4.76,2.21,-0.57,-0.49,6.50,22.85,7.88,31.80,1103,1319,1100,1211,1183,1500,1512,0,739
37995,0,0.94,8.15,0.31,0.083,0.044,0.960,0.00,0.00,-6.20,0.00,-7.14,-8.15,-0.58,-0.46,6.74,-11.85,-83.73,25.77,1103,1319,1100,1211,1183,1469,1512,0,739
38007,0,-0.98,-29.80,-2.19,0.335,-0.059,0.744,0.00,0.00,-6.20,0.00,-5.22,29.80,-0.60,-0.44,7.03,3.62,104.14,32.31,1103,1319,1100,1211,1183,1469,1512,0,739
38019,0,9.14,4.86,0.16,0.214,-0.102,0.850,0.00,0.00,0.00,0.00,-9.14,-4.86,-0.59,-0.44,7.28,-41.98,-35.76,27.57,1103,1319,1100,1211,1185,1498,1512,0,739
38031,0,-2.86,-4.02,-1.54,0.363,-0.118,0.768,0.00,0.00,0.00,0.00,2.86,4.02,-0.58,-0.42,7.60,-2.04,-2.47,32.13,1103,1319,1100,1211,1185,1499,1512,0,739
38043,0,-6.98,20.36,-3.23,0.084,0.009,1.044,0.00,0.00,0.00,0.00,6.98,-20.36,-0.58,-0.42,7.88,23.36,-97.79,36.66,1103,1319,1100,1211,1186,1499,1512,0,739
38055,0,-6.68,-33.57,-1.22,0.213,-0.027,0.647,0.00,0.00,0.00,0.00,6.68,33.57,-0.59,-0.40,8.19,30.76,110.00,31.94,1103,1319,1100,1211,1189,1500,1512,0,739
38067,0,10.04,4.69,-2.15,0.159,-0.060,0.940,0.00,0.00,0.00,0.00,-10.04,-4.69,-0.59,-0.42,8.49,-39.20,-2.25,34.57,1103,1319,1100,1211,1189,1500,1512,0,739
38079,0,7.08,-1.50,-1.89,0.170,-0.101,0.890,0.00,0.00,0.00,0.00,-7.08,1.50,-0.58,-0.39,8.83,-39.75,-17.41,33.35,1190,1290,1178,1146,1201,1498,1511,0,741
38091,0,-11.48,-2.55,-4.64,0.167,-0.024,0.834,0.00,0.00,0.00,0.00,11.48,2.55,-0.57,-0.36,9.17,30.50,-40.99,40.57,1190,1290,1178,1146,1201,1500,1512,0,741
38103,0,-6.91,-13.57,-5.56,0.342,-0.097,0.710,0.00,0.00,0.00,0.00,6.91,13.57,-0.58,-0.37,9.54,43.95,57.80,43.23,1190,1290,1178,1146,1202,1500,1512,0,741
38115,0,7.24,11.90,-3.36,0.097,0.015,0.983,0.00,0.00,0.00,0.00,-7.24,-11.90,-0.58,-0.36,9.91,-27.03,-67.30,40.79,1190,1290,1178,1146,1202,1500,1512,0,741
38127,0,6.74,-4.67,-4.92,0.243,-0.143,0.885,0.00,0.00,0.00,0.00,-6.74,4.67,-0.59,-0.37,10.32,-25.15,40.97,45.13,1190,1290,1178,1146,1202,1500,1512,0,741
38139,0,3.28,2.12,-3.16,0.150,-0.062,0.870,0.00,0.00,0.00,0.00,-3.28,-2.12,-0.58,-0.37,10.74,-25.52,-6.84,40.25,1190,1290,1178,1146,1202,1500,1512,0,741
38151,0,-2.90,25.12,-6.44,-0.096,-0.039,1.167,0.00,0.00,0.00,0.00,2.90,-25.12,-0.58,-0.39,11.16,12.79,-85.25,48.86,1190,1290,1178,1146,1202,1500,1512,0,741
38163,0,-8.44,-28.61,-4.08,0.013,-0.017,0.858,0.00,0.00,0.00,0.00,8.44,28.61,-0.58,-0.35,11.54,36.77,79.52,42.45,1190,1290,1178,1146,1204,1500,1512,0,741
38175,0,8.20,4.23,-2.77,0.162,-0.069,1.020,0.00,0.00,0.00,0.00,-8.20,-4.23,-0.59,-0.39,11.87,-18.98,24.89,39.51,1190,1290,1178,1146,1210,1500,1512,0,741
38187,0,4.88,3.43,-0.25,0.081,-0.004,0.952,0.00,0.00,0.00,0.00,-4.88,-3.43,-0.58,-0.34,12.21,-36.32,-75.79,33.53,1236,1106,1404,1100,1210,1500,1512,0,740
38199,0,-8.63,-1.41,-2.39,0.067,-0.085,0.912,0.00,0.00,0.00,0.00,8.63,1.41,-0.58,-0.34,12.30,35.07,-13.25,18.27,1236,1106,1404,1100,1211,1501,1509,0,740
38211,0,-3.08,-4.32,-1.92,0.138,0.000,0.997,0.00,0.00,0.00,0.00,3.08,4.32,-0.58,-0.35,12.34,12.85,36.31,17.15,1236,1106,1404,1100,1211,1500,1512,0,740
38223,0,-1.30,-12.22,1.89,0.000,-0.007,0.936,0.00,0.00,0.00,0.00,1.30,12.22,-0.58,-0.32,12.54,3.94,13.96,28.52,1236,1106,1404,1100,1211,1500,1512,0,740
38235,0,6.72,14.55,0.09,0.044,-0.127,1.042,0.00,0.00,0.00,0.00,-6.72,-14.55,-0.58,-0.36,12.77,-28.03,-15.91,32.35,1236,1106,1404,1100,1211,1500,1512,0,740
38247,0,10.65,10.80,1.22,0.069,-0.045,0.981,0.00,0.00,0.00,0.00,-10.65,-10.80,-0.58,-0.37,13.06,-55.22,-27.65,29.80,1236,1106,1404,1100,1211,1500,1512,0,740
38259,0,-3.40,-5.59,0.85,-0.058,-0.069,0.931,0.00,0.00,0.00,0.00,3.40,5.59,-0.57,-0.33,13.29,7.97,-18.29,30.96,1236,1106,1404,1100,1211,1500,1512,0,740
38271,0,-2.30,-0.40,-2.11,0.034,-0.083,1.032,0.00,0.00,0.00,0.00,2.30,0.40,-0.58,-0.36,13.56,17.55,22.40,38.64,1236,1106,1404,1100,1211,1500,1512,0,740
38283,0,4.50,8.14,1.04,-0.007,0.039,1.055,0.00,0.00,0.00,0.00,-4.50,-8.14,-0.58,-0.34,13.81,-19.10,-48.51,31.00,1199,1265,1223,1157,1211,1500,1512,0,739
38295,0,-0.29,8.08,1.41,0.067,-0.111,0.922,0.00,0.00,0.00,0.00,0.29,-8.08,-0.58,-0.34,14.03,1.83,-40.36,29.41,1199,1265,1223,1157,1213,1500,1512,0,739
38307,0,6.93,30.55,-0.03,-0.012,-0.009,1.104,0.00,0.00,0.00,0.00,-6.93,-30.55,-0.58,-0.36,14.30,-36.15,-104.61,33.28,1199,1265,1223,1157,1213,1500,1512,0,739
38319,0,-2.82,-17.03,-0.87,0.130,-0.060,0.837,0.00,0.00,0.00,0.00,2.82,17.03,-0.57,-0.34,14.55,5.43,49.17,36.52,1199,1265,1223,1157,1213,1498,1511,0,739
38331,0,-4.04,-7.19,-1.63,0.071,-0.045,1.003,0.00,0.00,0.00,0.00,4.04,7.19,-0.58,-0.34,14.79,21.22,31.24,38.67,1199,1265,1223,1157,1213,1498,1513,0,739
38343,0,-0.66,-1.56,-0.28,-0.047,0.043,1.067,0.00,0.00,0.00,0.00,0.66,1.56,-0.57,-0.34,15.02,4.36,10.05,35.53,1199,1265,1223,1157,1213,1498,1513,0,739
38355,0,2.28,-6.73,0.99,0.093,-0.085,0.972,0.00,0.00,0.00,0.00,-2.28,6.73,-0.58,-0.36,15.25,-0.45,52.01,32.56,1199,1265,1223,1157,1216,1501,1512,0,739
38367,0,8.82,0.36,1.69,0.054,-0.019,1.024,0.00,0.00,0.00,0.00,-8.82,-0.36,-0.58,-0.35,15.49,-41.50,-15.64,31.06,1199,1265,1223,1157,1216,1501,1512,0,739
38379,0,0.58,-8.78,0.94,-0.008,-0.012,0.935,0.00,0.00,0.00,0.00,-0.58,8.78,-0.58,-0.33,15.71,-5.45,14.76,33.16,1201,1239,1257,1163,1215,1500,1512,0,770
38391,0,4.81,9.93,-0.56,-0.088,-0.024,1.137,0.00,0.00,-5.80,0.00,-10.61,-9.93,-0.59,-0.35,15.93,-15.86,-24.92,37.13,1201,1239,1257,1163,1215,1471,1512,0,770
38403,0,-2.18,-9.09,0.30,-0.004,-0.035,0.948,0.00,0.00,-5.80,0.00,-3.62,9.09,-0.60,-0.33,16.15,4.31,22.87,35.20,1201,1239,1257,1163,1218,1471,1512,0,770
38415,0,5.07,12.16,2.69,-0.063,-0.058,1.041,0.00,0.00,0.00,0.00,-5.07,-12.16,-0.61,-0.33,16.33,-17.51,-47.26,29.40,1201,1239,1257,1163,1220,1500,1512,0,770
38427,0,-0.29,20.25,1.05,-0.085,-0.083,1.095,0.00,0.00,0.00,0.00,0.29,-20.25,-0.60,-0.34,16.56,-9.51,-73.31,33.73,1201,1239,1257,1163,1220,1500,1512,0,770
38439,0,-3.32,5.92,0.12,0.065,-0.081,1.040,0.00,0.00,-4.20,0.00,-0.88,-5.92,-0.60,-0.37,16.83,2.82,10.59,36.32,1201,1239,1257,1163,1219,1479,1514,0,770
38451,0,-6.45,-16.86,0.05,0.134,-0.057,0.891,0.00,0.00,0.00,0.00,6.45,16.86,-0.60,-0.33,17.05,13.58,34.02,36.72,1201,1239,1257,1163,1219,1500,1512,0,770
38463,0,-10.07,-10.80,-0.96,0.086,-0.084,0.938,0.00,0.00,0.00,0.00,10.07,10.80,-0.60,-0.32,17.25,35.76,25.71,39.44,1201,1239,1257,1163,1223,1500,1512,0,770
38475,0,-10.25,1.28,-1.60,-0.060,0.002,1.066,0.00,0.00,0.00,0.00,10.25,-1.28,-0.59,-0.33,17.49,32.76,-7.39,41.30,1201,1239,1257,1163,1225,1500,1512,0,770
38487,0,-5.02,19.92,-0.70,-0.116,0.029,1.229,0.00,0.00,0.00,0.00,5.02,-19.92,-0.59,-0.38,17.74,20.10,-18.13,39.30,1120,1338,1194,1248,1225,1500,1512,0,738
38499,0,-2.07,-3.28,0.01,0.018,-0.011,1.059,0.00,0.00,0.00,0.00,2.07,3.28,-0.59,-0.40,18.00,8.09,51.48,37.77,1120,1338,1194,1248,1225,1500,1512,0,738
38511,0,3.61,3.35,-0.25,0.045,-0.041,1.115,0.00,0.00,0.00,0.00,-3.61,-3.35,-0.59,-0.41,18.27,-16.92,1.53,38.69,1120,1338,1194,1248,1225,1500,1512,0,738
38523,0,-4.53,-17.13,-0.72,0.119,-0.094,0.924,0.00,0.00,0.00,0.00,4.53,17.13,-0.58,-0.39,18.51,7.48,56.59,40.10,1120,1338,1194,1248,1226,1500,1512,0,738
38535,0,0.81,17.06,-2.59,-0.195,0.006,1.243,0.00,0.00,0.00,0.00,-0.81,-17.06,-0.58,-0.42,18.70,-8.45,-52.14,25.17,1120,1338,1194,1248,1226,1500,1512,0,738
38547,0,-4.41,-11.43,-1.83,0.035,-0.055,1.024,0.00,0.00,0.00,0.00,4.41,11.43,-0.58,-0.43,18.73,22.07,74.66,23.32,1120,1338,1194,1248,1226,1500,1512,0,738
38559,0,4.01,10.57,0.29,0.030,0.019,1.069,0.00,0.00,0.00,0.00,-4.01,-10.57,-0.59,-0.42,18.75,-5.86,-52.05,18.02,1120,1338,1194,1248,1233,1480,1512,0,738
38571,0,9.43,2.87,2.27,0.078,-0.038,0.909,0.00,0.00,0.00,0.00,-9.43,-2.87,-0.60,-0.42,18.73,-27.57,-20.10,13.05,1120,1338,1194,1248,1233,1500,1512,0,738
38583,0,12.65,33.82,-0.15,-0.104,-0.046,1.175,0.00,0.00,0.00,0.00,-12.65,-33.82,-0.60,-0.44,18.76,-45.14,-110.00,19.12,1166,1324,1198,1260,1237,1500,1512,0,735
38595,0,0.66,-5.54,-2.50,0.185,-0.128,0.950,0.00,0.00,0.00,0.00,-0.66,5.54,-0.60,-0.45,18.90,-0.04,49.41,45.84,1166,1324,1198,1260,1239,1500,1511,0,735
38607,0,-3.74,-7.36,-2.19,0.086,-0.050,0.982,0.00,0.00,0.00,0.00,3.74,7.36,-0.60,-0.44,19.20,16.37,14.84,45.38,1166,1324,1198,1260,1239,1500,1511,0,735
38619,0,-10.77,-24.04,-0.44,0.089,-0.059,0.866,0.00,0.00,0.00,0.00,10.77,24.04,-0.61,-0.40,19.27,52.54,51.07,20.38,1166,1324,1198,1260,1239,1480,1512,0,735
38631,0,-9.83,20.39,-2.87,-0.125,0.005,1.134,0.00,0.00,0.00,0.00,9.83,-20.39,-0.61,-0.42,19.31,49.04,-76.99,26.48,1166,1324,1198,1260,1239,1501,1512,0,735
38643,0,2.54,1.12,-1.83,0.105,0.012,1.032,0.00,0.00,0.00,0.00,-2.54,-1.12,-0.62,-0.46,19.37,-0.68,43.42,23.93,1166,1324,1198,1260,1239,1501,1512,0,735
38655,0,7.62,-11.75,1.14,0.174,-0.009,0.882,0.00,0.00,0.00,0.00,-7.62,11.75,-0.62,-0.43,19.38,-35.05,18.78,16.54,1166,1324,1198,1260,1239,1496,1512,0,735
38667,0,9.07,2.73,0.80,0.045,-0.034,1.010,0.00,0.00,0.00,0.00,-9.07,-2.73,-0.61,-0.43,19.35,-47.06,-23.02,17.34,1166,1324,1198,1260,1239,1496,1512,0,735
38679,0,-3.92,-6.95,-1.77,0.019,-0.137,1.019,0.00,0.00,0.00,0.00,3.92,6.95,-0.60,-0.45,19.36,1.49,46.31,23.78,1261,1215,1309,1171,1239,1500,1512,0,734
38691,0,-9.95,-7.91,-3.51,-0.017,-0.058,1.072,0.00,0.00,0.00,0.00,9.95,7.91,-0.59,-0.45,19.40,19.92,44.81,28.18,1261,1215,1309,1171,1239,1500,1512,0,734
38703,0,-10.65,-17.98,-2.92,0.117,-0.059,1.002,0.00,0.00,0.00,0.00,10.65,17.98,-0.59,-0.46,19.45,40.40,83.64,26.75,1261,1215,1309,1171,1240,1500,1512,0,734
38715,0,-13.65,-33.21,-0.91,0.173,-0.095,0.795,0.00,0.00,0.00,0.00,13.65,33.21,-0.59,-0.40,19.46,55.97,77.59,21.74,1261,1215,1309,1171,1244,1500,1512,0,734
38727,0,-1.85,13.62,-1.15,-0.107,0.006,1.019,0.00,0.00,0.00,0.00,1.85,-13.62,-0.59,-0.39,19.48,12.27,-88.56,22.36,1261,1215,1309,1171,1244,1500,1512,0,734
38739,0,7.88,31.84,-1.78,-0.139,-0.015,1.152,0.00,0.00,0.00,0.00,-7.88,-31.84,-0.60,-0.44,19.55,-23.75,-78.68,24.00,1261,1215,1309,1171,1245,1500,1512,0,734
38751,0,13.41,17.43,-1.43,0.018,-0.042,1.051,0.00,0.00,0.00,0.00,-13.41,-17.43,-0.60,-0.47,19.66,-55.83,-20.73,23.24,1261,1215,1309,1171,1245,1500,1512,0,734
38763,0,15.32,-1.24,-0.79,0.138,-0.071,0.920,0.00,0.00,0.00,0.00,-15.32,1.24,-0.60,-0.45,19.74,-64.20,-1.31,21.71,1261,1215,1309,1171,1245,1500,1512,0,734
38775,0,8.38,-1.66,-0.60,0.095,-0.156,0.948,0.00,0.00,0.00,0.00,-8.38,1.66,-0.60,-0.43,19.81,-34.39,-21.02,21.30,1261,1215,1309,1171,1246,1500,1512,0,734
38787,0,-2.98,-1.79,-1.89,0.036,-0.159,0.966,0.00,0.00,0.00,0.00,2.98,1.79,-0.60,-0.43,19.87,4.50,-9.11,24.60,1205,1343,1191,1245,1246,1500,1512,0,734
38799,0,-6.01,9.14,-2.99,-0.046,-0.062,1.101,0.00,0.00,0.00,0.00,6.01,-9.14,-0.60,-0.44,19.94,21.57,-35.09,27.41,1205,1343,1191,1245,1247,1500,1512,0,734
38811,0,-8.45,8.19,-1.85,0.052,-0.077,1.078,0.00,0.00,0.00,0.00,8.45,-8.19,-0.61,-0.47,19.99,46.36,0.07,24.62,1205,1343,1191,1245,1247,1501,1511,0,734
38823,0,-13.16,-20.53,0.88,0.266,-0.117,0.804,0.00,0.00,0.00,0.00,13.16,20.53,-0.62,-0.44,19.96,63.74,56.24,17.77,1205,1343,1191,1245,1248,1501,1511,0,734
38835,0,-8.76,-3.84,0.58,0.116,-0.020,0.874,0.00,0.00,0.00,0.00,8.76,3.84,-0.63,-0.39,19.90,44.38,-50.46,18.45,1205,1343,1191,1245,1248,1497,1512,0,734
38847,0,-0.36,28.71,-0.54,-0.056,0.041,1.118,0.00,0.00,0.00,0.00,0.36,-28.71,-0.64,-0.42,19.87,17.66,-109.32,21.21,1205,1343,1191,1245,1248,1497,1512,0,734
38859,0,2.36,12.26,0.43,0.126,-0.014,1.029,0.00,0.00,0.00,0.00,-2.36,-12.26,-0.64,-0.45,20.01,-1.28,-7.64,37.82,1205,1343,1191,1245,1248,1499,1512,0,734
38871,0,6.17,-18.51,0.63,0.341,-0.000,0.801,0.00,0.00,0.00,0.00,-6.17,18.51,-0.63,-0.42,20.21,-34.28,41.92,37.55,1205,1343,1191,1245,1248,1501,1511,0,734
38883,0,12.37,-8.81,-0.81,0.245,0.031,0.867,0.00,0.00,0.00,0.00,-12.37,8.81,-0.62,-0.39,20.21,-64.95,-15.89,22.24,1254,1216,1336,1210,1254,1501,1511,0,734
38895,0,11.77,1.73,-1.51,0.153,-0.049,0.994,0.00,0.00,0.00,0.00,-11.77,-1.73,-0.62,-0.41,20.25,-60.13,6.35,24.03,1254,1216,1336,1210,1256,1499,1513,0,734
38907,0,1.02,-21.22,-1.71,0.271,-0.172,0.854,0.00,0.00,0.00,0.00,-1.02,21.22,-0.61,-0.42,20.28,-21.89,101.78,24.55,1254,1216,1336,1210,1256,1499,1513,0,734
38919,0,-7.36,-33.50,-2.64,0.290,-0.162,0.783,0.00,0.00,0.00,0.00,7.36,33.50,-0.60,-0.38,20.46,8.27,96.72,45.97,1254,1216,1336,1210,1257,1483,1512,0,734
38931,0,-11.09,-19.25,-3.76,0.135,-0.086,0.923,0.00,0.00,0.00,0.00,11.09,19.25,-0.59,-0.36,20.75,31.40,47.13,49.06,1254,1216,1336,1210,1257,1500,1512,0,734
38943,0,-15.29,-14.87,-2.55,0.096,-0.076,0.964,0.00,0.00,0.00,0.00,15.29,14.87,-0.59,-0.36,21.04,57.92,61.18,47.21,1254,1216,1336,1210,1257,1500,1512,0,734
38955,0,-18.58,-22.03,-0.13,0.138,-0.095,0.851,0.00,0.00,0.00,0.00,18.58,22.03,-0.58,-0.34,21.27,72.42,69.87,41.40,1254,1216,1336,1210,1257,1500,1512,0,734
38967,0,-15.68,-9.42,-0.13,-0.017,-0.034,0.891,0.00,0.00,0.00,0.00,15.68,9.42,-0.58,-0.31,21.49,61.54,1.65,41.61,1254,1216,1336,1210,1257,1500,1512,0,734
38979,0,-7.35,23.56,-1.63,-0.275,0.043,1.143,0.00,0.00,0.00,0.00,7.35,-23.56,-0.58,-0.33,21.75,35.45,-72.30,45.61,1105,1339,1265,1319,1257,1500,1512,0,738
38991,0,1.43,42.67,-2.63,-0.371,0.063,1.324,0.00,0.00,-5.00,0.00,-6.43,-42.67,-0.59,-0.41,22.07,2.04,-75.23,48.43,1105,1339,1265,1319,1257,1475,1509,0,738
39003,0,8.31,25.70,-1.59,-0.177,0.051,1.212,0.00,0.00,-5.00,0.00,-13.31,-25.70,-0.60,-0.47,22.39,-29.55,-8.57,45.27,1105,1339,1265,1319,1257,1475,1509,0,738
39015,0,16.10,0.58,-0.41,0.085,0.076,0.992,0.00,0.00,0.00,0.00,-16.10,-0.58,-0.60,-0.46,22.70,-66.04,19.38,44.42,1105,1339,1265,1319,1258,1500,1512,0,738
39027,0,22.43,-5.11,-0.37,0.190,0.092,0.932,0.00,0.00,0.00,0.00,-22.43,5.11,-0.60,-0.44,23.02,-91.31,-7.16,44.64,1105,1339,1265,1319,1258,1500,1512,0,738
39039,0,18.71,-10.40,0.64,0.253,-0.024,0.884,0.00,0.00,0.00,0.00,-18.71,10.40,-0.61,-0.41,23.33,-74.77,12.29,42.44,1105,1339,1265,1319,1257,1500,1512,0,738
39051,0,7.66,-25.49,1.63,0.288,-0.143,0.729,0.00,0.00,0.00,0.00,-7.66,25.49,-0.60,-0.37,23.59,-39.99,52.98,40.22,1105,1339,1265,1319,1257,1500,1512,0,738
39063,0,-0.19,-19.17,1.44,0.125,-0.142,0.752,0.00,0.00,0.00,0.00,0.19,19.17,-0.59,-0.33,23.83,-17.00,14.26,41.83,1105,1339,1265,1319,1257,1500,1512,0,738
39075,0,-2.59,16.47,-0.01,-0.206,-0.089,1.083,0.00,0.00,-6.00,0.00,-3.41,-16.47,-0.60,-0.35,24.10,0.75,-53.58,45.73,1105,1339,1265,1319,1258,1470,1512,0,738
39087,0,-6.53,28.58,-0.08,-0.252,-0.104,1.217,0.00,0.00,-6.00,0.00,0.53,-28.58,-0.62,-0.42,24.38,26.75,-30.06,46.18,1225,1371,1241,1195,1258,1470,1512,0,739
39099,0,-8.27,6.22,0.42,-0.058,-0.062,1.067,0.00,0.00,0.00,0.00,8.27,-6.22,-0.62,-0.44,24.64,35.27,31.72,45.19,1225,1371,1241,1195,1260,1500,1512,0,739
39111,0,-2.62,9.16,-0.57,-0.037,0.078,1.049,0.00,0.00,0.00,0.00,2.62,-9.16,-0.62,-0.43,24.93,16.22,-35.53,47.96,1225,1371,1241,1195,1260,1500,1512,0,739
39123,0,6.26,27.72,-0.02,-0.021,0.138,1.146,0.00,0.00,0.00,0.00,-6.26,-27.72,-0.62,-0.46,25.24,-13.15,-84.93,47.80,1225,1371,1241,1195,1266,1500,1512,0,739
39135,0,4.27,29.94,1.82,0.012,0.144,1.168,0.00,0.00,0.00,0.00,-4.27,-29.94,-0.62,-0.49,25.49,-10.98,-73.07,41.63,1225,1371,1241,1195,1267,1499,1512,0,739
39147,0,9.36,5.38,3.27,0.166,0.113,0.970,0.00,0.00,0.00,0.00,-9.36,-5.38,-0.61,-0.48,25.69,-45.97,-20.32,38.22,1225,1371,1241,1195,1267,1499,1512,0,739
39159,0,13.77,15.90,3.00,0.027,0.151,1.063,0.00,0.00,0.00,0.00,-13.77,-15.90,-0.61,-0.47,25.92,-66.80,-77.60,41.81,1225,1371,1241,1195,1271,1500,1513,0,739
39171,0,7.31,6.66,4.30,0.038,0.048,1.082,0.00,0.00,0.00,0.00,-7.31,-6.66,-0.60,-0.50,26.14,-38.24,13.82,38.78,1225,1371,1241,1195,1271,1500,1512,0,739
39183,0,-8.72,-36.15,4.11,0.244,-0.044,0.807,0.00,0.00,0.00,0.00,8.72,36.15,-0.58,-0.46,26.30,10.42,110.00,38.52,1258,1204,1426,1212,1275,1500,1512,0,738
39195,0,-14.63,-13.37,1.35,-0.014,0.023,0.985,0.00,0.00,0.00,0.00,14.63,13.37,-0.56,-0.43,26.50,29.37,1.65,44.72,1258,1204,1426,1212,1276,1500,1512,0,738
39207,0,-19.37,6.24,1.41,-0.165,-0.012,1.136,0.00,0.00,0.00,0.00,19.37,-6.24,-0.55,-0.45,26.70,57.63,-5.68,44.77,1258,1204,1426,1212,1276,1500,1512,0,738
39219,0,-23.33,-15.52,2.62,-0.057,-0.068,0.957,0.00,0.00,0.00,0.00,23.33,15.52,-0.52,-0.43,26.86,70.11,56.84,41.91,1258,1204,1426,1212,1278,1500,1512,0,738
39231,0,-16.37,2.11,0.84,-0.185,0.005,1.028,0.00,0.00,0.00,0.00,16.37,-2.11,-0.50,-0.39,27.04,42.53,-53.65,46.54,1258,1204,1426,1212,1278,1500,1512,0,738
39243,0,-11.03,18.06,-0.25,-0.203,-0.004,1.101,0.00,0.00,0.00,0.00,11.03,-18.06,-0.49,-0.40,27.27,28.73,-74.84,49.49,1258,1204,1426,1212,1278,1500,1512,0,738
39255,0,-8.81,-0.36,0.51,0.012,-0.067,0.944,0.00,0.00,0.00,0.00,8.81,0.36,-0.47,-0.39,27.50,17.65,-5.88,47.82,1258,1204,1426,1212,1278,1500,1512,0,738
39267,0,-3.95,-21.95,0.49,0.187,-0.082,0.756,0.00,0.00,0.00,0.00,3.95,21.95,-0.45,-0.34,27.72,-7.46,30.37,48.09,1258,1204,1426,1212,1278,1500,1512,0,738
39279,0,3.76,-20.29,-0.23,0.152,-0.046,0.770,0.00,0.00,0.00,0.00,-3.76,20.29,-0.44,-0.29,27.98,-38.45,3.52,51.05,1270,1366,1296,1188,1280,1501,1512,0,738
39291,0,7.95,-5.61,-0.57,-0.013,-0.041,0.920,0.00,0.00,0.00,0.00,-7.95,5.61,-0.43,-0.29,28.27,-51.28,-3.90,52.19,1270,1366,1296,1188,1280,1500,1512,0,738
39303,0,4.20,-10.90,-0.35,-0.060,-0.110,0.962,0.00,0.00,0.00,0.00,-4.20,10.90,-0.42,-0.30,28.57,-35.85,60.32,51.94,1270,1366,1296,1188,1282,1500,1512,0,738
39315,0,-0.58,-16.94,-0.55,-0.039,-0.190,0.947,0.00,0.00,0.00,0.00,0.58,16.94,-0.40,-0.30,28.86,-19.12,71.48,52.73,1270,1366,1296,1188,1282,1489,1512,0,738
39327,0,-5.44,-13.72,-0.96,-0.075,-0.224,0.981,0.00,0.00,0.00,0.00,5.44,13.72,-0.39,-0.30,29.15,-2.80,53.79,54.05,1270,1366,1296,1188,1282,1489,1512,0,738
39339,0,-8.72,-13.21,-1.03,-0.043,-0.207,0.978,0.00,0.00,0.00,0.00,8.72,13.21,-0.37,-0.30,29.43,7.32,59.24,53.59,1270,1366,1296,1188,1283,1499,1512,0,738
39351,0,-10.55,-14.31,-1.13,0.066,-0.163,0.952,0.00,0.00,0.00,0.00,10.55,14.31,-0.36,-0.29,29.70,12.08,49.89,54.12,1270,1366,1296,1188,1283,1500,1512,0,738
39363,0,-11.43,-7.78,-0.79,0.093,-0.122,0.979,0.00,0.00,0.00,0.00,11.43,7.78,-0.34,-0.28,29.97,14.18,15.03,53.55,1270,1366,1296,1188,1283,1500,1512,0,738
39375,0,-11.74,-1.94,-0.38,0.039,-0.109,1.036,0.00,0.00,0.00,0.00,11.74,1.94,-0.32,-0.28,30.23,13.31,0.82,52.80,1270,1366,1296,1188,1286,1500,1513,0,738
39387,0,-12.61,10.20,0.54,-0.069,-0.120,1.131,0.00,0.00,0.00,0.00,12.61,-10.20,-0.30,-0.31,30.48,15.35,-19.75,50.72,1256,1430,1236,1222,1286,1500,1513,0,739
39399,0,-15.63,9.99,1.59,-0.033,-0.153,1.081,0.00,0.00,0.00,0.00,15.63,-9.99,-0.28,-0.34,30.68,26.06,1.94,46.50,1256,1430,1236,1222,1299,1499,1512,0,739
39411,0,-19.09,1.70,1.57,0.046,-0.178,0.974,0.00,0.00,0.00,0.00,19.09,-1.70,-0.26,-0.34,30.88,39.60,12.25,46.74,1256,1430,1236,1222,1299,1500,1512,0,739
39423,0,-21.03,0.96,1.17,0.042,-0.176,0.934,0.00,0.00,0.00,0.00,21.03,-0.96,-0.23,-0.32,31.06,50.58,-18.74,47.04,1256,1430,1236,1222,1298,1500,1512,0,739
39435,0,-20.96,2.67,0.99,0.077,-0.130,0.862,0.00,0.00,0.00,0.00,20.96,-2.67,-0.21,-0.29,31.18,52.57,-53.19,28.71,1256,1430,1236,1222,1300,1499,1512,0,739
39447,0,-18.43,5.30,0.51,0.155,-0.045,0.832,0.00,0.00,0.00,0.00,18.43,-5.30,-0.18,-0.26,31.15,46.86,-68.95,29.86,1256,1430,1236,1222,1300,1499,1512,0,739
39459,0,-13.14,5.11,-0.66,0.250,0.032,0.832,0.00,0.00,0.00,0.00,13.14,-5.11,-0.16,-0.24,31.30,32.22,-58.97,51.85,1256,1430,1236,1222,1302,1501,1511,0,739
39471,0,-5.78,3.64,-1.24,0.336,0.066,0.848,0.00,0.00,0.00,0.00,5.78,-3.64,-0.15,-0.22,31.53,7.65,-38.21,53.53,1256,1430,1236,1222,1302,1496,1512,0,739
39483,0,-2.52,-5.94,-0.54,0.535,0.039,0.715,0.00,0.00,0.00,0.00,2.52,5.94,-0.13,-0.21,31.75,-7.92,0.27,52.00,1351,1375,1321,1153,1300,1496,1512,0,742
39495,0,-0.11,-2.84,-0.33,0.635,0.005,0.641,0.00,0.00,0.00,0.00,0.11,2.84,-0.11,-0.18,31.95,-23.08,-34.35,51.68,1351,1375,1321,1153,1306,1493,1512,0,742
39507,0,5.24,10.04,-1.14,0.499,0.009,0.708,0.00,0.00,0.00,0.00,-5.24,-10.04,-0.09,-0.18,32.19,-49.83,-59.34,53.95,1351,1375,1321,1153,1306,1493,1512,0,742
39519,0,8.80,21.68,-0.94,0.195,-0.012,0.895,0.00,0.00,0.00,0.00,-8.80,-21.68,-0.07,-0.22,32.47,-70.49,-55.66,53.73,1351,1375,1321,1153,1308,1500,1512,0,742
39531,0,8.40,19.94,-1.32,0.030,-0.057,1.030,0.00,0.00,0.00,0.00,-8.40,-19.94,-0.05,-0.28,32.78,-74.27,-10.61,54.98,1351,1375,1321,1153,1308,1500,1512,0,742
39543,0,7.95,20.43,-2.50,0.054,-0.027,1.076,0.00,0.00,0.00,0.00,-7.95,-20.43,-0.02,-0.33,33.13,-72.59,-4.14,58.29,1351,1375,1321,1153,1308,1500,1512,0,742
39555,0,4.34,22.84,-2.25,0.059,-0.041,1.066,0.00,0.00,0.00,0.00,-4.34,-22.84,0.01,-0.38,33.46,-65.49,-19.52,57.98,1351,1375,1321,1153,1308,1500,1512,0,742
39567,0,-4.50,26.11,-3.19,-0.001,-0.067,1.085,0.00,0.00,0.00,0.00,4.50,-26.11,0.06,-0.43,33.77,-46.44,-40.32,60.63,1351,1375,1321,1153,1308,1500,1512,0,742
39579,0,-11.51,16.65,-3.32,0.004,-0.074,1.044,0.00,0.00,0.00,0.00,11.51,-16.65,0.11,-0.47,34.13,-28.07,-4.85,64.02,1268,1404,1340,1220,1308,1491,1512,0,741
39591,0,-13.37,4.86,-3.05,0.052,-0.088,0.987,0.00,0.00,0.00,0.00,13.37,-4.86,0.17,-0.49,34.50,-31.62,17.05,63.73,1268,1404,1340,1220,1308,1500,1512,0,741
39603,0,-13.60,6.33,-3.26,0.026,-0.052,1.027,0.00,0.00,0.00,0.00,13.60,-6.33,0.23,-0.49,34.89,-41.66,-19.18,64.63,1268,1404,1340,1220,1308,1500,1512,0,741
39615,0,-14.08,-1.23,-2.09,-0.075,-0.121,1.118,0.00,0.00,0.00,5.40,14.08,6.63,0.29,-0.49,35.28,-42.67,8.64,64.82,1268,1404,1340,1220,1294,1499,1527,0,741
39627,0,-15.68,-19.04,-0.75,0.011,-0.228,0.995,0.00,0.00,0.00,5.40,15.68,24.44,0.36,-0.46,35.67,-40.81,55.77,61.85,1268,1404,1340,1220,1294,1499,1527,0,741
39639,0,-13.62,-29.51,-1.51,0.191,-0.244,0.863,0.00,0.00,0.00,0.00,13.62,29.51,0.43,-0.41,36.09,-56.62,57.61,65.06,1268,1404,1340,1220,1310,1498,1512,0,741
39651,0,-12.58,-31.67,-3.09,0.304,-0.259,0.791,0.00,0.00,0.00,0.00,12.58,31.67,0.49,-0.36,36.51,-61.06,48.49,69.44,1268,1404,1340,1220,1310,1501,1512,0,741
39663,0,-21.81,-37.42,-5.60,0.323,-0.347,0.716,0.00,0.00,0.00,0.00,21.81,37.42,0.57,-0.28,36.93,-27.61,38.49,75.23,1268,1404,1340,1220,1311,1501,1512,0,741
39675,0,-26.03,-29.39,-7.01,0.191,-0.334,0.736,0.00,0.00,0.00,0.00,26.03,29.39,0.65,-0.22,37.39,-19.66,31.23,80.13,1268,1404,1340,1220,1314,1500,1512,0,741
39687,0,-35.57,-33.03,-7.22,0.153,-0.401,0.745,0.00,0.00,0.00,0.00,35.57,33.03,0.74,-0.19,37.88,8.59,84.93,81.13,1205,1455,1321,1275,1314,1500,1512,0,740
39699,0,-42.57,-24.17,-7.71,0.263,-0.467,0.693,0.00,0.00,0.00,0.00,42.57,24.17,0.83,-0.16,38.37,31.06,55.89,84.65,1205,1455,1321,1275,1313,1500,1513,0,740
39711,0,-40.82,-15.56,-4.08,0.453,-0.418,0.594,0.00,0.00,0.00,0.00,40.82,15.56,0.91,-0.12,38.86,31.07,12.18,76.07,1205,1455,1321,1275,1313,1501,1512,0,740
39723,0,-45.34,-7.63,-3.29,0.549,-0.408,0.596,0.00,0.00,0.00,0.00,45.34,7.63,0.99,-0.10,39.33,54.63,-10.08,74.55,1205,1455,1321,1275,1313,1501,1512,0,740
39735,0,-48.74,15.39,-7.36,0.473,-0.351,0.738,0.00,0.00,0.00,0.00,48.74,-15.39,1.06,-0.12,39.85,81.84,-44.64,85.24,1205,1455,1321,1275,1314,1500,1512,0,740
39747,128,-51.84,32.27,-7.24,0.244,-0.288,0.914,0.00,0.00,0.00,0.00,51.84,-32.27,1.13,-0.19,40.37,108.77,-50.54,85.48,1205,1455,1321,1275,1314,1500,1512,0,740
39759,128,-56.39,27.65,-6.20,0.200,-0.308,0.941,0.00,0.00,0.00,0.00,56.39,-27.65,1.19,-0.24,40.83,110.00,-20.50,83.34,1205,1455,1321,1275,1314,1500,1512,0,740
39771,128,-48.89,24.08,-5.21,0.075,-0.177,0.958,0.00,0.00,0.00,0.00,48.89,-24.08,1.25,-0.29,41.29,110.00,-24.66,81.32,1205,1455,1321,1275,1314,1500,1512,0,740
39783,0,-43.33,10.96,-2.61,-0.017,-0.142,0.995,0.00,0.00,0.00,0.00,43.33,-10.96,1.31,-0.33,41.73,100.72,20.50,75.25,1306,1482,1312,1160,1315,1500,1512,0,740
39795,128,-46.70,-6.96,-2.93,0.023,-0.008,0.970,0.00,0.00,0.00,0.00,46.70,6.96,1.36,-0.31,42.14,110.00,30.33,77.37,1306,1482,1312,1160,1315,1500,1512,0,740
39807,0,-40.66,-10.23,-3.82,-0.020,0.159,1.064,0.00,0.00,0.00,0.00,40.66,10.23,1.42,-0.28,42.56,87.20,5.89,80.02,1306,1482,1312,1160,1315,1500,1512,0,740
39819,0,-35.77,-21.41,-2.49,0.130,0.200,1.040,0.00,0.00,0.00,0.00,35.77,21.41,1.49,-0.22,42.96,57.53,9.46,77.09,1306,1482,1312,1160,1315,1500,1512,0,740
39831,0,-33.00,-33.14,-0.40,0.321,0.115,0.896,0.00,0.00,0.00,0.00,33.00,33.14,1.57,-0.15,43.31,30.26,25.07,72.22,1306,1482,1312,1160,1315,1500,1512,0,740
39843,0,-23.08,-31.16,3.33,0.252,0.077,0.851,0.00,0.00,0.00,0.00,23.08,31.16,1.66,-0.06,43.60,-34.07,-7.14,63.19,1306,1482,1312,1160,1315,1500,1512,0,740
39855,0,-18.72,-54.92,3.15,0.460,0.052,0.716,0.00,0.00,0.00,0.00,18.72,54.92,1.75,0.04,43.90,-62.98,70.81,63.93,1306,1482,1312,1160,1316,1500,1512,0,740
39867,0,-11.48,-34.72,2.75,0.406,0.029,0.803,0.00,0.00,0.00,0.00,11.48,34.72,1.84,0.13,44.15,-86.23,-2.97,65.17,1306,1482,1312,1160,1316,1500,1512,0,740
39879,0,-14.13,-34.93,1.98,0.409,-0.089,0.809,0.00,0.00,-4.40,0.00,9.73,34.93,1.91,0.20,44.42,-81.74,37.37,67.37,1367,1427,1339,1131,1316,1478,1512,0,781
39891,0,-15.08,-25.90,3.43,0.329,-0.273,0.838,0.00,0.00,0.00,0.00,15.08,25.90,1.99,0.23,44.67,-69.01,40.41,64.00,1367,1427,1339,1131,1316,1500,1512,0,781
39903,0,-19.00,-14.85,4.77,0.290,-0.309,0.779,0.00,0.00,0.00,0.00,19.00,14.85,2.06,0.27,44.96,-53.38,4.57,64.53,1367,1427,1339,1131,1316,1500,1512,0,781
39915,0,-26.55,-14.85,2.94,0.203,-0.281,0.822,0.00,0.00,0.00,0.00,26.55,14.85,2.14,0.29,45.28,-12.41,22.41,72.14,1367,1427,1339,1131,1315,1500,1513,0,781
39927,0,-31.62,-5.25,1.90,0.032,-0.219,0.908,0.00,0.00,0.00,0.00,31.62,5.25,2.20,0.31,45.65,18.59,-11.92,75.11,1367,1427,1339,1131,1315,1500,1513,0,781
39939,0,-41.16,-6.53,0.54,-0.006,-0.232,0.996,0.00,0.00,0.00,0.00,41.16,6.53,2.27,0.32,46.01,64.14,10.87,77.96,1367,1427,1339,1131,1316,1499,1512,0,781
39951,0,-41.72,4.09,1.41,-0.064,-0.201,1.110,0.00,0.00,0.00,0.00,41.72,-4.09,2.32,0.31,46.37,76.48,-13.45,76.13,1367,1427,1339,1131,1316,1501,1511,0,781
39963,0,-40.51,1.13,4.43,-0.049,-0.188,1.114,0.00,0.00,0.00,0.00,40.51,-1.13,2.38,0.30,46.75,74.55,10.98,74.36,1367,1427,1339,1131,1321,1501,1511,0,781
39975,0,-45.13,1.38,3.31,-0.059,-0.167,1.159,0.00,0.00,0.00,0.00,45.13,-1.38,2.44,0.29,47.15,90.63,21.46,80.27,1367,1427,1339,1131,1320,1501,1512,0,781
39987,0,-47.08,2.16,1.27,-0.117,-0.097,1.245,0.00,0.00,0.00,0.00,47.08,-2.16,2.50,0.28,47.58,100.23,10.83,85.81,1303,1447,1357,1173,1320,1501,1512,0,739
39999,128,-48.81,-1.63,1.17,-0.195,-0.031,1.279,0.00,0.00,0.00,0.00,48.81,1.63,2.57,0.27,47.95,109.13,30.55,79.21,1303,1447,1357,1173,1319,1501,1511,0,739
40011,128,-51.44,6.54,1.13,-0.259,-0.052,1.283,0.00,0.00,0.00,0.00,51.44,-6.54,2.64,0.25,48.26,110.00,0.69,79.64,1303,1447,1357,1173,1319,1500,1512,0,739
40023,0,-47.00,12.39,2.20,-0.469,-0.017,1.418,0.00,0.00,0.00,0.00,47.00,-12.39,2.71,0.22,48.43,90.02,-11.78,66.33,1303,1447,1357,1173,1319,1500,1512,0,739
40035,0,-39.81,0.02,3.85,-0.519,0.079,1.435,0.00,0.00,0.00,0.00,39.81,-0.02,2.78,0.21,48.58,60.54,24.96,60.56,1303,1447,1357,1173,1316,1500,1512,0,739
40047,0,-40.66,-17.37,4.62,-0.393,0.076,1.354,0.00,0.00,0.00,0.00,40.66,17.37,2.86,0.23,48.68,60.79,55.11,58.74,1303,1447,1357,1173,1316,1500,1512,0,739
40059,0,-40.89,-24.21,4.47,-0.329,0.079,1.283,0.00,0.00,0.00,0.00,40.89,24.21,2.93,0.29,48.75,57.81,28.76,57.37,1303,1447,1357,1173,1312,1500,1512,0,739
40071,0,-33.58,-16.58,2.91,-0.312,0.121,1.318,0.00,0.00,-5.60,0.00,27.98,16.58,3.01,0.35,48.82,24.08,-22.01,61.35,1303,1447,1357,1173,1312,1472,1512,0,739
40083,0,-34.88,-18.65,5.47,-0.186,0.075,1.247,0.00,0.00,-5.60,0.00,29.28,18.65,3.07,0.41,48.88,31.42,-15.48,55.01,1290,1338,1302,1150,1270,1472,1512,0,738
40095,0,-28.67,-5.91,7.62,-0.075,0.054,1.157,0.00,0.00,0.00,0.00,28.67,5.91,3.14,0.47,48.91,12.13,-69.10,51.47,1290,1338,1302,1150,1249,1500,1512,0,738
40107,0,-23.14,-7.71,9.60,0.122,0.036,1.050,0.00,0.00,0.00,0.00,23.14,7.71,3.21,0.51,48.94,-3.17,-41.80,46.54,1290,1338,1302,1150,1249,1500,1512,0,738
40119,0,-19.90,-23.35,9.33,0.434,0.000,0.815,0.00,0.00,0.00,0.00,19.90,23.35,3.27,0.58,48.94,-3.85,0.18,44.50,1290,1338,1302,1150,1231,1500,1512,0,738
40131,0,-13.68,-22.01,8.31,0.424,-0.003,0.711,0.00,0.00,0.00,0.00,13.68,22.01,3.32,0.65,48.92,-26.42,-6.73,47.03,1290,1338,1302,1150,1231,1500,1512,0,738
40143,0,-6.20,-7.10,6.39,0.287,-0.030,0.819,0.00,0.00,0.00,0.00,6.20,7.10,3.36,0.67,48.95,-43.35,-24.59,52.77,1290,1338,1302,1150,1231,1500,1512,0,738
40155,0,2.57,4.82,7.28,0.052,-0.076,0.944,0.00,0.00,0.00,0.00,-2.57,-4.82,3.40,0.67,49.01,-66.50,-39.54,53.30,1290,1338,1302,1150,1231,1500,1512,0,738
40167,0,9.49,4.26,9.34,-0.022,-0.163,0.964,0.00,0.00,0.00,0.00,-9.49,-4.26,3.42,0.67,49.09,-83.72,-31.61,48.25,1290,1338,1302,1150,1231,1500,1512,0,738
40179,0,6.99,-20.84,7.65,0.198,-0.214,0.746,0.00,0.00,0.00,0.00,-6.99,20.84,3.44,0.70,49.30,-63.63,44.18,67.07,1271,1317,1279,1100,1231,1500,1513,0,738
40191,0,2.99,-26.63,4.55,0.208,-0.163,0.684,0.00,0.00,0.00,0.00,-2.99,26.63,3.45,0.76,49.60,-35.62,39.69,75.11,1271,1317,1279,1100,1231,1500,1512,0,738
40203,0,0.27,-8.66,1.83,0.071,-0.066,0.837,0.00,0.00,0.00,0.00,-0.27,8.66,3.45,0.77,49.96,-6.42,0.64,85.89,1271,1317,1279,1100,1232,1500,1512,0,738
40215,0,-2.39,-16.51,3.02,0.222,-0.049,0.783,0.00,0.00,0.00,0.00,2.39,16.51,3.44,0.78,50.30,23.85,55.11,82.35,1271,1317,1279,1100,1233,1500,1513,0,738
40227,0,-1.78,-10.11,3.02,0.249,0.020,0.747,0.00,0.00,0.00,0.00,1.78,10.11,3.43,0.83,50.62,27.10,-17.96,82.67,1271,1317,1279,1100,1233,1500,1513,0,738
40239,0,2.88,9.66,4.67,0.299,0.064,0.794,0.00,0.00,0.00,0.00,-2.88,-9.66,3.41,0.85,50.93,23.43,-76.46,75.26,1271,1317,1279,1100,1245,1500,1513,0,738
40251,0,6.39,-21.39,6.65,0.514,0.021,0.558,0.00,0.00,0.00,0.00,-6.39,21.39,3.40,0.91,51.20,8.69,18.50,70.58,1271,1317,1279,1100,1245,1500,1512,0,738
40263,0,17.22,-0.46,5.29,0.371,0.068,0.719,0.00,0.00,0.00,0.00,-17.22,0.46,3.38,0.95,51.48,-40.69,-68.63,73.35,1271,1317,1279,1100,1246,1500,1512,0,738
40275,0,10.91,-34.92,4.53,0.585,-0.033,0.539,0.00,0.00,0.00,0.00,-10.91,34.92,3.36,0.97,51.76,-10.55,110.00,74.63,1271,1317,1279,1100,1254,1500,1512,0,738
40287,0,2.87,-35.43,3.36,0.424,-0.055,0.601,0.00,0.00,0.00,0.00,-2.87,35.43,3.34,1.01,52.00,20.78,85.68,77.80,1196,1378,1260,1182,1254,1500,1512,0,738
40299,0,-2.94,-47.92,4.84,0.505,-0.108,0.471,0.00,0.00,0.00,0.00,2.94,47.92,3.31,1.04,52.25,54.78,110.00,77.94,1196,1378,1260,1182,1259,1499,1512,0,738
40311,0,2.03,-26.00,6.44,0.424,-0.051,0.496,0.00,0.00,0.00,0.00,-2.03,26.00,3.28,1.12,52.50,39.25,9.32,74.20,1196,1378,1260,1182,1259,1493,1512,0,738
40323,0,15.77,-9.31,9.98,0.643,-0.074,0.417,0.00,0.00,0.00,0.00,-15.77,9.31,3.24,1.16,52.73,-7.16,-41.68,66.48,1196,1378,1260,1182,1260,1493,1512,0,738
40335,0,22.37,-11.62,10.10,0.768,-0.147,0.260,0.00,0.00,0.00,0.00,-22.37,11.62,3.21,1.26,52.94,-44.41,-93.48,65.48,1196,1378,1260,1182,1260,1490,1512,0,738
40347,0,30.36,-16.30,8.45,0.731,-0.162,0.338,0.00,0.00,0.00,0.00,-30.36,16.30,3.18,1.32,53.15,-79.93,-48.15,69.83,1196,1378,1260,1182,1260,1490,1512,0,738
40359,0,13.54,-40.21,7.20,0.643,-0.239,0.281,0.00,0.00,0.00,0.00,-13.54,40.21,3.15,1.38,53.08,-5.83,72.26,35.08,1196,1378,1260,1182,1279,1500,1512,0,738
40371,0,12.47,-34.85,7.29,0.438,-0.175,0.417,0.00,0.00,0.00,0.00,-12.47,34.85,3.10,1.42,52.83,10.23,72.12,34.61,1196,1378,1260,1182,1279,1500,1512,0,738
40383,0,13.02,-32.32,8.71,0.483,-0.214,0.336,0.00,0.00,0.00,0.00,-13.02,32.32,3.06,1.46,52.57,21.84,82.60,30.79,1201,1391,1229,1299,1280,1500,1512,0,735
40395,0,26.21,20.28,7.06,0.283,-0.088,0.513,0.00,0.00,0.00,0.00,-26.21,-20.28,3.01,1.48,52.38,-27.90,-110.00,34.73,1201,1391,1229,1299,1281,1500,1512,0,735
40407,0,31.75,2.79,7.79,0.567,-0.106,0.371,0.00,0.00,0.00,0.00,-31.75,-2.79,2.95,1.50,52.22,-46.45,-37.24,32.73,1201,1391,1229,1299,1281,1500,1512,0,735
40419,0,34.11,-0.24,6.96,0.622,-0.061,0.410,0.00,0.00,0.00,0.00,-34.11,0.24,2.91,1.58,52.33,-66.10,-110.00,68.24,1201,1391,1229,1299,1283,1499,1513,0,735
40431,0,26.25,26.51,4.78,0.473,-0.008,0.614,0.00,0.00,0.00,0.00,-26.25,-26.51,2.86,1.58,52.61,-33.31,-110.00,73.97,1201,1391,1229,1299,1283,1493,1513,0,735
40443,0,23.48,-0.17,5.15,0.467,-0.046,0.626,0.00,0.00,0.00,0.00,-23.48,0.17,2.82,1.54,52.92,-22.19,44.03,76.95,1201,1391,1229,1299,1283,1493,1513,0,735
40455,0,21.26,-15.87,4.34,0.456,-0.133,0.630,0.00,0.00,0.00,0.00,-21.26,15.87,2.76,1.51,53.20,-6.75,110.00,81.06,1201,1391,1229,1299,1284,1500,1512,0,735
40467,0,12.56,-15.67,3.88,0.328,-0.146,0.649,0.00,0.00,0.00,0.00,-12.56,15.67,2.72,1.50,53.49,29.54,91.07,82.48,1201,1391,1229,1299,1284,1500,1512,0,735
40479,0,9.06,1.91,3.30,0.019,-0.074,0.832,0.00,0.00,0.00,0.00,-9.06,-1.91,2.66,1.49,53.87,47.07,16.66,96.02,1159,1319,1445,1221,1286,1500,1513,0,744
40491,0,10.65,5.84,3.58,-0.016,-0.057,0.900,0.00,0.00,0.00,0.00,-10.65,-5.84,2.60,1.44,54.32,52.23,47.83,95.77,1159,1319,1445,1221,1286,1501,1512,0,744
40503,0,16.73,3.49,5.39,0.048,-0.076,0.819,0.00,0.00,0.00,0.00,-16.73,-3.49,2.54,1.43,54.88,25.61,28.45,103.49,1159,1319,1445,1221,1291,1501,1512,0,744
40515,0,19.82,19.87,7.22,-0.013,-0.060,0.916,0.00,0.00,0.00,0.00,-19.82,-19.87,2.49,1.41,55.44,10.51,-57.07,105.78,1159,1319,1445,1221,1293,1500,1513,0,744
40527,0,19.42,13.03,9.24,0.134,-0.109,0.854,0.00,0.00,0.00,0.00,-19.42,-13.03,2.43,1.39,56.03,12.31,-25.34,101.32,1159,1319,1445,1221,1293,1500,1513,0,744
40539,0,23.55,-17.10,10.89,0.251,-0.141,0.713,0.00,0.00,0.00,0.00,-23.55,17.10,2.38,1.42,56.66,-17.72,48.06,108.63,1159,1319,1445,1221,1297,1500,1512,0,744
40551,0,34.40,2.89,11.38,0.039,-0.099,0.891,0.00,0.00,0.00,-57.00,-34.40,-59.89,2.33,1.41,57.34,-68.71,-92.72,108.07,1159,1319,1445,1221,1297,1500,1215,0,744
40563,0,27.33,-3.73,12.22,0.007,-0.193,0.892,0.00,0.00,0.00,-57.00,-27.33,-53.27,2.28,1.25,58.02,-34.60,4.13,108.47,1159,1319,1445,1221,1299,1500,1215,0,744
40575,0,20.14,-21.57,11.32,0.046,-0.166,0.842,0.00,0.00,0.00,0.00,-20.14,21.57,2.24,1.23,58.65,-14.17,64.49,110.00,1159,1319,1445,1221,1302,1501,1511,0,744
40587,0,20.13,-7.40,9.75,-0.084,-0.105,1.031,0.00,0.00,0.00,0.00,-20.13,7.40,2.18,1.22,59.30,4.57,43.98,110.00,1206,1500,1316,1178,1302,1501,1511,0,744
40599,0,24.39,5.67,11.85,0.003,-0.087,1.017,0.00,0.00,0.00,0.00,-24.39,-5.67,2.10,1.19,59.93,11.33,13.21,110.00,1206,1500,1316,1178,1303,1500,1506,0,744
40611,0,24.32,34.95,13.96,-0.155,-0.080,1.115,0.00,0.00,15.60,0.00,-8.72,-34.95,2.04,1.16,60.54,30.70,-98.57,110.00,1206,1500,1316,1178,1303,1578,1510,0,744
40623,0,39.30,60.80,17.56,-0.262,-0.049,1.273,0.00,0.00,15.60,0.00,-23.70,-60.80,1.97,1.04,61.14,-1.70,-95.27,105.43,1206,1500,1316,1178,1304,1578,1510,0,744
40635,0,51.45,50.90,20.45,0.013,-0.039,1.190,0.00,0.00,23.40,0.00,-28.05,-50.90,1.92,0.97,61.68,-38.11,-92.22,97.85,1206,1500,1316,1178,1305,1617,1520,0,744
40647,0,50.38,22.94,21.36,0.359,-0.139,0.885,0.00,0.00,23.40,0.00,-26.98,-22.94,1.87,0.92,62.15,-39.90,-13.63,96.04,1206,1500,1316,1178,1305,1617,1520,0,744
40659,0,60.95,19.58,20.41,0.254,-0.153,0.975,0.00,0.00,27.00,0.00,-33.95,-19.58,1.84,0.88,62.55,-89.43,-21.62,97.93,1206,1500,1316,1178,1321,1635,1510,0,744
40671,0,43.40,-3.22,17.74,0.353,-0.273,0.904,0.00,0.00,27.60,0.00,-15.80,3.22,1.81,0.81,63.01,-15.31,110.00,105.05,1206,1500,1316,1178,1321,1638,1511,0,744
40683,0,30.94,-20.35,21.61,0.266,-0.216,0.783,0.00,0.00,27.60,0.00,-3.34,20.35,1.78,0.83,63.37,33.64,92.04,95.75,1231,1339,1495,1223,1322,1638,1511,0,739
40695,0,31.95,29.08,22.70,-0.100,-0.092,1.119,0.00,0.00,34.00,0.00,2.05,-29.08,1.75,0.76,63.71,38.05,-34.29,86.16,1231,1339,1495,1223,1331,1670,1490,0,739
40707,0,30.93,10.11,21.16,0.154,-0.087,1.015,0.00,0.00,34.00,0.00,3.07,-10.11,1.73,0.71,64.02,44.48,46.32,90.31,1231,1339,1495,1223,1331,1670,1490,0,739
40719,0,42.17,60.98,21.16,-0.109,0.066,1.150,0.00,0.00,39.20,0.00,-2.97,-60.98,1.72,0.67,64.39,10.46,-110.00,97.90,1231,1339,1495,1223,1324,1696,1510,0,739
40731,0,43.62,45.57,22.18,0.181,-0.058,1.056,0.00,0.00,39.20,0.00,-4.42,-45.57,1.71,0.58,64.77,7.54,-56.91,95.72,1231,1339,1495,1223,1324,1696,1510,0,739
40743,0,56.89,17.47,25.72,0.253,-0.075,0.926,0.00,0.00,39.20,0.00,-17.69,-17.47,1.70,0.57,65.06,-55.80,-31.32,85.36,1231,1339,1495,1223,1325,1696,1510,0,739
40755,0,63.86,42.61,23.18,0.053,-0.085,1.176,0.00,0.00,43.80,0.00,-20.06,-42.61,1.69,0.48,65.40,-80.15,-71.20,89.36,1231,1339,1495,1223,1326,1719,1510,0,739
40767,0,59.94,21.76,25.11,0.194,-0.195,1.065,0.00,0.00,43.80,0.00,-16.14,-21.76,1.68,0.39,65.67,-57.62,47.12,84.80,1231,1339,1495,1223,1326,1719,1510,0,739
40779,0,59.11,28.45,24.69,0.085,-0.278,1.113,0.00,0.00,44.20,0.00,-14.91,-28.45,1.68,0.28,65.89,-52.88,42.09,86.06,1332,1420,1400,1144,1324,1721,1510,0,739
40791,0,53.63,18.12,25.37,0.169,-0.331,0.982,0.00,0.00,49.60,0.00,-4.03,-18.12,1.66,0.19,66.14,-12.87,83.80,84.60,1332,1420,1400,1144,1324,1748,1509,0,739
40803,0,54.24,53.73,28.59,-0.011,-0.291,1.116,0.00,0.00,49.60,0.00,-4.64,-53.73,1.64,0.08,66.29,1.16,-61.16,76.71,1332,1420,1400,1144,1325,1748,1509,0,739
40815,0,48.13,53.14,25.97,0.098,-0.251,1.136,0.00,0.00,51.20,0.00,3.07,-53.14,1.62,-0.05,66.51,46.82,-25.23,83.50,1332,1420,1400,1144,1320,1756,1513,0,739
40827,0,51.32,66.48,26.62,-0.037,-0.172,1.230,0.00,0.00,51.20,0.00,-0.12,-66.48,1.58,-0.16,66.66,58.57,-99.51,82.03,1332,1420,1400,1144,1320,1756,1513,0,739
40839,0,58.75,61.26,25.74,0.040,-0.112,1.211,0.00,0.00,50.60,0.00,-8.15,-61.26,1.53,-0.29,66.85,41.36,-60.46,84.40,1332,1420,1400,1144,1325,1753,1510,0,739
40851,0,67.47,43.58,28.41,0.016,-0.071,1.226,0.00,0.00,51.00,0.00,-16.47,-43.58,1.47,-0.38,66.99,18.46,-17.49,77.86,1332,1420,1400,1144,1325,1755,1511,0,739
40863,0,80.86,40.50,29.46,-0.015,-0.006,1.316,0.00,0.00,51.00,0.00,-29.86,-40.50,1.41,-0.47,67.10,-28.89,-30.87,75.34,1332,1420,1400,1144,1324,1755,1511,0,739
40875,0,86.10,-18.11,30.23,0.313,-0.024,1.055,0.00,0.00,50.40,0.00,-35.70,18.11,1.35,-0.50,67.20,-52.42,110.00,68.13,1332,1420,1400,1144,1324,1752,1511,0,739
40887,0,94.91,-21.83,29.92,0.272,0.008,1.040,0.00,0.00,50.40,0.00,-44.51,21.83,1.29,-0.46,67.20,-94.05,49.39,68.89,1240,1304,1482,1270,1324,1752,1511,0,739
40899,128,99.35,6.55,29.38,0.064,-0.065,1.279,0.00,0.00,50.20,0.00,-49.15,-6.55,1.23,-0.49,67.20,-107.70,-10.75,69.34,1240,1304,1482,1270,1324,1751,1511,0,739
40911,0,94.16,-12.09,31.06,0.237,-0.230,1.121,0.00,0.00,50.20,0.00,-43.96,12.09,1.16,-0.51,67.20,-81.33,83.95,65.15,1240,1304,1482,1270,1324,1751,1511,0,739
40923,0,86.83,-14.66,35.56,0.271,-0.340,0.957,0.00,0.00,50.20,0.00,-36.63,14.66,1.09,-0.48,67.09,-48.72,23.87,54.69,1240,1304,1482,1270,1324,1751,1511,0,739
40935,0,78.55,-23.14,34.84,0.341,-0.329,0.768,0.00,0.00,51.00,0.00,-27.55,23.14,1.02,-0.44,67.00,-13.19,48.53,56.39,1240,1304,1482,1270,1325,1755,1511,0,739
40947,0,75.79,-9.90,33.24,0.038,-0.227,0.998,0.00,0.00,51.00,0.00,-24.79,9.90,0.94,-0.41,66.94,13.36,7.23,60.33,1240,1304,1482,1270,1325,1755,1511,0,739
40959,0,74.09,-6.41,30.14,-0.013,-0.221,1.079,0.00,0.00,51.00,0.00,-23.09,6.41,0.86,-0.42,66.92,34.25,44.82,68.08,1240,1304,1482,1270,1325,1755,1511,0,739
40971,0,71.55,-30.20,33.23,0.152,-0.299,0.938,0.00,0.00,52.40,0.00,-19.15,30.20,0.76,-0.38,66.83,56.29,80.75,60.26,1240,1304,1482,1270,1325,1762,1510,0,739
40983,0,75.47,-21.63,33.57,0.312,-0.332,0.947,0.00,0.00,52.40,0.00,-23.07,21.63,0.66,-0.35,66.74,50.08,36.71,59.32,1256,1402,1378,1260,1324,1762,1510,0,739
40995,0,72.57,-38.09,38.03,0.511,-0.345,0.689,0.00,0.00,50.60,0.00,-21.97,38.09,0.56,-0.27,66.61,67.40,61.79,48.03,1256,1402,1378,1260,1324,1753,1506,0,739
41007,0,81.43,-4.69,35.03,0.364,-0.279,0.893,0.00,0.00,50.60,0.00,-30.83,4.69,0.46,-0.27,66.49,27.49,-7.13,55.40,1256,1402,1378,1260,1324,1753,1506,0,739
41019,0,87.37,-43.82,35.80,0.404,-0.277,0.811,0.00,0.00,49.40,0.00,-37.97,43.82,0.36,-0.23,66.41,-4.37,110.00,57.00,1256,1402,1378,1260,1325,1747,1506,0,739
41031,0,91.29,-29.46,32.55,0.318,-0.273,0.960,0.00,0.00,47.80,0.00,-43.49,29.46,0.25,-0.20,66.34,-21.43,72.68,65.07,1256,1402,1378,1260,1325,1739,1507,0,739
41043,0,90.64,-32.76,34.74,0.291,-0.289,0.912,0.00,0.00,47.80,0.00,-42.84,32.76,0.14,-0.16,66.27,-13.03,82.20,60.42,1256,1402,1378,1260,1325,1739,1507,0,739
41055,0,98.61,-10.79,35.89,0.212,-0.263,0.988,0.00,0.00,48.20,0.00,-50.41,10.79,0.03,-0.15,66.16,-48.05,13.85,57.44,1256,1402,1378,1260,1325,1741,1507,0,739
41067,0,102.22,-46.76,41.43,0.390,-0.309,0.723,0.00,0.00,48.20,0.00,-54.02,46.76,-0.09,-0.08,66.00,-57.99,101.59,43.42,1256,1402,1378,1260,1325,1741,1507,0,739
41079,0,111.38,-19.00,43.46,0.319,-0.275,0.823,0.00,0.00,46.00,0.00,-65.38,19.00,-0.23,0.00,65.75,-84.47,-48.67,39.89,1321,1495,1231,1249,1324,1730,1506,0,741
41091,0,117.44,5.88,39.62,0.381,-0.255,0.798,0.00,0.00,48.60,0.00,-68.84,-5.88,-0.36,0.00,65.54,-93.14,-62.82,49.29,1321,1495,1231,1249,1324,1743,1496,0,741
41103,0,118.04,10.46,39.34,0.247,-0.212,0.879,0.00,0.00,48.60,0.00,-69.44,-10.46,-0.51,0.00,65.26,-64.84,-57.20,46.10,1321,1495,1231,1249,1325,1743,1496,0,741
41115,0,125.16,15.12,40.00,0.281,-0.178,0.835,0.00,0.00,48.20,0.00,-76.96,-15.12,-0.68,-0.02,64.97,-64.18,-38.59,41.47,1321,1495,1231,1249,1324,1741,1498,0,741
41127,0,130.72,34.40,41.88,0.159,-0.116,0.928,0.00,0.00,48.20,0.00,-82.52,-34.40,-0.86,-0.05,64.64,-70.20,-110.00,36.45,1321,1495,1231,1249,1324,1741,1498,0,741
41139,0,129.47,14.77,42.23,0.228,-0.108,0.926,0.00,0.00,48.60,0.00,-80.87,-14.77,-1.04,-0.06,64.33,-45.73,-38.05,35.25,1321,1495,1231,1249,1324,1743,1498,0,741
41151,0,126.32,30.90,44.05,0.066,-0.022,1.096,0.00,0.00,47.00,0.00,-79.32,-30.90,-1.22,-0.05,63.94,-28.29,-110.00,30.31,1321,1495,1231,1249,1324,1735,1498,0,741
41163,0,122.44,18.26,42.55,0.130,0.001,1.092,0.00,0.00,47.00,0.00,-75.44,-18.26,-1.41,-0.07,63.60,-13.39,-53.31,33.72,1321,1495,1231,1249,1324,1735,1498,0,741
41175,0,116.68,10.97,42.24,-0.092,0.048,1.168,0.00,0.00,43.80,0.00,-72.88,-10.97,-1.59,-0.06,63.23,-6.91,-45.01,34.13,1321,1495,1231,1249,1324,1719,1498,0,741
41187,0,111.06,-23.98,39.28,-0.054,0.003,1.120,0.00,0.00,43.80,0.00,-67.26,23.98,-1.77,-0.08,62.93,8.77,110.00,41.24,1253,1401,1315,1327,1324,1719,1498,0,741
41199,0,114.73,-30.53,40.06,-0.113,-0.001,1.224,0.00,0.00,39.00,0.00,-75.73,30.53,-1.95,-0.03,62.59,-15.95,86.37,38.95,1253,1401,1315,1327,1324,1695,1509,0,741
41211,0,117.36,-44.28,40.49,0.111,-0.106,1.142,0.00,0.00,-36.00,0.00,-153.36,44.28,-2.21,0.00,62.28,-52.49,110.00,37.55,1253,1401,1315,1327,1324,1320,1509,0,741
41223,0,116.24,-2.05,40.99,-0.004,-0.119,1.294,0.00,0.00,-36.00,0.00,-152.24,2.05,-2.57,0.03,61.99,-62.10,-45.28,40.52,1253,1401,1315,1327,1324,1320,1509,0,741
41235,0,107.71,-8.55,43.17,-0.039,-0.193,1.213,0.00,0.00,27.60,0.00,-80.11,8.55,-2.82,0.03,61.69,-22.31,26.23,28.47,1253,1401,1315,1327,1324,1638,1508,0,741
41247,0,107.42,33.22,30.04,-0.284,0.126,1.431,0.00,0.00,27.60,0.00,-79.82,-33.22,-3.01,-0.01,61.43,-44.85,-101.00,61.03,1253,1401,1315,1327,1324,1638,1508,0,741
41259,128,-37.71,5.25,19.72,0.099,0.337,2.126,0.00,0.00,33.40,0.00,71.11,-5.25,-2.90,-0.11,61.65,110.00,109.13,87.04,1253,1401,1315,1327,1324,1667,1508,0,741
41271,0,-96.51,3.00,11.07,-0.179,0.372,1.812,0.00,0.00,30.40,0.00,126.91,-3.00,-2.56,0.05,61.94,98.53,-110.00,108.96,1253,1401,1315,1327,1324,1652,1508,0,741
41283,0,-123.11,39.26,13.68,-0.063,0.254,1.484,0.00,0.00,30.40,0.00,153.51,-39.26,-2.14,-0.09,62.37,21.79,-51.56,99.26,1100,1384,1460,1408,1324,1652,1508,0,739
41295,0,-164.69,66.96,7.16,-0.353,0.175,1.821,0.00,0.00,28.80,0.00,193.49,-66.96,-1.66,-0.06,62.99,95.16,-110.00,110.00,1100,1384,1460,1408,1324,1644,1509,0,739
41307,0,-152.23,61.91,11.93,-0.278,0.113,1.563,0.00,0.00,28.80,0.00,181.03,-61.91,-1.21,-0.07,63.44,48.87,-110.00,105.62,1100,1384,1460,1408,1324,1644,1509,0,739
41319,0,-165.55,54.96,14.03,-0.499,0.079,1.384,0.00,0.00,24.00,0.00,189.55,-54.96,-0.75,-0.08,63.92,77.20,-110.00,100.85,1100,1384,1460,1408,1325,1620,1509,0,739
41331,0,-160.85,21.09,7.97,-0.116,0.009,1.504,0.00,0.00,9.20,0.00,170.05,-21.09,-0.32,-0.13,64.42,71.25,-27.78,110.00,1100,1384,1460,1408,1325,1546,1507,0,739
41343,0,-153.18,18.95,13.19,-0.092,0.069,1.249,0.00,0.00,9.20,0.00,162.38,-18.95,0.06,-0.12,64.78,70.51,-80.54,103.80,1100,1384,1460,1408,1324,1546,1507,0,739
41355,0,-152.93,35.88,16.67,-0.399,0.063,1.400,0.00,0.00,14.00,0.00,166.93,-35.88,0.44,-0.13,65.10,91.66,-110.00,94.53,1100,1384,1460,1408,1323,1570,1505,0,739
41367,0,-126.99,52.47,18.94,-0.390,0.045,1.513,0.00,0.00,14.00,0.00,140.99,-52.47,0.79,-0.26,65.35,33.80,-64.89,89.09,1100,1384,1460,1408,1323,1570,1505,0,739
41379,0,-108.19,40.18,20.89,-0.081,0.156,1.296,0.00,0.00,0.00,0.00,108.19,-40.18,1.07,-0.35,65.62,-4.44,-27.39,84.50,1217,1439,1377,1263,1324,1516,1495,0,740
41391,0,-90.41,75.83,23.99,-0.375,0.159,1.453,0.00,0.00,0.00,0.00,90.41,-75.83,1.31,-0.45,65.76,-19.64,-110.00,76.88,1217,1439,1377,1263,1324,1510,1499,0,740
41403,0,-73.50,45.24,23.49,-0.218,0.068,1.399,0.00,0.00,0.00,0.00,73.50,-45.24,1.52,-0.61,65.91,-37.54,36.75,78.28,1217,1439,1377,1263,1324,1510,1499,0,740
41415,0,-51.05,26.88,27.46,-0.145,0.063,1.263,0.00,0.00,0.00,0.00,51.05,-26.88,1.70,-0.71,66.00,-87.27,60.71,69.35,1217,1439,1377,1263,1324,1509,1499,0,740
41427,0,-52.87,41.33,26.85,-0.226,-0.067,1.373,0.00,0.00,0.00,0.00,52.87,-41.33,1.86,-0.83,66.03,-39.76,12.72,70.92,1217,1439,1377,1263,1324,1509,1499,0,740
41439,0,-53.70,24.97,28.31,-0.173,-0.183,1.313,0.00,0.00,0.00,0.00,53.70,-24.97,2.00,-0.97,66.03,-15.17,104.33,67.27,1217,1439,1377,1263,1324,1505,1499,0,740
41451,0,-53.95,9.76,29.47,-0.045,-0.220,1.162,0.00,0.00,0.00,0.00,53.95,-9.76,2.14,-1.05,66.00,0.77,109.13,64.31,1217,1439,1377,1263,1324,1510,1498,0,740
41463,0,-50.96,35.98,31.17,-0.065,-0.220,1.193,0.00,0.00,0.00,0.00,50.96,-35.98,2.25,-1.14,65.93,15.69,-5.33,59.99,1217,1439,1377,1263,1324,1510,1498,0,740
41475,0,-57.73,18.90,30.86,0.127,-0.233,1.060,0.00,0.00,0.00,0.00,57.73,-18.90,2.36,-1.20,65.85,61.59,38.07,60.71,1217,1439,1377,1263,1324,1510,1498,0,740
41487,0,-56.98,14.71,28.35,0.178,-0.088,0.992,0.00,0.00,0.00,0.00,56.98,-14.71,2.46,-1.21,65.80,73.69,-22.85,66.92,1409,1313,1459,1115,1324,1510,1498,0,739
41499,0,-50.98,16.08,28.15,0.167,0.020,1.031,0.00,0.00,0.00,0.00,50.98,-16.08,2.56,-1.22,65.80,58.75,-48.48,70.13,1409,1313,1459,1115,1324,1511,1498,0,739
41511,0,-44.52,9.58,30.28,0.249,0.012,1.025,0.00,0.00,0.00,0.00,44.52,-9.58,2.66,-1.22,65.77,35.12,-40.64,64.76,1409,1313,1459,1115,1324,1512,1497,0,739
41523,0,-36.88,-1.24,31.78,0.360,-0.010,0.938,0.00,0.00,0.00,0.00,36.88,1.24,2.76,-1.21,65.73,-1.11,-12.32,60.08,1409,1313,1459,1115,1324,1512,1497,0,739
41535,0,-32.46,-2.26,32.60,0.373,-0.040,0.917,0.00,0.00,0.00,0.00,32.46,2.26,2.86,-1.21,65.67,-19.18,1.51,58.87,1409,1313,1459,1115,1324,1509,1499,0,739
41547,0,-25.57,18.37,30.93,0.272,-0.084,1.005,0.00,0.00,0.00,0.00,25.57,-18.37,2.95,-1.25,65.62,-43.88,-38.34,63.00,1409,1313,1459,1115,1324,1509,1499,0,739
41559,0,-24.66,26.18,28.95,0.156,-0.090,1.088,0.00,0.00,0.00,0.00,24.66,-26.18,3.05,-1.33,65.62,-43.96,-16.05,67.95,1409,1313,1459,1115,1325,1507,1499,0,739
41571,0,-19.97,24.99,30.83,-0.025,-0.114,1.180,0.00,0.00,0.00,0.00,19.97,-24.99,3.13,-1.41,65.61,-48.04,16.02,63.23,1409,1313,1459,1115,1325,1506,1500,0,739
41583,0,-12.85,14.03,33.02,-0.090,-0.107,1.186,0.00,0.00,0.00,0.00,12.85,-14.03,3.20,-1.46,65.57,-64.65,30.74,56.82,1244,1288,1488,1272,1323,1506,1500,0,739
41595,0,-10.91,-8.95,34.60,0.063,-0.141,1.080,0.00,0.00,0.00,0.00,10.91,8.95,3.26,-1.48,65.50,-56.05,85.14,49.21,1244,1288,1488,1272,1326,1506,1494,0,739
