time_ms,flags,gyro_x,gyro_y,gyro_z,accel_x,accel_y,accel_z,roll,pitch,angle_sp_roll,angle_sp_pitch,angle_err_roll,angle_err_pitch,angle_i_roll,rate_sp_roll,rate_sp_pitch,rate_err_roll,rate_err_pitch,rate_i_roll,pid_roll,pid_pitch,pid_yaw,m1,m2,m3,m4,rc_thr,rc_roll,rc_pitch,battery_mv,loop_us
188859,9,0.08,-0.04,0.10,0.017,-0.043,0.891,0.75,-0.90,0.00,0.00,-0.75,0.90,0.00,-2.63,3.16,-2.71,3.19,0.00,-0.11,0.13,-0.78,1000,1000,1000,1000,1059,1500,1500,10654,794
188871,9,0.12,-0.06,0.06,0.018,-0.041,0.893,0.76,-0.88,0.00,0.00,-0.76,0.88,0.00,-2.68,3.08,-2.80,3.14,0.00,-0.12,0.14,-0.23,1000,1000,1000,1000,1032,1500,1508,10658,794
188883,9,0.12,-0.06,0.07,0.017,-0.043,0.892,0.77,-0.87,0.00,0.00,-0.77,0.87,0.00,-2.70,3.05,-2.83,3.11,0.00,-0.12,0.13,-0.44,1000,1000,1000,1000,1032,1500,1508,10658,794
188895,9,0.14,-0.04,0.09,0.015,-0.042,0.893,0.77,-0.89,0.00,2.61,-0.77,3.50,0.00,-2.68,12.25,-2.82,12.29,0.00,-0.12,0.49,-0.62,1000,1000,1000,1000,1011,1500,1529,10654,794
188907,9,0.07,-0.03,0.07,0.016,-0.042,0.892,0.78,-0.91,0.00,2.61,-0.78,3.52,0.00,-2.71,12.32,-2.79,12.35,0.00,-0.10,0.49,-0.26,1000,1000,1000,1000,1011,1500,1529,10654,794
188919,9,0.10,-0.04,0.05,0.016,-0.042,0.891,0.78,-0.92,0.00,0.00,-0.78,0.92,0.00,-2.72,3.22,-2.82,3.26,0.00,-0.11,0.13,-0.07,1100,1100,1100,1100,1039,1500,1501,10654,794
188931,9,0.14,-0.08,0.09,0.017,-0.042,0.892,0.78,-0.92,0.00,2.07,-0.78,2.99,0.00,-2.74,10.47,-2.88,10.56,0.00,-0.13,0.43,-0.62,1100,1100,1100,1100,1017,1500,1523,10654,794
188943,9,0.13,-0.06,0.10,0.013,-0.044,0.890,0.76,-0.94,0.00,2.07,-0.76,3.01,0.00,-2.67,10.54,-2.81,10.60,0.00,-0.12,0.42,-0.60,1100,1100,1100,1100,1017,1500,1523,10654,794
188955,9,0.13,-0.06,0.03,0.014,-0.045,0.893,0.74,-0.96,0.00,0.00,-0.74,0.96,0.00,-2.59,3.37,-2.72,3.42,0.00,-0.11,0.14,0.24,1100,1100,1100,1100,1031,1500,1509,10650,794
188967,9,0.09,-0.02,0.05,0.018,-0.042,0.891,0.74,-0.94,0.00,0.00,-0.74,0.94,0.00,-2.57,3.29,-2.67,3.31,0.00,-0.09,0.11,-0.23,1100,1100,1100,1100,1031,1500,1509,10650,794
188979,9,0.14,0.05,0.19,0.017,-0.040,0.891,0.77,-0.92,0.00,0.00,-0.77,0.92,0.00,-2.68,3.23,-2.82,3.19,0.00,-0.11,0.08,-1.82,1100,1100,1100,1100,1039,1500,1501,10642,794
188991,9,0.08,0.02,0.21,0.017,-0.041,0.889,0.78,-0.92,0.00,0.00,-0.78,0.92,0.00,-2.72,3.21,-2.80,3.19,0.00,-0.09,0.11,-1.47,1100,1100,1100,1100,1035,1500,1505,10638,794
189003,9,0.07,0.01,0.05,0.014,-0.044,0.892,0.76,-0.94,0.00,0.00,-0.76,0.94,0.00,-2.67,3.29,-2.74,3.28,0.00,-0.09,0.12,0.51,1100,1100,1100,1100,1035,1500,1505,10646,794
189015,9,0.12,0.01,-0.08,0.016,-0.040,0.892,0.75,-0.97,0.00,0.00,-0.75,0.97,0.00,-2.64,3.38,-2.76,3.38,0.00,-0.11,0.11,1.53,1100,1100,1100,1100,1033,1500,1507,10638,794
189027,9,0.19,0.03,0.02,0.019,-0.042,0.892,0.77,-0.95,0.00,0.00,-0.77,0.95,0.00,-2.68,3.31,-2.86,3.28,0.00,-0.12,0.09,-0.09,1100,1100,1100,1100,1033,1500,1507,10642,794
189039,9,0.19,0.06,0.25,0.018,-0.040,0.891,0.78,-0.92,0.00,0.00,-0.78,0.92,0.00,-2.72,3.23,-2.91,3.16,0.00,-0.12,0.08,-2.71,1100,1100,1100,1100,1040,1500,1500,10638,794
189051,9,0.10,0.23,0.30,0.015,-0.046,0.889,0.76,-0.91,0.00,0.00,-0.76,0.91,0.00,-2.67,3.19,-2.77,2.97,0.00,-0.07,0.02,-2.48,1100,1100,1100,1100,1033,1500,1507,10642,794
189063,9,0.02,0.06,0.05,0.015,-0.045,0.889,0.78,-0.88,0.00,0.00,-0.78,0.88,0.00,-2.73,3.08,-2.75,3.01,0.00,-0.07,0.09,0.85,1100,1100,1100,1100,1033,1500,1507,10638,794
189075,9,-0.03,0.17,-0.37,0.011,-0.049,0.895,0.74,-0.89,0.00,0.00,-0.74,0.89,0.00,-2.58,3.12,-2.55,2.95,0.00,-0.05,0.04,4.99,1100,1100,1100,1100,1033,1500,1507,10638,794
189087,9,0.20,0.04,-0.10,0.006,-0.035,0.901,0.77,-0.94,0.00,0.00,-0.77,0.94,0.00,-2.70,3.28,-2.90,3.23,0.00,-0.15,0.10,0.22,1100,1100,1100,1100,1033,1500,1507,10633,794
189099,9,0.24,0.17,0.35,0.013,-0.037,0.896,0.76,-0.93,0.00,0.00,-0.76,0.93,0.00,-2.67,3.24,-2.91,3.07,0.00,-0.14,0.05,-4.52,1100,1100,1100,1100,1034,1500,1506,10617,794
189111,9,0.15,0.13,0.33,0.011,-0.046,0.891,0.75,-0.90,0.00,0.00,-0.75,0.90,0.00,-2.62,3.15,-2.77,3.01,0.00,-0.09,0.06,-2.88,1100,1100,1100,1100,1033,1500,1507,10617,794
189123,9,0.11,0.01,-0.25,0.020,-0.032,0.886,0.82,-0.86,0.00,0.00,-0.82,0.86,0.00,-2.85,3.02,-2.96,3.01,0.00,-0.10,0.16,4.37,1100,1100,1100,1100,1033,1500,1507,10600,794
189135,9,0.14,-0.00,-0.36,0.032,-0.028,0.892,1.07,-0.66,0.00,0.00,-1.07,0.66,0.00,-3.74,2.32,-3.89,2.32,0.00,-0.16,0.08,3.99,1100,1100,1100,1100,1033,1500,1507,10613,794
189147,9,0.20,0.33,0.00,0.032,-0.024,0.882,1.21,-0.51,0.00,0.00,-1.21,0.51,0.00,-4.23,1.80,-4.43,1.47,0.00,-0.19,-0.12,-1.32,1100,1100,1100,1100,1033,1500,1507,10600,794
189159,9,0.45,-0.38,0.41,0.025,-0.036,0.883,1.16,-0.56,0.00,0.00,-1.16,0.56,0.00,-4.06,1.97,-4.52,2.36,0.00,-0.28,0.20,-5.18,1100,1100,1100,1100,1040,1500,1500,10596,794
189171,9,0.33,-0.22,0.12,0.020,-0.041,0.887,1.03,-0.71,0.00,0.00,-1.03,0.71,0.00,-3.61,2.49,-3.94,2.71,0.00,-0.20,0.16,-0.39,1100,1100,1100,1100,1033,1500,1507,10579,794
189183,9,0.13,0.34,-0.23,0.008,-0.044,0.898,0.92,-0.87,0.00,0.00,-0.92,0.87,0.00,-3.22,3.05,-3.35,2.71,0.00,-0.10,-0.02,3.21,1100,1100,1100,1100,1033,1500,1507,10575,794
189195,9,0.13,0.00,-0.17,0.014,-0.045,0.902,0.92,-0.91,0.00,0.00,-0.92,0.91,0.00,-3.23,3.17,-3.36,3.17,0.00,-0.14,0.16,1.42,1100,1100,1100,1100,1039,1500,1501,10563,794
189207,9,0.29,0.01,0.36,0.008,-0.058,0.914,0.77,-0.98,0.00,0.00,-0.77,0.98,0.00,-2.71,3.41,-3.00,3.40,0.00,-0.20,0.19,-4.60,1100,1100,1100,1100,1039,1500,1501,10550,794
189219,9,0.37,-0.30,0.35,0.020,-0.051,0.889,0.66,-0.99,0.00,0.00,-0.66,0.99,0.00,-2.30,3.46,-2.67,3.76,0.00,-0.17,0.35,-2.84,1100,1100,1100,1100,1040,1500,1500,10558,794
189231,9,0.32,-0.36,-0.23,0.016,-0.047,0.878,0.62,-0.97,0.00,0.00,-0.62,0.97,0.00,-2.18,3.38,-2.49,3.74,0.00,-0.12,0.26,4.32,1100,1100,1100,1100,1033,1500,1507,10563,794
189243,9,0.61,-0.31,-0.32,0.024,-0.021,0.895,0.83,-1.00,0.00,0.00,-0.83,1.00,0.00,-2.89,3.49,-3.51,3.81,0.00,-0.25,0.20,3.84,1100,1100,1100,1100,1033,1500,1507,10563,794
189255,9,0.16,0.19,0.12,0.024,-0.027,0.888,1.03,-0.90,0.00,0.00,-1.03,0.90,0.00,-3.62,3.14,-3.77,2.95,0.00,-0.04,-0.01,-2.18,1100,1100,1100,1100,1034,1500,1506,10558,794
189267,9,0.14,0.51,0.20,0.015,-0.051,0.903,0.95,-1.02,0.00,0.00,-0.95,1.02,0.00,-3.31,3.58,-3.45,3.07,0.00,-0.08,-0.01,-2.01,1100,1100,1100,1100,1034,1500,1506,10550,794
189279,9,0.57,-0.31,-0.18,-0.004,-0.060,0.918,0.66,-1.12,0.00,0.00,-0.66,1.12,0.00,-2.32,3.91,-2.89,4.22,0.00,-0.27,0.38,2.84,1100,1100,1100,1100,1040,1500,1500,10550,794
189291,9,0.56,-0.44,0.08,-0.006,-0.022,0.886,0.84,-1.35,0.00,0.00,-0.84,1.35,0.00,-2.94,4.73,-3.50,5.16,0.00,-0.25,0.39,-1.36,1100,1100,1100,1100,1034,1500,1506,10550,794
189303,9,0.39,0.48,0.62,0.029,-0.037,0.881,1.07,-1.21,0.00,0.00,-1.07,1.21,0.00,-3.76,4.24,-4.15,3.76,0.00,-0.15,-0.05,-6.57,1100,1100,1100,1100,1034,1500,1506,10546,794
189315,9,0.33,-0.53,-0.30,0.061,-0.081,0.920,0.69,-0.59,0.00,0.00,-0.69,0.59,0.00,-2.41,2.06,-2.74,2.59,0.00,-0.06,0.37,5.89,1100,1100,1100,1100,1034,1500,1506,10550,794
189327,9,-0.20,-1.23,-0.62,0.007,-0.020,0.868,0.68,-0.62,0.00,0.00,-0.68,0.62,0.00,-2.37,2.16,-2.17,3.38,0.00,0.10,0.42,6.44,1100,1100,1100,1100,1034,1500,1506,10546,794
189339,9,0.50,0.55,0.92,0.014,-0.015,0.858,1.09,-0.86,0.00,2.34,-1.09,3.20,0.00,-3.80,11.19,-4.31,10.64,0.00,-0.36,-0.03,-12.26,1100,1100,1100,1100,1014,1500,1526,10558,794
189351,9,1.01,-0.51,0.26,0.058,-0.103,0.931,0.41,-0.39,0.00,0.00,-0.41,0.39,0.00,-1.45,1.36,-2.46,1.87,0.00,-0.32,0.33,-0.52,1100,1100,1100,1100,1033,1500,1507,10546,794
189363,9,-1.42,-0.62,-0.36,0.017,-0.010,0.839,0.38,-0.37,0.00,0.00,-0.38,0.37,0.00,-1.34,1.31,0.08,1.93,0.00,0.69,0.20,5.32,1100,1100,1100,1100,1033,1500,1507,10546,794
189375,9,0.08,1.31,-0.06,-0.010,-0.016,0.920,0.92,-1.02,0.00,0.00,-0.92,1.02,0.00,-3.22,3.57,-3.31,2.26,0.00,-0.36,-0.47,1.00,1100,1100,1100,1100,1034,1500,1506,10550,794
189387,9,1.19,0.32,-0.57,0.024,-0.063,0.883,0.77,-0.94,0.00,0.00,-0.77,0.94,0.00,-2.71,3.29,-3.91,2.97,0.00,-0.55,0.21,5.82,1100,1100,1100,1100,1034,1500,1506,10550,794
189399,9,0.01,-0.31,1.25,-0.024,-0.060,0.868,0.79,-1.07,0.00,0.00,-0.79,1.07,0.00,-2.76,3.75,-2.78,4.06,0.00,-0.08,0.44,-15.79,1100,1100,1100,1100,1040,1500,1500,10546,794
189411,9,1.86,-1.05,-0.10,-0.005,-0.035,1.020,0.86,-1.22,0.00,1.89,-0.86,3.11,0.00,-3.02,10.88,-4.88,11.93,0.00,-0.76,0.80,4.65,1100,1100,1100,1100,1019,1500,1521,10542,795
189423,9,-0.69,-0.15,-0.02,0.009,-0.028,0.764,0.96,-1.51,0.00,1.89,-0.96,3.40,0.00,-3.37,11.91,-2.68,12.06,0.00,0.55,0.32,0.98,1100,1100,1100,1100,1019,1500,1521,10546,795
189435,9,2.34,-1.39,-0.56,0.069,-0.084,0.925,0.54,-1.06,0.00,0.00,-0.54,1.06,0.00,-1.88,3.71,-4.22,5.09,0.00,-0.80,0.52,7.99,1100,1100,1100,1100,1031,1500,1509,10550,795
189447,9,-0.12,-0.92,0.19,0.036,0.012,0.820,0.82,-0.57,0.00,0.00,-0.82,0.57,0.00,-2.86,2.00,-2.74,2.91,0.00,0.31,0.08,-4.53,1100,1100,1100,1100,1031,1500,1509,10563,795
189459,9,-0.09,-1.14,0.71,0.045,-0.050,0.929,0.95,-0.49,0.00,0.00,-0.95,0.49,0.00,-3.34,1.72,-3.25,2.86,0.00,-0.10,0.37,-7.00,1100,1100,1100,1100,1040,1500,1500,10563,795
189471,9,0.56,-0.72,-0.05,0.048,-0.042,0.791,1.04,-0.05,0.00,0.00,-1.04,0.05,0.00,-3.63,0.19,-4.19,0.91,0.00,-0.35,0.09,1.99,1100,1100,1100,1100,1034,1500,1506,10567,795
189483,9,0.21,-0.49,-0.01,-0.004,-0.061,0.953,0.71,-0.14,0.00,0.00,-0.71,0.14,0.00,-2.50,0.49,-2.71,0.98,0.00,-0.14,-0.02,1.67,1100,1100,1100,1100,1034,1500,1506,10567,795
189495,9,0.23,-0.48,-0.95,0.006,-0.054,0.850,0.68,-0.19,0.00,0.00,-0.68,0.19,0.00,-2.38,0.68,-2.60,1.16,0.00,-0.08,-0.02,10.00,1100,1100,1100,1100,1034,1500,1506,10567,795
189507,9,-0.92,2.36,0.67,-0.056,-0.032,0.939,0.73,-1.07,0.00,0.00,-0.73,1.07,0.00,-2.55,3.75,-1.63,1.39,0.00,0.31,-1.06,-9.50,1100,1100,1100,1100,1034,1500,1506,10563,795
189519,9,-0.14,0.23,-0.03,0.089,-0.024,0.807,0.92,-0.45,0.00,0.00,-0.92,0.45,0.00,-3.23,1.57,-3.09,1.34,0.00,-0.04,0.09,0.43,1100,1100,1100,1100,1027,1500,1513,10567,794
189531,9,-0.31,0.17,0.63,-0.002,-0.009,0.942,0.86,-0.47,0.00,0.00,-0.86,0.47,0.00,-3.00,1.63,-2.69,1.46,0.00,0.05,-0.12,-6.28,1100,1100,1100,1100,1034,1500,1506,10563,794
189543,9,1.05,-1.16,-0.56,0.105,0.003,0.821,1.24,-0.11,0.00,0.00,-1.24,0.11,0.00,-4.35,0.38,-5.40,1.53,0.00,-0.58,0.51,7.37,1100,1100,1100,1100,1034,1500,1506,10558,794
189555,9,0.54,-1.47,-0.30,-0.003,-0.034,0.913,1.16,-0.24,0.00,0.00,-1.16,0.24,0.00,-4.07,0.85,-4.60,2.32,0.00,-0.16,0.28,3.09,1100,1100,1100,1100,1035,1500,1505,10554,794
189567,9,-0.30,1.12,0.49,0.024,-0.052,0.820,0.90,-0.71,0.00,0.00,-0.90,0.71,0.00,-3.15,2.47,-2.85,1.35,0.00,0.28,-0.69,-7.46,1100,1100,1100,1100,1035,1500,1505,10550,794
189579,9,-0.18,-1.42,0.52,0.043,0.005,0.905,0.99,-0.73,0.00,0.00,-0.99,0.73,0.00,-3.48,2.57,-3.30,4.00,0.00,0.11,0.60,-4.16,1100,1100,1100,1100,1040,1500,1500,10550,794
189591,9,-0.27,-0.11,0.34,0.033,-0.090,0.868,0.89,-0.29,0.00,0.00,-0.89,0.29,0.00,-3.12,1.02,-2.85,1.13,0.00,0.03,-0.29,-2.81,1100,1100,1100,1100,1035,1500,1505,10554,794
189603,9,-0.31,1.10,-0.30,-0.027,0.026,0.952,1.10,-0.85,0.00,0.00,-1.10,0.85,0.00,-3.86,2.98,-3.55,1.87,0.00,0.08,-0.72,4.81,1100,1100,1100,1100,1035,1500,1505,10554,794
189615,9,2.04,-2.41,0.33,0.043,-0.083,0.832,0.96,-0.34,0.00,0.00,-0.96,0.34,0.00,-3.35,1.18,-5.39,3.59,0.00,-0.97,0.98,-4.73,1100,1100,1100,1100,1033,1500,1507,10558,818
189627,9,-1.57,0.11,0.15,-0.028,0.013,0.929,1.43,-0.71,0.00,0.00,-1.43,0.71,0.00,-5.02,2.48,-3.44,2.37,0.00,0.81,-0.47,-1.27,1100,1100,1100,1100,1033,1500,1507,10567,818
189639,9,1.57,-0.14,0.40,0.037,-0.075,0.890,0.89,-0.91,0.00,0.00,-0.89,0.91,0.00,-3.11,3.17,-4.68,3.31,0.00,-0.78,0.20,-3.92,1100,1100,1100,1100,1037,1500,1503,10571,818
189651,9,-2.19,1.20,0.04,-0.010,-0.080,0.870,0.70,-0.98,0.00,0.00,-0.70,0.98,0.00,-2.46,3.41,-0.27,2.21,0.00,0.78,-0.29,1.22,1100,1100,1100,1100,1035,1500,1505,10575,818
189663,9,0.45,-0.99,0.01,0.068,0.022,0.892,0.95,-0.68,0.00,0.00,-0.95,0.68,0.00,-3.34,2.38,-3.79,3.37,0.00,-0.38,0.70,1.90,1100,1100,1100,1100,1035,1500,1505,10579,818
189675,9,0.69,-0.29,-0.16,0.029,-0.069,0.853,0.74,-0.77,0.00,0.00,-0.74,0.77,0.00,-2.59,2.71,-3.28,3.00,0.00,-0.45,0.17,2.39,1100,1100,1100,1100,1035,1500,1505,10579,818
189687,9,0.84,-1.27,-0.21,0.018,-0.046,0.929,0.60,-0.50,0.00,0.00,-0.60,0.50,0.00,-2.12,1.74,-2.95,3.01,0.00,-0.10,0.35,3.52,1100,1100,1100,1100,1035,1500,1505,10575,818
189699,9,0.56,-0.45,0.53,0.023,-0.061,0.852,0.53,-1.03,0.00,0.00,-0.53,1.03,0.00,-1.84,3.59,-2.40,4.04,0.00,-0.10,-0.08,-7.22,1100,1100,1100,1100,1039,1500,1501,10571,818
189711,9,-0.71,0.22,0.11,0.017,-0.012,0.878,0.62,-1.00,0.00,2.07,-0.62,3.07,0.00,-2.18,10.73,-1.47,10.51,0.00,0.60,-0.08,0.52,1100,1100,1100,1100,1016,1500,1523,10571,823
189723,9,1.38,1.79,0.07,0.060,-0.077,0.861,0.53,-0.84,0.00,2.07,-0.53,2.91,0.00,-1.85,10.19,-3.23,8.39,0.00,-0.56,-0.38,0.68,1100,1100,1100,1100,1016,1500,1523,10563,823
189735,9,-2.23,-1.15,-0.57,0.069,-0.016,0.899,1.12,0.43,0.00,0.00,-1.12,-0.43,0.00,-3.92,-1.52,-1.69,-0.37,0.00,0.93,0.25,7.37,1100,1100,1100,1100,1033,1500,1506,10558,823
189747,9,1.85,-1.38,0.55,0.034,0.015,0.860,1.33,0.44,0.00,0.00,-1.33,-0.44,0.00,-4.64,-1.54,-6.49,-0.16,0.00,-1.09,0.33,-7.21,1100,1100,1100,1100,1033,1500,1506,10558,823
189759,9,-1.21,-0.27,-0.09,-0.058,-0.118,0.892,1.03,-0.14,0.00,0.00,-1.03,0.14,0.00,-3.61,0.49,-2.39,0.76,0.00,0.34,-0.18,1.60,1100,1100,1100,1100,1036,1500,1503,10579,823
189771,9,0.28,0.54,0.66,-0.018,-0.079,0.956,0.26,-1.27,0.00,0.00,-0.26,1.27,0.00,-0.91,4.43,-1.19,3.89,0.00,-0.11,-0.09,-6.29,1100,1100,1100,1100,1034,1500,1505,10567,823
189783,9,-0.62,3.09,-0.15,-0.086,-0.084,0.893,-0.01,-2.24,0.00,0.00,0.01,2.24,0.00,0.02,7.83,0.64,4.74,0.00,0.06,-0.73,2.93,1100,1100,1100,1100,1034,1500,1505,10563,823
189795,9,-0.12,-0.93,-0.22,0.103,0.041,0.889,0.62,-1.64,0.00,0.00,-0.62,1.64,0.00,-2.16,5.72,-2.04,6.66,0.00,0.05,1.13,3.34,1100,1100,1100,1100,1034,1500,1505,10575,823
189807,9,2.27,-0.80,0.30,0.038,-0.096,0.846,0.42,-0.93,0.00,0.00,-0.42,0.93,0.00,-1.48,3.27,-3.74,4.07,0.00,-1.01,0.62,-4.58,1100,1100,1100,1100,1034,1500,1505,10579,823
189819,9,-1.19,-2.61,-0.08,0.139,0.019,0.847,1.35,0.66,0.00,0.00,-1.35,-0.66,0.00,-4.73,-2.31,-3.54,0.30,0.00,0.77,0.49,2.17,1100,1100,1100,1100,1039,1500,1501,10563,833
189831,9,2.52,-2.21,0.06,0.029,-0.025,0.891,1.03,0.57,0.00,0.00,-1.03,-0.57,0.00,-3.62,-1.98,-6.14,0.23,0.00,-1.02,0.17,-0.81,1100,1100,1100,1100,1036,1500,1504,10563,833
189843,9,-1.55,1.90,-0.54,-0.027,-0.023,0.861,1.47,0.25,0.00,0.00,-1.47,-0.25,0.00,-5.16,-0.89,-3.61,-2.79,0.00,0.70,-1.62,6.19,1100,1100,1100,1100,1036,1500,1504,10563,833
189855,9,0.95,-0.86,0.19,-0.003,-0.022,0.933,0.95,-0.52,0.00,0.00,-0.95,0.52,0.00,-3.33,1.82,-4.28,2.69,0.00,-0.41,0.28,-3.11,1100,1100,1100,1100,1036,1500,1504,10558,833
189867,9,-1.43,3.02,0.74,-0.032,-0.076,0.909,1.08,-1.07,0.00,0.00,-1.08,1.07,0.00,-3.78,3.75,-2.35,0.72,0.00,0.29,-0.89,-8.81,1100,1100,1100,1100,1036,1500,1504,10563,833
189879,9,-0.86,1.69,0.40,0.019,-0.009,0.862,0.95,-1.24,0.00,0.00,-0.95,1.24,0.00,-3.32,4.35,-2.46,2.67,0.00,0.20,-0.08,-3.43,1100,1100,1100,1100,1038,1500,1502,10563,833
189891,9,0.88,1.37,-0.35,-0.013,-0.123,0.905,0.60,-1.21,0.00,0.00,-0.60,1.21,0.00,-2.11,4.22,-2.99,2.85,0.00,-0.82,0.22,6.30,1100,1100,1100,1100,1035,1500,1504,10571,833
189903,9,-0.98,-1.14,0.32,0.037,0.013,0.857,1.00,-0.72,0.00,0.00,-1.00,0.72,0.00,-3.52,2.52,-2.54,3.66,0.00,0.33,0.76,-3.31,1100,1100,1100,1100,1035,1500,1504,10571,833
189915,9,2.81,-2.34,-0.24,0.021,-0.084,0.934,0.44,-0.70,0.00,0.00,-0.44,0.70,0.00,-1.54,2.46,-4.35,4.80,0.00,-1.22,1.07,4.55,1100,1100,1100,1100,1026,1500,1514,10579,818
189927,9,-2.05,1.90,0.48,0.029,-0.046,0.825,0.66,-0.68,0.00,0.00,-0.66,0.68,0.00,-2.31,2.37,-0.26,0.47,0.00,0.96,-0.94,-5.58,1100,1100,1100,1100,1026,1500,1514,10571,818
189939,9,1.51,-1.14,-0.57,0.048,0.021,0.898,0.72,-0.79,0.00,0.00,-0.72,0.79,0.00,-2.50,2.76,-4.01,3.89,0.00,-0.47,0.45,6.99,1100,1100,1100,1100,1039,1500,1500,10575,818
189951,9,1.34,2.39,0.31,-0.038,-0.047,0.937,0.86,-1.41,0.00,0.00,-0.86,1.41,0.00,-3.02,4.95,-4.36,2.56,0.00,-0.69,-0.74,-3.97,1100,1100,1100,1100,1035,1500,1504,10575,818
189963,9,-1.08,0.28,-0.00,0.060,-0.045,0.874,0.98,-0.81,0.00,0.00,-0.98,0.81,0.00,-3.42,2.83,-2.34,2.54,0.00,0.63,0.28,-0.90,1100,1100,1100,1100,1035,1500,1504,10575,818
189975,9,1.03,-1.83,0.38,0.140,-0.009,0.862,1.32,0.39,0.00,0.00,-1.32,-0.39,0.00,-4.61,-1.37,-5.64,0.46,0.00,-0.60,0.98,-3.46,1100,1100,1100,1100,1036,1500,1504,10571,818
189987,9,0.31,-2.93,0.52,0.055,-0.030,0.802,1.40,1.26,0.00,0.00,-1.40,-1.26,0.00,-4.89,-4.42,-5.20,-1.49,0.00,-0.24,0.60,-5.79,1100,1100,1100,1100,1036,1500,1504,10571,818
189999,9,0.46,-2.53,-0.91,0.055,-0.053,0.900,1.08,1.36,0.00,0.00,-1.08,-1.36,0.00,-3.78,-4.76,-4.24,-2.23,0.00,-0.28,0.43,13.22,1100,1100,1100,1100,1038,1500,1502,10567,818
190011,9,-1.22,-0.28,0.25,-0.012,-0.097,0.831,0.56,0.78,0.00,0.00,-0.56,-0.78,0.00,-1.97,-2.73,-0.75,-2.45,0.00,0.49,-0.67,-5.34,1100,1100,1100,1100,1038,1500,1502,10563,944
190023,9,0.20,-0.08,-0.19,-0.022,-0.033,0.962,0.73,-0.10,0.00,0.00,-0.73,0.10,0.00,-2.55,0.35,-2.75,0.43,0.00,-0.20,-0.41,0.90,1100,1100,1100,1100,1038,1500,1502,10571,944
190035,9,1.58,-0.19,0.81,-0.034,-0.046,0.902,0.57,-1.00,0.00,0.00,-0.57,1.00,0.00,-1.99,3.48,-3.57,3.67,0.00,-0.76,0.03,-9.79,1100,1100,1100,1100,1036,1500,1504,10567,944
190047,9,0.25,1.91,-0.56,-0.058,-0.089,0.884,0.44,-1.90,0.00,0.00,-0.44,1.90,0.00,-1.54,6.64,-1.79,4.73,0.00,-0.01,-0.55,8.43,1100,1100,1100,1100,1036,1500,1504,10563,944
190059,9,0.70,1.18,0.34,-0.045,0.002,0.987,0.54,-2.81,0.00,0.00,-0.54,2.81,0.00,-1.89,9.84,-2.60,8.66,0.00,-0.24,0.23,-2.40,1100,1100,1100,1100,1037,1500,1503,10567,944
190071,9,0.15,2.72,0.37,-0.025,-0.072,0.864,0.53,-2.96,0.00,0.00,-0.53,2.96,0.00,-1.85,10.35,-2.00,7.63,0.00,-0.14,-0.06,-4.69,1100,1100,1100,1100,1035,1500,1505,10563,944
190083,9,-2.22,2.72,-0.06,0.056,-0.011,0.877,0.67,-2.44,0.00,0.00,-0.67,2.44,0.00,-2.36,8.53,-0.14,5.81,0.00,0.91,-0.06,2.30,1100,1100,1100,1100,1035,1500,1505,10567,944
190095,9,0.70,-0.53,0.16,0.047,-0.049,0.876,0.49,-1.75,0.00,0.00,-0.49,1.75,0.00,-1.73,6.12,-2.43,6.65,0.00,-0.54,1.29,-1.09,1100,1100,1100,1100,1025,1500,1515,10563,944
190107,9,-0.73,-0.24,-0.27,0.039,-0.075,0.875,0.82,-1.01,0.00,0.00,-0.82,1.01,0.00,-2.87,3.53,-2.14,3.77,0.00,0.14,0.42,4.63,1100,1100,1100,1100,1025,1500,1515,10563,944
190119,9,1.19,-2.69,0.15,0.011,-0.050,0.897,0.62,-1.18,0.00,0.00,-0.62,1.18,0.00,-2.17,4.13,-3.36,6.82,0.00,-0.42,1.20,-1.31,1100,1100,1100,1100,1039,1500,1501,10558,976
190131,9,-0.06,0.49,-0.25,-0.019,-0.010,0.874,1.02,-1.31,0.00,0.00,-1.02,1.31,0.00,-3.56,4.58,-3.50,4.09,0.00,0.06,-0.52,3.39,1100,1100,1100,1100,1022,1500,1518,10558,976
190143,9,-0.39,-1.28,-0.07,0.025,-0.024,0.885,0.86,-1.49,0.00,0.00,-0.86,1.49,0.00,-3.00,5.21,-2.61,6.50,0.00,0.40,0.46,1.82,1100,1100,1100,1100,1022,1500,1518,10563,976
190155,9,0.85,0.63,0.61,0.059,-0.099,0.849,0.79,-1.24,0.00,0.00,-0.79,1.24,0.00,-2.75,4.33,-3.60,3.70,0.00,-0.50,-0.18,-7.30,1100,1100,1100,1100,1037,1500,1503,10563,976
190167,9,-1.64,1.49,0.05,0.043,0.027,0.923,1.36,-0.47,0.00,0.00,-1.36,0.47,0.00,-4.77,1.63,-3.13,0.15,0.00,0.52,-0.84,-0.37,1100,1100,1100,1100,1037,1500,1503,10563,976
190179,9,2.99,-2.94,-0.23,0.071,0.000,0.862,1.42,0.13,0.00,0.00,-1.42,-0.13,0.00,-4.97,-0.45,-7.96,2.50,0.00,-1.63,1.28,3.07,1100,1100,1100,1100,1038,1500,1502,10563,976
190191,9,-0.51,-0.45,-0.31,-0.051,-0.035,0.910,1.60,-0.27,0.00,0.00,-1.60,0.27,0.00,-5.59,0.93,-5.08,1.38,0.00,-0.08,-0.06,2.61,1100,1100,1100,1100,1037,1500,1503,10571,976
190203,9,0.66,-2.25,0.12,0.031,-0.050,0.926,0.98,-0.55,0.00,0.00,-0.98,0.55,0.00,-3.43,1.94,-4.09,4.19,0.00,-0.28,0.88,-1.62,1100,1100,1100,1100,1037,1500,1503,10575,976
190215,9,-0.37,2.73,0.86,-0.059,-0.107,0.877,0.17,-2.04,0.00,0.00,-0.17,2.04,0.00,-0.61,7.15,-0.24,4.41,0.00,-0.16,-0.72,-10.17,1100,1100,1100,1100,1037,1500,1503,10579,795
190227,9,-2.66,1.86,-0.29,0.004,0.017,0.918,0.58,-1.97,0.00,0.00,-0.58,1.97,0.00,-2.01,6.88,0.64,5.02,0.00,1.03,-0.23,4.36,1100,1100,1100,1100,1037,1500,1503,10579,795
190239,9,2.89,0.93,0.25,-0.010,-0.006,0.947,0.51,-2.58,0.00,0.00,-0.51,2.58,0.00,-1.79,9.01,-4.67,8.08,0.00,-1.62,0.48,-2.78,1100,1100,1100,1100,1039,1500,1501,10575,795
190251,9,-0.03,0.36,0.26,-0.046,-0.061,0.900,0.68,-2.50,0.00,0.00,-0.68,2.50,0.00,-2.39,8.74,-2.37,8.38,0.00,0.03,0.47,-2.05,1100,1100,1100,1100,1037,1500,1503,10579,795
190263,9,2.38,-2.41,0.68,0.056,-0.039,0.929,0.32,-2.39,0.00,0.00,-0.32,2.39,0.00,-1.13,8.36,-3.51,10.78,0.00,-0.65,1.62,-5.38,1100,1100,1100,1100,1037,1500,1503,10567,795
190275,9,-0.14,2.28,0.14,-0.026,-0.085,0.844,0.32,-2.42,0.00,0.00,-0.32,2.42,0.00,-1.11,8.45,-0.97,6.17,0.00,0.37,-0.66,0.73,1100,1100,1100,1100,1037,1500,1503,10567,795
190287,9,-0.39,0.73,-0.34,0.080,0.015,0.864,0.71,-1.79,0.00,0.00,-0.71,1.79,0.00,-2.48,6.25,-2.10,5.52,0.00,0.47,0.04,5.68,1100,1100,1100,1100,1037,1500,1503,10575,795
190299,9,0.85,2.41,0.14,-0.020,-0.095,0.912,0.41,-1.58,0.00,0.00,-0.41,1.58,0.00,-1.43,5.53,-2.28,3.11,0.00,-0.54,-0.43,-1.92,1100,1100,1100,1100,1038,1500,1502,10567,795
190311,9,-1.90,1.49,0.06,0.065,-0.006,0.888,1.21,-0.49,0.00,0.00,-1.21,0.49,0.00,-4.24,1.72,-2.34,0.23,0.00,0.64,-0.29,-0.05,1100,1100,1100,1100,1037,1500,1503,10567,795
190323,9,2.36,-1.16,0.64,0.020,0.006,0.961,1.08,-0.76,0.00,0.00,-1.08,0.76,0.00,-3.78,2.66,-6.14,3.82,0.00,-1.30,1.06,-6.64,1100,1100,1100,1100,1037,1500,1503,10567,795
190335,9,-0.76,0.33,0.10,0.006,-0.116,0.808,0.98,-0.47,0.00,0.00,-0.98,0.47,0.00,-3.42,1.65,-2.65,1.33,0.00,0.27,-0.00,0.09,1100,1100,1100,1100,1034,1500,1506,10563,795
190347,9,0.30,-2.14,-0.29,0.103,-0.004,0.856,0.74,-0.23,0.00,0.00,-0.74,0.23,0.00,-2.60,0.82,-2.91,2.96,0.00,0.10,0.68,4.40,1100,1100,1100,1100,1034,1500,1506,10558,795
190359,9,1.14,-0.03,0.27,-0.013,-0.084,0.897,0.42,-0.07,0.00,0.00,-0.42,0.07,0.00,-1.49,0.23,-2.62,0.27,0.00,-0.67,-0.34,-3.15,1100,1100,1100,1100,1039,1500,1501,10567,795
190371,9,-1.44,1.52,0.45,0.019,-0.034,0.881,0.83,-0.21,0.00,0.00,-0.83,0.21,0.00,-2.91,0.72,-1.47,-0.79,0.00,0.57,-0.81,-4.97,1100,1100,1100,1100,1037,1500,1503,10579,795
190383,9,1.70,-0.32,-0.27,0.034,-0.051,1.007,0.90,-0.07,0.00,0.00,-0.90,0.07,0.00,-3.16,0.24,-4.86,0.55,0.00,-0.89,0.31,4.61,1100,1100,1100,1100,1037,1500,1503,10583,795
190395,9,-0.88,-0.37,0.07,0.059,0.024,0.820,1.60,0.49,0.00,0.00,-1.60,-0.49,0.00,-5.61,-1.72,-4.72,-1.35,0.00,0.28,0.07,-0.26,1100,1100,1100,1100,1037,1500,1503,10583,795
190407,9,1.72,-2.82,-0.57,0.060,-0.031,0.856,1.15,0.31,0.00,0.00,-1.15,-0.31,0.00,-4.04,-1.09,-5.76,1.73,0.00,-0.73,1.18,7.58,1100,1100,1100,1100,1037,1500,1503,10571,795
190419,9,-0.21,-0.76,0.01,0.090,-0.127,0.802,0.88,0.97,0.00,0.00,-0.88,-0.97,0.00,-3.07,-3.38,-2.86,-2.62,0.00,0.08,-0.13,-0.55,1100,1100,1100,1100,1039,1500,1501,10563,794
190431,9,-1.78,-2.03,-0.36,0.067,-0.045,0.894,0.85,1.56,0.00,0.00,-0.85,-1.56,0.00,-2.97,-5.46,-1.19,-3.43,0.00,0.80,-0.08,47.45,1100,1100,1100,1100,1040,1500,1500,10554,794
190443,9,0.44,0.31,0.37,0.008,-0.011,0.933,1.10,1.29,0.00,0.00,-1.10,-1.29,0.00,-3.84,-4.52,-4.28,-4.82,0.00,-0.54,-0.89,40.59,1100,1100,1100,1100,1040,1500,1500,10546,794
190455,9,0.24,-0.49,0.55,-0.038,-0.034,0.855,1.34,0.59,0.00,0.00,-1.34,-0.59,0.00,-4.70,-2.06,-4.94,-1.57,0.00,-0.43,-0.32,37.97,1100,1100,1100,1100,1038,1500,1502,10558,794
190467,9,1.42,-3.20,-0.84,0.066,-0.050,0.903,1.30,0.62,0.00,0.00,-1.30,-0.62,0.00,-4.56,-2.16,-5.98,1.04,0.00,-0.67,1.05,57.55,1100,1100,1100,1100,1038,1500,1502,10563,794
190479,9,-0.00,0.24,0.58,-0.017,-0.058,0.896,1.05,-0.17,0.00,0.00,-1.05,0.17,0.00,-3.68,0.59,-3.68,0.35,0.00,0.00,-0.54,60.60,1100,1100,1100,1100,1040,1500,1500,10563,794
190491,9,-0.70,0.78,-0.37,-0.046,-0.060,0.923,1.05,-0.81,0.00,0.00,-1.05,0.81,0.00,-3.67,2.84,-2.97,2.06,0.00,0.24,-0.54,54.20,1100,1100,1100,1100,1037,1500,1503,10563,794
190503,9,0.67,0.35,0.68,0.033,-0.006,0.858,0.89,-1.02,0.00,0.00,-0.89,1.02,0.00,-3.13,3.55,-3.80,3.20,0.00,-0.44,0.14,41.97,1100,1100,1100,1100,1037,1500,1503,10554,794
190515,9,-0.01,2.05,-0.17,-0.037,-0.072,0.953,0.79,-1.31,0.00,0.00,-0.79,1.31,0.00,-2.75,4.59,-2.74,2.55,0.00,-0.08,-0.56,52.72,1100,1100,1100,1100,1037,1500,1503,10554,795
190527,9,0.35,-0.35,-0.02,0.006,-0.011,0.950,1.09,-1.33,0.00,0.00,-1.09,1.33,0.00,-3.80,4.65,-4.15,5.00,0.00,-0.26,0.66,52.61,1100,1100,1100,1100,1037,1500,1503,10558,795
190539,9,0.23,-0.15,0.13,-0.011,-0.093,0.822,0.77,-1.65,0.00,2.88,-0.77,4.53,0.00,-2.69,15.87,-2.92,16.02,0.00,-0.23,1.16,-2.30,1100,1100,1100,1100,1008,1500,1532,10563,795
190551,9,-1.24,0.04,-0.43,0.092,-0.031,0.928,1.03,-0.82,0.00,0.00,-1.03,0.82,0.00,-3.61,2.88,-2.37,2.84,0.00,0.62,-0.02,5.19,1100,1100,1100,1100,1027,1500,1513,10567,795
190563,9,0.69,-1.07,0.73,0.044,-0.068,0.861,0.56,-0.74,0.00,0.00,-0.56,0.74,0.00,-1.97,2.58,-2.65,3.65,0.00,-0.34,0.56,-8.90,1100,1100,1100,1100,1027,1500,1513,10567,795
190575,9,-0.65,2.52,-0.40,-0.034,-0.030,0.847,1.20,-0.90,0.00,2.34,-1.20,3.24,0.00,-4.19,11.34,-3.54,8.83,0.00,-0.07,-0.56,6.54,1100,1100,1100,1100,1014,1500,1526,10563,795
190587,9,0.94,-1.24,-0.05,0.015,0.010,0.933,1.04,-1.17,0.00,2.34,-1.04,3.51,0.00,-3.64,12.29,-4.58,13.53,0.00,-0.55,1.24,1.17,1100,1100,1100,1100,1014,1500,1526,10558,795
190599,9,0.90,-0.31,-0.22,0.001,-0.131,0.908,0.51,-1.42,0.00,2.97,-0.51,4.39,0.00,-1.77,15.36,-2.67,15.67,0.00,-0.56,1.01,1.42,1100,1100,1100,1100,1007,1500,1533,10558,795
190611,9,-1.97,2.31,0.33,-0.009,0.028,0.917,0.98,-1.72,0.00,0.00,-0.98,1.72,0.00,-3.43,6.01,-1.46,3.70,0.00,0.97,-0.76,-3.94,1100,1100,1100,1100,1037,1500,1503,10563,806
190623,9,3.93,-0.13,0.18,-0.017,-0.090,0.867,0.43,-2.25,0.00,0.00,-0.43,2.25,0.00,-1.50,7.89,-5.44,8.02,0.00,-1.68,0.81,-1.13,1100,1100,1100,1100,1037,1500,1503,10563,806
190635,9,-1.12,2.27,0.15,-0.029,-0.069,0.894,0.44,-2.06,0.00,2.34,-0.44,4.40,0.00,-1.54,15.39,-0.42,13.11,0.00,0.69,-0.19,-0.17,1100,1100,1100,1100,1014,1500,1526,10563,806
190647,9,0.47,-1.58,0.19,0.017,-0.020,0.968,0.14,-2.10,0.00,2.34,-0.14,4.44,0.00,-0.48,15.55,-0.95,17.13,0.00,0.00,1.73,-1.97,1100,1100,1100,1100,1014,1500,1526,10571,806
190659,9,-0.19,2.28,0.21,0.012,-0.023,0.870,0.91,-1.83,0.00,0.00,-0.91,1.83,0.00,-3.17,6.40,-2.98,4.12,0.00,-0.19,-0.43,-1.95,1100,1100,1100,1100,1039,1500,1501,10563,806
190671,9,-0.83,-0.88,0.20,0.115,0.013,0.860,1.31,-0.76,0.00,0.00,-1.31,0.76,0.00,-4.59,2.65,-3.76,3.54,0.00,0.47,0.76,-1.18,1100,1100,1100,1100,1038,1500,1502,10558,806
190683,9,1.96,1.19,0.43,0.036,-0.076,0.874,0.95,-0.69,0.00,0.00,-0.95,0.69,0.00,-3.31,2.41,-5.27,1.22,0.00,-1.06,-0.03,-3.36,1100,1100,1100,1100,1038,1500,1502,10563,806
190695,9,-3.11,1.67,0.06,0.021,-0.045,0.854,1.09,-0.38,0.00,0.00,-1.09,0.38,0.00,-3.81,1.31,-0.70,-0.36,0.00,1.16,-0.55,1.10,1100,1100,1100,1100,1039,1500,1501,10558,806
190707,9,0.12,-0.40,-0.25,0.081,-0.043,0.915,0.81,0.26,0.00,0.00,-0.81,-0.26,0.00,-2.83,-0.91,-2.94,-0.51,0.00,-0.37,0.51,4.09,1100,1100,1100,1100,1039,1500,1501,10563,806
190719,9,-2.26,2.42,0.21,0.001,-0.049,0.842,0.90,0.39,0.00,2.88,-0.90,2.49,0.00,-3.15,8.70,-0.89,6.28,0.00,0.51,-0.55,-3.45,1100,1100,1100,1100,1008,1500,1532,10563,795
190731,9,-0.33,-2.61,-0.10,0.095,0.017,0.897,0.83,0.60,0.00,0.00,-0.83,-0.60,0.00,-2.89,-2.09,-2.56,0.52,0.00,-0.19,1.33,2.60,1100,1100,1100,1100,1041,1500,1499,10563,795
190743,9,1.20,0.65,0.45,-0.028,-0.091,0.869,0.59,-0.21,0.00,0.00,-0.59,0.21,0.00,-2.08,0.73,-3.27,0.08,0.00,-0.97,-0.23,-3.72,1100,1100,1100,1100,1041,1500,1499,10571,795
190755,9,-1.27,-0.05,0.01,0.015,-0.058,0.867,0.79,-0.22,0.00,0.00,-0.79,0.22,0.00,-2.75,0.77,-1.48,0.82,0.00,0.58,-0.24,1.35,1100,1100,1100,1100,1039,1500,1501,10567,795
190767,9,2.93,-0.64,0.33,0.005,-0.023,0.955,0.60,-0.88,0.00,0.00,-0.60,0.88,0.00,-2.11,3.10,-5.04,3.74,0.00,-1.31,0.37,-3.26,1100,1100,1100,1100,1039,1500,1501,10563,795
190779,9,-0.10,1.17,0.46,-0.043,-0.040,0.884,0.91,-0.94,0.00,2.34,-0.91,3.28,0.00,-3.18,11.46,-3.08,10.30,0.00,0.11,-0.18,-5.36,1100,1100,1100,1100,1014,1500,1526,10558,795
190791,9,1.40,-1.86,-0.11,0.103,0.008,0.894,1.17,-0.58,0.00,0.00,-1.17,0.58,0.00,-4.10,2.04,-5.50,3.90,0.00,-0.29,0.84,3.35,1100,1100,1100,1100,1038,1500,1502,10567,795
190803,9,1.48,-0.79,0.20,0.032,-0.096,0.847,0.71,-0.44,0.00,0.00,-0.71,0.44,0.00,-2.49,1.56,-3.97,2.35,0.00,-0.43,0.29,-1.01,1100,1100,1100,1100,1038,1500,1502,10567,795
190815,9,-1.34,-0.96,-0.12,0.111,0.004,0.815,1.31,0.51,0.00,0.00,-1.31,-0.51,0.00,-4.59,-1.78,-3.24,-0.82,0.00,0.96,-0.18,2.54,1100,1100,1100,1100,1039,1500,1501,10563,794
190827,9,1.34,-0.18,0.04,0.027,-0.035,0.922,1.09,0.21,0.00,0.00,-1.09,-0.21,0.00,-3.81,-0.72,-5.14,-0.54,0.00,-0.60,-0.32,-0.64,1100,1100,1100,1100,1039,1500,1501,10567,794
190839,9,-2.98,2.88,-0.01,0.017,-0.022,0.847,1.41,0.39,0.00,0.00,-1.41,-0.39,0.00,-4.93,-1.38,-1.95,-4.26,0.00,1.12,-1.49,-0.21,1100,1100,1100,1100,1040,1500,1500,10558,794
190851,9,0.04,-0.89,-0.10,0.107,0.095,0.928,1.57,0.26,0.00,0.00,-1.57,-0.26,0.00,-5.49,-0.92,-5.53,-0.03,0.00,-0.40,0.77,2.06,1100,1100,1100,1100,1039,1500,1501,10558,794
190863,9,-0.41,0.79,0.11,0.016,-0.147,0.835,0.98,0.26,0.00,0.00,-0.98,-0.26,0.00,-3.42,-0.92,-3.00,-1.70,0.00,-0.39,0.00,-0.41,1100,1100,1100,1100,1039,1500,1501,10563,794
190875,9,-2.78,0.90,-0.22,0.071,-0.083,0.836,0.86,0.87,0.00,0.00,-0.86,-0.87,0.00,-3.00,-3.03,-0.22,-3.93,0.00,0.92,-0.55,3.53,1100,1100,1100,1100,1038,1500,1502,10563,794
190887,9,0.65,-0.95,-0.02,0.039,-0.013,0.909,0.78,1.20,0.00,0.00,-0.78,-1.20,0.00,-2.71,-4.21,-3.36,-3.26,0.00,-0.74,0.21,0.55,1100,1100,1100,1100,1038,1500,1502,10563,794
190899,9,0.24,-3.22,0.22,0.035,-0.004,0.808,1.13,1.29,0.00,2.97,-1.13,1.68,0.00,-3.95,5.86,-4.18,9.08,0.00,-0.49,1.22,-4.43,1100,1100,1100,1100,1007,1500,1533,10571,794
190911,9,1.25,-3.71,-0.61,0.006,-0.088,0.954,0.87,1.06,0.00,0.00,-0.87,-1.06,0.00,-3.03,-3.70,-4.28,0.02,0.00,-0.60,0.72,7.28,1100,1100,1100,1100,1038,1500,1502,10563,794
190923,9,1.85,-2.30,0.50,0.032,-0.074,0.834,0.76,0.57,0.00,0.00,-0.76,-0.57,0.00,-2.68,-1.99,-4.53,0.31,0.00,-0.65,0.01,-6.12,1100,1100,1100,1100,1038,1500,1502,10558,794
190935,9,1.11,-1.53,0.13,-0.031,-0.066,0.923,0.32,-0.32,0.00,0.00,-0.32,0.32,0.00,-1.13,1.11,-2.24,2.64,0.00,-0.02,-0.21,-1.15,1100,1100,1100,1100,1036,1500,1504,10546,794
190947,9,-0.12,2.38,0.00,-0.017,-0.048,0.959,0.58,-1.09,0.00,0.00,-0.58,1.09,0.00,-2.02,3.81,-1.91,1.43,0.00,0.37,-1.25,1.59,1100,1100,1100,1100,1036,1500,1504,10546,794
190959,9,-0.52,2.06,-0.23,0.001,0.017,0.785,1.13,-1.36,0.00,2.79,-1.13,4.15,0.00,-3.96,14.51,-3.45,12.45,0.00,0.19,-0.29,2.08,1100,1100,1100,1100,1009,1500,1531,10546,794
190971,9,1.01,-1.96,-0.26,0.054,-0.026,0.961,1.30,-0.46,0.00,0.00,-1.30,0.46,0.00,-4.53,1.62,-5.55,3.58,0.00,-0.55,1.02,3.26,1100,1100,1100,1100,1039,1500,1501,10550,794
190983,9,-0.41,-0.01,0.83,0.025,-0.079,0.901,0.97,-0.55,0.00,0.00,-0.97,0.55,0.00,-3.41,1.91,-3.00,1.92,0.00,0.05,0.10,-11.36,1100,1100,1100,1100,1039,1500,1501,10554,794
190995,9,-2.62,0.96,-0.45,0.030,-0.040,0.869,0.88,-0.36,0.00,0.00,-0.88,0.36,0.00,-3.09,1.24,-0.47,0.29,0.00,1.09,-0.55,7.05,1100,1100,1100,1100,1040,1500,1500,10554,794
191007,9,0.73,0.04,0.31,0.024,-0.022,0.857,0.44,-1.01,0.00,0.00,-0.44,1.01,0.00,-1.55,3.53,-2.28,3.49,0.00,-0.55,0.24,-2.63,1100,1100,1100,1100,1040,1500,1500,10554,794
191019,9,-1.17,0.51,-0.51,-0.019,-0.070,0.857,0.39,-0.96,0.00,2.88,-0.39,3.84,0.00,-1.36,13.43,-0.19,12.92,0.00,0.17,0.37,5.32,1100,1100,1100,1100,1008,1500,1532,10550,795
191031,9,0.23,-1.20,0.34,0.056,-0.018,0.935,0.50,-0.81,0.00,0.00,-0.50,0.81,0.00,-1.76,2.82,-1.99,4.01,0.00,-0.32,0.71,-4.23,1100,1100,1100,1100,1040,1500,1500,10550,795
191043,9,1.69,-0.34,0.76,-0.043,-0.092,0.923,0.28,-1.27,0.00,0.00,-0.28,1.27,0.00,-0.99,4.45,-2.69,4.79,0.00,-1.05,0.40,-9.37,1100,1100,1100,1100,1040,1500,1500,10558,795
191055,9,-1.05,0.14,-0.16,0.034,-0.004,0.865,0.58,-1.28,0.00,2.07,-0.58,3.35,0.00,-2.05,11.71,-0.99,11.57,0.00,0.60,0.36,5.00,1100,1100,1100,1100,1017,1500,1523,10563,795
191067,9,3.20,-1.89,-0.02,-0.017,-0.074,0.870,-0.10,-2.07,0.00,2.07,0.10,4.14,0.00,0.36,14.48,-2.84,16.37,0.00,-1.20,1.41,1.29,1100,1100,1100,1100,1017,1500,1523,10563,795
191079,9,0.25,0.01,-0.33,-0.020,-0.083,0.886,0.34,-1.71,0.00,2.79,-0.34,4.50,0.00,-1.20,15.76,-1.45,15.75,0.00,0.20,0.27,4.40,1100,1100,1100,1100,1009,1500,1531,10558,795
191091,9,2.05,0.30,0.75,-0.032,-0.059,0.988,0.09,-2.24,0.00,0.00,-0.09,2.24,0.00,-0.32,7.83,-2.37,7.53,0.00,-0.45,0.01,-9.48,1100,1100,1100,1100,1021,1500,1519,10563,795
191103,9,0.08,3.23,-0.07,-0.113,-0.121,0.925,0.23,-2.66,0.00,0.00,-0.23,2.66,0.00,-0.79,9.33,-0.87,6.10,0.00,0.04,-0.90,1.61,1100,1100,1100,1100,1021,1500,1519,10563,795
191115,9,-1.75,0.72,0.23,0.020,0.076,0.918,0.95,-2.81,0.00,0.00,-0.95,2.81,0.00,-3.33,9.83,-1.58,9.11,0.00,1.07,0.52,-1.36,1100,1100,1100,1100,1040,1500,1500,10563,795
191127,9,2.18,0.35,0.24,-0.009,-0.110,0.939,0.28,-2.75,0.00,0.00,-0.28,2.75,0.00,-0.97,9.63,-3.15,9.28,0.00,-0.94,0.95,-1.98,1100,1100,1100,1100,1040,1500,1500,10563,795
191139,9,-2.19,2.66,0.26,0.032,-0.060,0.777,0.61,-2.22,0.00,2.88,-0.61,5.10,0.00,-2.12,17.85,0.08,15.19,0.00,0.98,-0.00,-1.70,1100,1100,1100,1100,1008,1500,1532,10558,795
191151,9,1.31,0.70,0.36,-0.024,-0.076,0.994,0.12,-2.69,0.00,2.07,-0.12,4.76,0.00,-0.42,16.64,-1.72,15.94,0.00,-0.63,1.07,-3.03,1100,1100,1100,1100,1017,1500,1523,10563,795
191163,9,-0.60,5.16,0.34,-0.058,-0.057,0.948,0.40,-2.74,0.00,2.07,-0.40,4.81,0.00,-1.41,16.83,-0.81,11.67,0.00,0.05,-1.01,-2.42,1100,1100,1100,1100,1017,1500,1523,10558,795
191175,9,-0.82,-0.53,-0.37,0.048,0.028,0.859,0.32,-2.04,0.00,0.00,-0.32,2.04,0.00,-1.11,7.14,-0.29,7.67,0.00,0.44,1.12,5.49,1100,1100,1100,1100,1040,1500,1500,10563,795
191187,9,1.26,-1.48,0.17,0.024,-0.032,0.892,0.51,-2.06,0.00,0.00,-0.51,2.06,0.00,-1.78,7.22,-3.04,8.70,0.00,-0.75,1.47,-0.55,1100,1100,1100,1100,1040,1500,1500,10563,795
191199,9,-0.90,1.42,0.67,-0.013,-0.021,0.854,0.99,-2.37,0.00,0.00,-0.99,2.37,0.00,-3.48,8.28,-2.58,6.86,0.00,0.51,-0.26,-7.34,1100,1100,1100,1100,1040,1500,1500,10554,795
191211,9,2.53,1.42,-0.29,-0.047,-0.106,0.994,0.62,-2.99,0.00,0.00,-0.62,2.99,0.00,-2.17,10.45,-4.71,9.04,0.00,-1.09,0.13,5.94,1100,1100,1100,1100,1040,1500,1500,10550,795
191223,9,-1.29,2.02,0.04,-0.058,-0.033,0.849,0.73,-3.19,0.00,0.00,-0.73,3.19,0.00,-2.57,11.17,-1.28,9.15,0.00,0.51,-0.08,-0.29,1100,1100,1100,1100,1040,1500,1500,10546,795
191235,9,-0.17,-0.12,-0.75,0.019,0.041,0.961,0.95,-3.01,0.00,0.00,-0.95,3.01,0.00,-3.34,10.54,-3.17,10.67,0.00,0.11,1.00,9.04,1100,1100,1100,1100,1039,1500,1501,10558,795
191247,9,0.84,2.17,1.31,-0.026,-0.062,0.924,0.92,-3.12,0.00,0.00,-0.92,3.12,0.00,-3.23,10.92,-4.06,8.75,0.00,-0.61,0.07,-15.39,1100,1100,1100,1100,1039,1500,1501,10563,795
191259,9,-0.59,2.14,0.50,-0.015,-0.097,0.822,0.79,-2.78,0.00,0.00,-0.79,2.78,0.00,-2.75,9.71,-2.15,7.57,0.00,0.12,0.14,-3.98,1100,1100,1100,1100,1021,1500,1519,10550,795
191271,9,1.06,1.75,-0.11,0.010,-0.034,0.992,0.72,-2.63,0.00,0.00,-0.72,2.63,0.00,-2.51,9.21,-3.58,7.46,0.00,-0.61,0.33,4.57,1100,1100,1100,1100,1040,1500,1500,10567,795
191283,9,-0.09,0.52,0.15,-0.037,0.004,0.908,0.83,-2.32,0.00,0.00,-0.83,2.32,0.00,-2.90,8.12,-2.82,7.60,0.00,-0.09,0.55,-2.97,1100,1100,1100,1100,1040,1500,1500,10567,795
191295,9,-0.11,-0.04,-0.59,0.047,0.013,0.893,1.17,-1.86,0.00,0.00,-1.17,1.86,0.00,-4.11,6.51,-4.00,6.55,0.00,-0.08,0.79,7.29,1100,1100,1100,1100,1040,1500,1500,10567,795
191307,9,0.62,-0.30,0.88,0.060,-0.065,0.808,0.70,-1.56,0.00,0.00,-0.70,1.56,0.00,-2.44,5.46,-3.06,5.77,0.00,-0.28,0.84,-10.50,1100,1100,1100,1100,1040,1500,1500,10567,795
191319,9,-0.37,-0.57,-0.18,0.099,-0.096,0.879,0.74,-0.77,0.00,2.70,-0.74,3.47,0.00,-2.60,12.15,-2.23,12.73,0.00,0.25,0.85,4.56,1100,1100,1100,1100,1010,1500,1530,10558,795
191331,9,0.02,0.75,0.39,0.060,-0.012,0.924,0.80,-0.56,0.00,2.43,-0.80,2.99,0.00,-2.79,10.47,-2.81,9.72,0.00,-0.01,0.09,-2.76,1100,1100,1100,1100,1013,1500,1527,10554,795
191343,9,0.49,0.86,-0.55,0.003,-0.069,0.797,0.88,-0.09,0.00,2.43,-0.88,2.52,0.00,-3.09,8.80,-3.59,7.94,0.00,-0.36,-0.05,6.22,1100,1100,1100,1100,1013,1500,1527,10554,795
191355,9,-0.43,-1.74,-0.06,0.071,0.023,0.898,0.95,-0.14,0.00,0.00,-0.95,0.14,0.00,-3.32,0.48,-2.88,2.22,0.00,0.33,0.69,0.76,1100,1100,1100,1100,1040,1500,1500,10558,795
191367,9,1.28,-0.41,0.93,-0.005,-0.083,0.919,0.35,-0.33,0.00,0.00,-0.35,0.33,0.00,-1.23,1.16,-2.51,1.57,0.00,-0.67,0.26,-11.11,1100,1100,1100,1100,1040,1500,1500,10567,795
191379,9,-1.99,2.74,-0.09,0.015,-0.058,0.825,1.04,-0.31,0.00,2.79,-1.04,3.10,0.00,-3.64,10.86,-1.65,8.12,0.00,0.59,-0.63,3.76,1100,1100,1100,1100,1009,1500,1531,10563,795
191391,9,1.42,-1.52,0.09,0.032,-0.056,0.915,0.73,-0.48,0.00,0.00,-0.73,0.48,0.00,-2.55,1.68,-3.97,3.20,0.00,-0.73,1.03,-0.64,1100,1100,1100,1100,1040,1500,1500,10567,795
191403,9,0.19,1.22,-0.59,0.003,-0.023,0.912,1.14,-0.40,0.00,0.00,-1.14,0.40,0.00,-3.98,1.40,-4.16,0.18,0.00,-0.37,-0.32,6.11,1100,1100,1100,1100,1040,1500,1500,10571,795
191415,9,-0.97,-1.48,-0.04,0.065,0.059,0.867,1.44,-0.27,0.00,0.00,-1.44,0.27,0.00,-5.02,0.95,-4.06,2.43,0.00,0.35,0.78,-0.20,1100,1100,1100,1100,1040,1500,1500,10575,794
191427,9,2.12,-1.38,0.46,0.081,-0.087,0.815,1.01,-0.16,0.00,0.00,-1.01,0.16,0.00,-3.55,0.57,-5.67,1.95,0.00,-1.23,0.80,-4.93,1100,1100,1100,1100,1040,1500,1500,10575,794
191439,9,-1.23,0.68,0.02,0.004,-0.003,0.895,1.60,-0.07,0.00,2.25,-1.60,2.32,0.00,-5.61,8.11,-4.38,7.43,0.00,0.47,-0.20,0.76,1100,1100,1100,1100,1015,1500,1525,10567,794
191451,9,1.41,-1.08,-0.38,0.051,-0.065,0.945,1.25,0.10,0.00,1.98,-1.25,1.88,0.00,-4.38,6.57,-5.79,7.65,0.00,-0.62,0.70,3.91,1100,1100,1100,1100,1018,1500,1522,10563,794
191463,9,-1.67,1.61,-0.38,-0.004,-0.033,0.811,1.54,-0.10,0.00,1.98,-1.54,2.08,0.00,-5.39,7.28,-3.72,5.67,0.00,0.43,-0.62,3.55,1100,1100,1100,1100,1018,1500,1522,10558,794
191475,9,0.64,-3.35,-0.40,0.051,0.059,0.881,1.90,0.53,0.00,0.00,-1.90,-0.53,0.00,-6.65,-1.84,-7.29,1.51,0.00,-0.41,1.19,4.10,1100,1100,1100,1100,1039,1500,1501,10558,794
191487,9,2.01,-0.72,0.50,-0.006,-0.115,0.901,1.50,-0.26,0.00,0.00,-1.50,0.26,0.00,-5.26,0.91,-7.27,1.63,0.00,-1.18,0.09,-6.80,1100,1100,1100,1100,1039,1500,1501,10558,794
191499,9,-2.36,-0.61,0.05,-0.004,-0.089,0.888,1.36,-0.32,0.00,2.79,-1.36,3.11,0.00,-4.76,10.87,-2.40,11.48,0.00,1.17,0.13,-0.85,1100,1100,1100,1100,1009,1500,1531,10558,794
191511,9,2.36,-1.34,-0.06,0.018,-0.046,0.934,0.90,-0.78,0.00,0.00,-0.90,0.78,0.00,-3.14,2.73,-5.50,4.07,0.00,-1.11,0.37,1.06,1100,1100,1100,1100,1039,1500,1501,10563,795
191523,9,-0.16,1.57,-0.10,-0.029,-0.012,0.835,1.02,-1.26,0.00,0.00,-1.02,1.26,0.00,-3.58,4.40,-3.42,2.83,0.00,0.04,-0.91,0.50,1100,1100,1100,1100,1039,1500,1501,10554,795
191535,9,2.02,-3.79,-0.60,0.084,-0.013,0.910,1.08,-0.86,0.00,0.00,-1.08,0.86,0.00,-3.77,3.01,-5.79,6.80,0.00,-0.74,1.57,7.26,1100,1100,1100,1100,1039,1500,1501,10554,795
191547,9,-0.49,1.26,0.60,-0.005,-0.049,0.908,1.28,-0.97,0.00,0.00,-1.28,0.97,0.00,-4.49,3.39,-4.00,2.13,0.00,0.14,-0.74,-8.10,1100,1100,1100,1100,1039,1500,1501,10554,795
191559,9,-1.47,-1.36,0.04,0.068,-0.036,0.837,1.44,-0.20,0.00,2.70,-1.44,2.90,0.00,-5.03,10.14,-3.56,11.51,0.00,0.67,0.68,-0.23,1100,1100,1100,1100,1010,1500,1530,10558,795
191571,9,0.85,1.55,0.26,-0.052,-0.074,0.946,0.87,-1.14,0.00,0.00,-0.87,1.14,0.00,-3.05,3.99,-3.90,2.44,0.00,-0.65,-0.71,-1.66,1100,1100,1100,1100,1040,1500,1500,10558,795
191583,9,-1.34,1.63,-0.51,-0.030,0.013,0.881,1.30,-1.30,0.00,0.00,-1.30,1.30,0.00,-4.56,4.53,-3.22,2.90,0.00,0.29,-0.50,6.62,1100,1100,1100,1100,1040,1500,1500,10558,795
191595,9,1.86,-2.98,-0.15,0.101,-0.007,0.891,1.01,-1.07,0.00,0.00,-1.01,1.07,0.00,-3.53,3.74,-5.39,6.73,0.00,-1.04,1.76,1.50,1100,1100,1100,1100,1037,1500,1503,10554,795
191607,9,-0.62,-0.77,0.79,-0.017,-0.154,0.858,0.53,-0.84,0.00,0.00,-0.53,0.84,0.00,-1.86,2.93,-1.24,3.70,0.00,0.14,0.32,-10.86,1100,1100,1100,1100,1037,1500,1503,10554,795
191619,9,-1.20,-1.06,-0.18,0.075,-0.028,0.863,0.96,-0.57,0.00,2.70,-0.96,3.27,0.00,-3.34,11.46,-2.14,12.52,0.00,0.55,0.43,3.26,1100,1100,1100,1100,1010,1500,1530,10554,795
191631,9,0.48,-1.49,-0.25,0.049,-0.013,0.914,1.16,-0.08,0.00,0.00,-1.16,0.08,0.00,-4.07,0.26,-4.55,1.76,0.00,-0.33,0.19,4.00,1100,1100,1100,1100,1040,1500,1500,10546,795
191643,9,0.33,-3.31,-0.31,0.110,0.021,0.788,1.76,1.04,0.00,0.00,-1.76,-1.04,0.00,-6.15,-3.64,-6.48,-0.33,0.00,-0.30,0.57,2.25,1100,1100,1100,1100,1040,1500,1500,10550,795
191655,9,-0.06,-3.24,-0.30,0.067,-0.024,0.862,1.35,1.34,0.00,1.89,-1.35,0.55,0.00,-4.74,1.92,-4.68,5.16,0.00,-0.07,0.66,3.00,1100,1100,1100,1100,1019,1500,1521,10558,795
191667,9,1.44,-0.83,0.71,0.024,-0.102,0.839,1.03,1.05,0.00,1.89,-1.03,0.84,0.00,-3.59,2.94,-5.03,3.77,0.00,-0.82,-0.24,-8.94,1100,1100,1100,1100,1019,1500,1521,10571,795
191679,9,0.04,-0.08,0.31,-0.048,-0.023,0.954,1.23,0.05,0.00,2.61,-1.23,2.56,0.00,-4.30,8.95,-4.34,9.02,0.00,-0.12,-0.30,-2.85,1100,1100,1100,1100,1011,1500,1529,10567,795
191691,9,0.43,-1.97,-0.12,0.019,-0.008,0.921,1.09,0.11,0.00,0.00,-1.09,-0.11,0.00,-3.83,-0.38,-4.25,1.59,0.00,-0.22,0.50,1.99,1100,1100,1100,1100,1035,1500,1506,10563,795
191703,9,-1.19,1.12,-0.41,0.019,-0.053,0.825,1.06,-0.34,0.00,0.00,-1.06,0.34,0.00,-3.72,1.18,-2.54,0.07,0.00,0.35,-0.67,3.52,1100,1100,1100,1100,1035,1500,1506,10563,795
191715,9,0.59,-2.39,0.24,0.052,-0.009,0.915,0.99,0.03,0.00,0.00,-0.99,-0.03,0.00,-3.46,-0.09,-4.05,2.30,0.00,-0.32,0.86,-3.27,1100,1100,1100,1100,1037,1500,1503,10554,794
191727,9,2.00,-0.45,0.89,0.063,-0.069,0.854,0.77,0.30,0.00,0.00,-0.77,-0.30,0.00,-2.71,-1.05,-4.71,-0.59,0.00,-1.02,0.09,-10.33,1100,1100,1100,1100,1037,1500,1503,10558,794
191739,9,-1.71,-0.75,-0.82,0.060,-0.023,0.887,1.38,1.16,0.00,2.70,-1.38,1.54,0.00,-4.82,5.40,-3.11,6.14,0.00,0.83,-0.08,11.05,1100,1100,1100,1100,1011,1500,1530,10567,794
191751,9,2.37,-3.84,-0.46,0.091,0.010,0.862,1.56,1.40,0.00,2.97,-1.56,1.57,0.00,-5.46,5.51,-7.83,9.35,0.00,-1.02,1.24,4.56,1100,1100,1100,1100,1008,1500,1533,10563,794
191763,9,-0.27,0.55,-0.31,-0.051,-0.057,0.860,1.46,0.54,0.00,2.97,-1.46,2.43,0.00,-5.11,8.51,-4.84,7.96,0.00,0.08,-0.64,0.44,1100,1100,1100,1100,1008,1500,1533,10563,794
191775,9,0.30,-2.28,-0.15,0.107,-0.000,0.874,1.34,0.59,0.00,0.00,-1.34,-0.59,0.00,-4.70,-2.08,-5.01,0.20,0.00,-0.01,0.44,0.89,1100,1100,1100,1100,1038,1500,1503,10575,794
191787,9,1.91,-0.60,0.69,-0.011,-0.065,0.897,1.02,-0.20,0.00,0.00,-1.02,0.20,0.00,-3.55,0.69,-5.46,1.29,0.00,-1.14,-0.03,-8.84,1100,1100,1100,1100,1038,1500,1503,10575,794
191799,9,-2.58,-0.60,-0.53,0.038,-0.041,0.901,1.55,0.30,0.00,2.61,-1.55,2.31,0.00,-5.41,8.07,-2.83,8.67,0.00,1.10,0.14,7.21,1100,1100,1100,1100,1012,1500,1529,10563,794
191811,9,1.35,-1.86,-0.10,0.035,-0.034,0.897,1.09,-0.03,0.00,0.00,-1.09,0.03,0.00,-3.83,0.10,-5.17,1.96,0.00,-0.70,0.39,0.51,1100,1100,1100,1100,1038,1500,1503,10563,794
191823,9,-1.00,0.25,-0.08,-0.066,-0.052,0.839,1.18,-0.54,0.00,0.00,-1.18,0.54,0.00,-4.13,1.88,-3.13,1.62,0.00,0.22,-0.54,-0.08,1100,1100,1100,1100,1038,1500,1503,10563,794
191835,9,0.80,-2.88,0.35,0.045,-0.011,0.889,0.99,-0.92,0.00,0.00,-0.99,0.92,0.00,-3.48,3.21,-4.28,6.08,0.00,-0.36,1.10,-3.60,1100,1100,1100,1100,1039,1500,1502,10575,794
191847,9,-0.20,1.62,0.12,-0.013,-0.102,0.907,0.85,-0.83,0.00,0.00,-0.85,0.83,0.00,-2.98,2.90,-2.78,1.28,0.00,-0.12,-0.95,-0.58,1100,1100,1100,1100,1039,1500,1502,10567,794
191859,9,-2.24,0.78,-0.26,0.075,0.021,0.878,1.50,-0.43,0.00,2.61,-1.50,3.04,0.00,-5.25,10.62,-3.01,9.85,0.00,0.84,-0.13,3.12,1100,1100,1100,1100,1016,1500,1529,10567,794
191871,9,1.45,-0.64,-0.26,0.012,-0.054,0.933,1.16,-0.75,0.00,0.00,-1.16,0.75,0.00,-4.07,2.63,-5.52,3.27,0.00,-1.05,0.55,1.49,1100,1100,1100,1100,1045,1500,1502,10558,794
191883,9,-1.65,1.40,-0.23,0.022,0.003,0.829,1.77,-0.32,0.00,0.00,-1.77,0.32,0.00,-6.20,1.11,-4.55,-0.29,0.00,0.39,-0.77,1.53,1100,1100,1100,1100,1045,1500,1502,10554,794
191895,9,3.03,-2.01,0.12,0.045,0.028,0.908,1.47,-0.78,0.00,0.00,-1.47,0.78,0.00,-5.16,2.72,-8.19,4.73,0.00,-1.46,1.00,-1.84,1100,1100,1100,1100,1045,1500,1502,10546,794
191907,9,0.61,-0.88,0.19,-0.026,-0.165,0.880,0.89,-0.84,0.00,0.00,-0.89,0.84,0.00,-3.12,2.95,-3.73,3.83,0.00,-0.34,0.43,-2.00,1100,1100,1100,1100,1045,1500,1502,10542,794
191919,9,-2.11,-0.62,-0.38,0.086,-0.047,0.859,0.80,-0.27,0.00,2.52,-0.80,2.79,0.00,-2.78,9.78,-0.67,10.41,0.00,1.25,0.18,4.59,1100,1100,1100,1100,1021,1500,1528,10550,795
191931,9,1.62,-2.36,-0.33,0.069,-0.031,0.888,0.82,0.26,0.00,0.00,-0.82,-0.26,0.00,-2.86,-0.91,-4.48,1.45,0.00,-0.65,0.49,3.98,1100,1100,1100,1100,1049,1500,1502,10546,795
191943,9,0.21,-1.85,0.22,0.045,-0.004,0.793,1.39,0.58,0.00,0.00,-1.39,-0.58,0.00,-4.86,-2.05,-5.07,-0.19,0.00,-0.03,-0.09,-3.99,1100,1100,1100,1100,1049,1500,1502,10558,795
191955,9,1.43,-2.20,-0.62,-0.035,-0.071,0.951,1.16,0.30,0.00,0.00,-1.16,-0.30,0.00,-4.04,-1.06,-5.48,1.14,0.00,-0.52,0.08,7.96,1100,1100,1100,1100,1055,1500,1502,10558,795
191967,9,-0.47,1.48,0.70,-0.051,-0.060,0.919,1.13,-0.77,0.00,0.00,-1.13,0.77,0.00,-3.96,2.70,-3.49,1.21,0.00,0.13,-1.17,-9.13,1100,1100,1100,1100,1055,1500,1502,10550,795
191979,9,-1.86,1.52,-0.20,-0.035,-0.043,0.926,0.98,-1.46,0.00,0.00,-0.98,1.46,0.00,-3.43,5.12,-1.56,3.59,0.00,0.60,-0.48,1.31,1100,1100,1100,1100,1048,1500,1516,10550,795
191991,9,-0.04,0.92,0.04,0.033,-0.019,0.865,0.98,-1.56,0.00,0.00,-0.98,1.56,0.00,-3.42,5.48,-3.38,4.56,0.00,-0.44,0.31,-0.39,1100,1100,1100,1100,1067,1500,1502,10550,795
192003,9,-0.10,1.28,0.02,-0.042,-0.019,0.900,0.98,-2.07,0.00,0.00,-0.98,2.07,0.00,-3.44,7.24,-3.34,5.96,0.00,-0.41,0.02,-1.21,1100,1100,1100,1100,1067,1500,1502,10550,795
192015,9,1.32,-2.53,-0.41,0.028,-0.037,0.957,0.81,-1.82,0.00,0.00,-0.81,1.82,0.00,-2.84,6.36,-4.17,8.89,0.00,-0.74,1.50,6.37,1100,1100,1100,1100,1068,1500,1502,10550,794
192027,9,1.71,-1.45,0.50,-0.028,-0.089,0.848,0.30,-2.44,0.00,0.00,-0.30,2.44,0.00,-1.03,8.53,-2.74,9.99,0.00,-0.68,0.97,-7.13,1100,1100,1100,1100,1068,1500,1502,10550,794
192039,9,-0.49,-0.03,-0.54,0.019,-0.048,0.926,0.49,-2.10,0.00,2.52,-0.49,4.62,0.00,-1.71,16.18,-1.23,16.22,0.00,0.56,0.29,6.13,1100,1100,1100,1100,1044,1500,1528,10567,794
192051,9,1.65,-2.32,0.71,0.051,-0.016,0.872,0.60,-1.69,0.00,0.00,-0.60,1.69,0.00,-2.11,5.92,-3.76,8.23,0.00,-0.51,1.01,-9.19,1100,1100,1100,1100,1069,1500,1502,10563,794
192063,9,-0.15,1.18,-0.27,-0.035,-0.079,0.873,0.84,-1.45,0.00,0.00,-0.84,1.45,0.00,-2.95,5.07,-2.80,3.89,0.00,0.04,-0.54,3.92,1100,1100,1100,1100,1069,1500,1502,10567,794
192075,9,-0.05,-1.25,-0.10,0.053,-0.023,0.923,0.99,-0.85,0.00,2.79,-0.99,3.64,0.00,-3.47,12.75,-3.42,14.00,0.00,0.14,0.88,3.14,1100,1100,1100,1100,1041,1500,1531,10563,794
192087,9,0.73,-0.52,0.21,-0.034,-0.111,0.903,0.57,-1.31,0.00,2.79,-0.57,4.10,0.00,-1.99,14.33,-2.72,14.85,0.00,-0.44,0.72,-3.79,1100,1100,1100,1100,1041,1500,1531,10563,794
192099,9,-1.88,2.57,-0.19,-0.016,-0.026,0.911,0.92,-1.51,0.00,0.00,-0.92,1.51,0.00,-3.21,5.28,-1.32,2.71,0.00,0.89,-1.23,2.04,1100,1100,1100,1100,1067,1500,1505,10571,794
192111,9,2.14,0.89,0.28,-0.035,-0.062,0.905,0.28,-2.37,0.00,0.00,-0.28,2.37,0.00,-0.99,8.28,-3.13,7.39,0.00,-0.96,0.15,-4.10,1100,1100,1100,1100,1077,1500,1502,10567,795
192123,9,-1.49,1.54,-0.40,-0.009,-0.034,0.895,0.64,-1.99,0.00,0.00,-0.64,1.99,0.00,-2.24,6.96,-0.75,5.42,0.00,0.51,-0.05,6.24,1100,1100,1100,1100,1077,1500,1502,10571,795
192135,9,1.30,-1.12,0.49,0.038,0.003,0.928,0.63,-1.97,0.00,0.00,-0.63,1.97,0.00,-2.19,6.89,-3.50,8.01,0.00,-0.58,1.12,-5.60,1100,1100,1100,1100,1091,1500,1501,10563,795
192147,9,0.08,2.85,-0.10,-0.059,-0.152,0.933,0.37,-2.39,0.00,0.00,-0.37,2.39,0.00,-1.31,8.36,-1.39,5.51,0.00,-0.18,-0.55,1.81,1100,1100,1100,1100,1091,1500,1501,10554,795
192159,9,-1.55,-0.01,0.64,0.050,0.027,0.899,0.71,-1.97,0.00,2.43,-0.71,4.40,0.00,-2.49,15.39,-0.94,15.41,0.00,0.90,0.81,-7.01,1100,1100,1100,1100,1065,1500,1527,10550,795
192171,9,3.50,0.68,0.21,-0.044,-0.059,0.906,0.29,-2.45,0.00,2.79,-0.29,5.24,0.00,-1.03,18.33,-4.53,17.65,0.00,-1.58,0.93,-1.02,1100,1100,1100,1100,1064,1500,1531,10550,795
192183,9,-0.88,3.25,-0.04,-0.002,-0.044,0.861,0.68,-2.41,0.00,2.79,-0.68,5.20,0.00,-2.38,18.20,-1.50,14.96,0.00,0.48,-0.26,3.15,1100,1100,1100,1100,1064,1500,1531,10550,795
192195,9,0.33,-1.65,-0.02,0.062,-0.070,0.946,0.19,-1.74,0.00,0.00,-0.19,1.74,0.00,-0.68,6.07,-1.01,7.73,0.00,0.05,1.63,1.62,1100,1100,1100,1100,1093,1500,1504,10546,795
192207,9,-1.06,1.71,0.35,0.014,-0.081,0.846,0.42,-1.11,0.00,0.00,-0.42,1.11,0.00,-1.48,3.87,-0.42,2.16,0.00,0.37,-0.43,-3.60,1100,1100,1100,1100,1093,1500,1504,10554,795
192219,9,1.01,-1.16,0.03,0.082,0.016,0.873,0.68,-0.66,0.00,2.52,-0.68,3.18,0.00,-2.38,11.12,-3.38,12.28,0.00,-0.32,1.04,-0.02,1100,1100,1100,1100,1080,1500,1528,10550,795
192231,9,2.36,-0.57,-0.13,0.052,-0.086,0.875,0.70,-0.11,0.00,0.00,-0.70,0.11,0.00,-2.46,0.38,-4.82,0.95,0.00,-1.07,0.38,3.29,1100,1100,1100,1100,1107,1500,1501,10554,795
192243,9,-1.60,-0.77,0.59,0.046,0.048,0.817,1.26,0.12,0.00,0.00,-1.26,-0.12,0.00,-4.42,-0.40,-2.82,0.37,0.00,0.85,0.09,-6.06,1100,1100,1100,1100,1107,1500,1501,10550,795
192255,9,1.86,-2.22,-0.27,0.042,-0.084,0.928,0.78,-0.24,0.00,0.00,-0.78,0.24,0.00,-2.73,0.83,-4.59,3.05,0.00,-0.91,1.00,5.14,1100,1100,1100,1100,1116,1500,1501,10550,795
192267,9,-2.42,2.22,0.05,0.026,-0.055,0.813,1.05,0.05,0.00,0.00,-1.05,-0.05,0.00,-3.67,-0.16,-1.25,-2.38,0.00,0.84,-1.20,-0.47,1100,1100,1100,1100,1116,1500,1501,10554,795
192279,9,0.15,-1.70,-0.62,0.084,-0.004,0.878,0.91,0.59,0.00,0.00,-0.91,-0.59,0.00,-3.18,-2.05,-3.33,-0.36,0.00,-0.20,0.70,6.72,1100,1100,1100,1100,1112,1500,1506,10558,795
192291,9,1.26,-0.02,0.83,-0.019,-0.084,0.890,0.77,0.31,0.00,0.00,-0.77,-0.31,0.00,-2.70,-1.07,-3.96,-1.05,0.00,-0.92,-0.13,-10.94,1100,1100,1100,1100,1117,1500,1501,10554,795
192303,9,-1.13,0.15,0.51,-0.012,-0.015,0.913,1.03,0.05,0.00,0.00,-1.03,-0.05,0.00,-3.59,-0.19,-2.46,-0.33,0.00,0.55,-0.34,-5.42,1100,1100,1100,1100,1117,1500,1501,10554,795
192315,9,1.33,-0.18,-0.27,0.033,-0.030,0.903,0.86,-0.28,0.00,0.00,-0.86,0.28,0.00,-3.01,0.97,-4.34,1.15,0.00,-0.80,0.18,6.15,1100,1100,1100,1100,1120,1500,1501,10546,795
192327,9,-2.09,-1.17,-0.20,0.056,-0.017,0.756,0.83,0.50,0.00,0.00,-0.83,-0.50,0.00,-2.92,-1.74,-0.83,-0.57,0.00,0.76,0.37,1.72,1100,1100,1100,1100,1120,1500,1501,10550,795
192339,9,1.75,-4.29,-0.51,0.134,-0.037,0.921,0.60,1.21,0.00,0.00,-0.60,-1.21,0.00,-2.11,-4.24,-3.86,0.05,0.00,-0.93,1.48,5.83,1100,1100,1100,1100,1128,1500,1504,10554,795
192351,9,-0.50,1.81,0.98,-0.017,-0.106,0.913,0.78,0.74,0.00,0.00,-0.78,-0.74,0.00,-2.74,-2.58,-2.23,-4.39,0.00,0.04,-1.42,-13.20,1100,1100,1100,1100,1134,1500,1501,10554,795
192363,9,-0.50,-0.10,-0.48,0.010,-0.029,0.869,1.15,0.45,0.00,0.00,-1.15,-0.45,0.00,-4.03,-1.57,-3.53,-1.48,0.00,0.14,-0.33,6.82,1100,1100,1100,1100,1134,1500,1501,10554,795
192375,9,1.55,-0.59,0.35,-0.046,0.014,0.882,1.03,-0.38,0.00,2.97,-1.03,3.35,0.00,-3.60,11.74,-5.15,12.32,0.00,-0.77,0.33,-2.94,1100,1100,1100,1100,1110,1500,1533,10558,795
192387,9,-0.25,0.16,-0.54,-0.033,-0.061,0.939,1.00,-0.56,0.00,2.97,-1.00,3.53,0.00,-3.50,12.37,-3.25,12.21,0.00,0.17,-0.08,6.06,1100,1100,1100,1100,1110,1500,1533,10558,795
192399,9,-0.57,-1.30,-0.38,0.041,-0.040,0.895,0.99,-0.70,0.00,2.43,-0.99,3.13,0.00,-3.47,10.95,-2.90,12.25,0.00,0.20,0.86,3.99,1100,1100,1100,1100,1116,1500,1527,10567,795
192411,9,-0.02,1.08,1.31,-0.049,-0.095,0.849,0.38,-1.59,0.00,0.00,-0.38,1.59,0.00,-1.33,5.57,-1.31,4.50,0.00,-0.09,-0.41,-18.00,1265,1139,1138,1266,1152,1500,1500,10567,843
192423,9,0.89,0.81,0.15,-0.031,-0.006,1.016,0.81,-2.09,0.00,0.00,-0.81,2.09,0.00,-2.84,7.30,-3.73,6.49,0.00,-0.44,-0.18,0.52,1265,1139,1138,1266,1152,1500,1500,10563,843
192435,9,0.23,2.16,0.13,-0.083,-0.027,0.927,0.71,-2.83,0.00,0.00,-0.71,2.83,0.00,-2.50,9.92,-2.73,7.76,0.00,-0.11,-0.22,0.63,1265,1139,1138,1266,1159,1500,1499,10550,843
192447,9,-0.97,3.55,-0.94,-0.019,-0.019,0.847,0.95,-3.13,0.00,0.00,-0.95,3.13,0.00,-3.32,10.97,-2.35,7.41,0.00,0.23,-0.24,12.13,1265,1139,1138,1266,1159,1500,1499,10550,843
192459,9,-0.38,-0.82,0.16,0.037,-0.083,0.957,0.40,-2.73,0.00,2.43,-0.40,5.16,0.00,-1.39,18.07,-1.01,18.89,0.00,-0.01,1.95,-2.61,1265,1139,1138,1266,1132,1500,1527,10546,843
192471,9,1.18,-0.07,0.28,0.004,-0.128,0.880,0.31,-2.12,0.00,0.00,-0.31,2.12,0.00,-1.08,7.43,-2.26,7.50,0.00,-0.80,0.85,-5.04,1265,1139,1138,1266,1154,1500,1517,10542,843
192483,9,-1.21,2.31,0.22,-0.035,-0.107,0.953,0.23,-1.98,0.00,0.00,-0.23,1.98,0.00,-0.80,6.95,0.41,4.63,0.00,0.62,-0.90,-2.50,1265,1139,1138,1266,1154,1500,1517,10529,843
192495,9,1.23,-4.07,0.53,0.030,-0.056,0.877,-0.23,-1.54,0.00,0.00,0.23,1.54,0.00,0.79,5.40,-0.44,9.47,0.00,-0.27,1.87,-5.68,1265,1139,1138,1266,1175,1500,1501,10529,843
192507,9,0.63,0.46,-0.05,0.058,-0.005,0.789,0.20,-1.27,0.00,0.00,-0.20,1.27,0.00,-0.70,4.43,-1.32,3.97,0.00,-0.17,-0.50,1.78,1265,1139,1138,1266,1175,1500,1501,10517,843
192519,9,-1.10,-2.36,0.02,0.088,0.065,0.849,0.54,-0.32,0.00,2.43,-0.54,2.75,0.00,-1.89,9.64,-0.79,12.00,0.00,0.78,0.76,1.30,1158,1157,1157,1155,1150,1500,1527,10517,802
192531,9,3.90,-3.67,-0.02,0.119,-0.067,0.825,0.24,0.31,0.00,0.00,-0.24,-0.31,0.00,-0.86,-1.08,-4.75,2.60,0.00,-1.62,1.35,1.62,1158,1157,1157,1155,1179,1500,1501,10529,802
192543,9,0.31,0.41,0.25,0.004,-0.075,0.847,0.45,0.31,0.00,0.00,-0.45,-0.31,0.00,-1.58,-1.07,-1.89,-1.48,0.00,-0.16,-0.76,-1.70,1158,1157,1157,1155,1179,1500,1501,10513,802
192555,9,-0.03,-4.70,-0.08,0.087,-0.007,0.845,0.57,0.56,0.00,0.00,-0.57,-0.56,0.00,-1.98,-1.96,-1.96,2.74,0.00,0.31,1.50,2.50,1158,1157,1157,1155,1179,1500,1501,10529,802
192567,9,4.95,-1.62,-0.10,0.008,-0.130,0.898,0.06,0.05,0.00,0.00,-0.06,-0.05,0.00,-0.22,-0.16,-5.18,1.46,0.00,-2.23,0.52,2.49,1158,1157,1157,1155,1179,1500,1501,10517,802
192579,25,-2.63,6.01,-0.50,-0.081,-0.096,0.861,0.37,-0.64,0.00,0.00,-0.37,0.64,0.00,-1.29,2.23,1.33,-3.78,0.00,1.18,-2.64,6.53,1158,1157,1157,1155,1163,1500,1520,10479,802
192591,25,-0.68,-4.81,-0.23,0.027,0.083,0.905,0.90,-1.01,0.00,0.00,-0.90,1.01,0.00,-3.14,3.53,-2.46,8.34,0.00,0.45,2.46,3.43,1158,1157,1157,1155,1183,1500,1501,10479,802
192603,25,5.27,-2.75,0.07,0.065,-0.042,0.933,0.68,-1.44,0.00,0.00,-0.68,1.44,0.00,-2.37,5.03,-7.64,7.77,0.00,-2.72,2.10,-0.53,1158,1157,1157,1155,1183,1500,1501,10475,802
192615,25,-3.72,4.97,0.30,-0.022,-0.118,0.797,0.88,-1.16,0.00,0.00,-0.88,1.16,0.00,-3.08,4.05,0.64,-0.92,0.00,1.42,-2.33,-2.91,1186,1177,1180,1187,1183,1500,1501,10484,801
192627,25,-2.17,-1.71,0.20,0.009,0.112,0.852,1.75,-1.05,0.00,0.00,-1.75,1.05,0.00,-6.12,3.68,-3.95,5.39,0.00,1.12,0.45,-1.85,1186,1177,1180,1187,1183,1500,1501,10467,801
192639,25,5.06,-2.17,0.20,0.043,0.006,1.074,1.03,-1.35,0.00,2.34,-1.03,3.69,0.00,-3.59,12.91,-8.65,15.07,0.00,-2.34,1.77,-2.39,1186,1177,1180,1187,1159,1500,1526,10467,801
192651,25,0.30,7.78,0.81,-0.104,-0.235,0.992,0.44,-1.23,0.00,0.00,-0.44,1.23,0.00,-1.56,4.30,-1.85,-3.47,0.00,-0.41,-3.49,-10.11,1186,1177,1180,1187,1184,1500,1501,10479,801
192663,25,-5.39,-3.90,0.73,0.021,-0.025,0.791,1.58,-0.05,0.00,0.00,-1.58,0.05,0.00,-5.52,0.19,-0.13,4.09,0.00,2.53,1.25,-6.17,1186,1177,1180,1187,1184,1500,1501,10479,801
192675,25,4.94,-11.53,0.56,0.177,0.064,0.844,1.73,0.43,0.00,0.00,-1.73,-0.43,0.00,-6.06,-1.51,-11.00,10.01,0.00,-2.18,5.17,-0.87,1186,1177,1180,1187,1184,1500,1501,10475,801
192687,25,8.49,2.69,0.98,0.070,0.059,0.916,1.29,-0.17,0.00,0.00,-1.29,0.17,0.00,-4.53,0.58,-13.02,-2.10,0.00,-4.20,-1.21,-4.83,1186,1177,1180,1187,1184,1500,1501,10475,801
192699,25,-4.29,2.54,1.54,-0.014,-0.257,0.684,0.69,-0.57,0.00,2.34,-0.69,2.91,0.00,-2.40,10.19,1.89,7.65,0.00,2.02,-1.37,-12.74,1186,1177,1180,1187,1160,1500,1526,10479,801
192711,25,-4.82,-5.94,0.78,-0.065,0.071,0.881,1.48,-0.76,0.00,0.00,-1.48,0.76,0.00,-5.19,2.64,-0.37,8.58,0.00,2.76,2.35,-2.60,1181,1173,1178,1179,1186,1500,1500,10467,802
192723,25,4.34,0.69,-1.03,0.059,0.202,1.038,1.06,-1.10,0.00,0.00,-1.06,1.10,0.00,-3.71,3.86,-8.05,3.17,0.00,-1.46,-0.10,19.79,1181,1173,1178,1179,1186,1500,1500,10475,802
192735,25,8.57,7.86,-1.56,0.191,-0.175,0.694,-0.20,-0.57,0.00,0.00,0.20,0.57,0.00,0.71,1.99,-7.86,-5.86,0.00,-4.17,-3.79,21.40,1181,1173,1178,1179,1192,1500,1500,10471,802
192747,25,-7.78,0.85,-0.91,-0.100,-0.252,0.921,1.01,-1.38,0.00,0.00,-1.01,1.38,0.00,-3.53,4.84,4.24,3.99,0.00,3.29,-0.11,5.56,1181,1173,1178,1179,1192,1500,1500,10467,802
192759,25,-8.81,-1.19,-0.74,-0.070,0.065,1.075,2.27,0.90,0.00,2.34,-2.27,1.44,0.00,-7.94,5.03,0.87,6.22,0.00,4.42,0.92,1.35,1181,1173,1178,1179,1166,1500,1526,10450,802
192771,25,10.29,-3.46,1.34,0.196,0.289,0.887,2.36,2.70,0.00,0.00,-2.36,-2.70,0.00,-8.26,-9.44,-18.55,-5.98,0.00,-4.81,1.24,-19.58,1181,1173,1178,1179,1192,1500,1508,10442,802
192783,25,8.28,-1.43,2.41,0.170,-0.138,0.652,0.82,1.70,0.00,0.00,-0.82,-1.70,0.00,-2.88,-5.95,-11.15,-4.51,0.00,-4.41,0.63,-23.57,1181,1173,1178,1179,1192,1500,1508,10442,802
192795,17,-5.91,2.92,2.75,-0.127,-0.191,0.937,1.26,0.34,0.00,0.00,-1.26,-0.34,0.00,-4.41,-1.19,1.50,-4.11,0.00,2.42,-1.20,-22.30,1181,1173,1178,1179,1200,1500,1500,10442,802
192807,17,-6.72,2.67,0.95,-0.041,-0.019,1.007,1.90,0.92,0.00,0.00,-1.90,-0.92,0.00,-6.65,-3.22,0.07,-5.89,0.00,3.57,-1.66,-0.13,1181,1173,1178,1179,1200,1500,1500,10446,802
192819,25,7.02,-5.82,-0.81,0.131,0.101,0.824,1.59,0.70,0.00,2.43,-1.59,1.73,0.00,-5.56,6.06,-12.58,11.88,0.00,-2.64,2.64,17.95,1179,1180,1182,1182,1173,1500,1527,10442,803
192831,17,8.56,-1.53,-1.06,0.062,-0.111,0.919,0.81,-0.03,0.00,0.00,-0.81,0.03,0.00,-2.83,0.12,-11.39,1.65,0.00,-3.74,0.45,15.11,1179,1180,1182,1182,1204,1500,1500,10442,803
192843,17,-1.34,-1.02,-2.25,-0.038,-0.094,0.911,1.33,0.24,0.00,0.00,-1.33,-0.24,0.00,-4.67,-0.86,-3.33,0.17,0.00,0.94,-0.04,25.21,1179,1180,1182,1182,1204,1500,1500,10454,803
192855,17,-3.89,0.81,-2.06,0.034,0.050,0.863,1.75,0.51,0.00,0.00,-1.75,-0.51,0.00,-6.15,-1.80,-2.26,-2.62,0.00,2.42,-0.94,17.15,1179,1180,1182,1182,1205,1500,1500,10459,803
192867,17,1.64,-2.20,-2.19,0.047,-0.058,0.797,1.43,1.49,0.00,0.00,-1.43,-1.49,0.00,-5.06,-5.25,-6.70,-3.05,0.00,-0.41,0.18,11.30,1179,1180,1182,1182,1205,1500,1500,10459,803
192879,25,-0.84,0.20,-3.22,0.004,-0.047,0.883,1.81,0.98,0.00,2.34,-1.81,1.36,0.00,-6.34,4.75,-5.50,4.55,0.00,0.10,0.31,22.33,1179,1180,1182,1182,1180,1500,1526,10454,803
192891,17,-3.81,4.99,-1.77,0.031,0.073,1.008,1.84,0.72,0.00,0.00,-1.84,-0.72,0.00,-6.44,-2.54,-2.64,-7.53,0.00,1.12,-1.78,5.94,1179,1180,1182,1182,1200,1500,1510,10454,803
192903,17,-0.89,3.45,0.24,0.174,-0.038,0.814,0.99,0.60,0.00,0.00,-0.99,-0.60,0.00,-3.47,-2.12,-2.59,-5.56,0.00,-0.25,-0.94,-14.74,1179,1180,1182,1182,1200,1500,1510,10459,803
192915,17,0.61,2.91,2.29,-0.086,-0.144,0.906,0.32,-1.08,0.00,0.00,-0.32,1.08,0.00,-1.14,3.79,-1.75,0.88,0.00,-1.31,-0.35,-33.61,1218,1194,1195,1219,1210,1500,1500,10467,801
192927,17,-5.72,-1.64,1.23,-0.249,-0.087,1.003,1.06,-1.11,0.00,0.00,-1.06,1.11,0.00,-3.72,3.91,2.00,5.55,0.00,1.40,1.89,-13.88,1218,1194,1195,1219,1210,1500,1500,10463,801
192939,25,-8.36,-0.86,1.04,0.192,0.156,0.769,1.91,0.55,0.00,2.70,-1.91,2.15,0.00,-6.69,7.52,1.67,8.38,0.00,2.94,2.06,-5.03,1218,1194,1195,1219,1180,1500,1530,10459,801
192951,17,4.27,10.54,2.63,0.076,0.012,1.026,0.36,-0.05,0.00,0.00,-0.36,0.05,0.00,-1.26,0.19,-5.53,-10.35,0.00,-2.66,-4.24,-21.82,1218,1194,1195,1219,1218,1500,1500,10450,801
192963,17,8.14,-1.72,1.77,0.010,-0.263,0.919,-0.49,0.58,0.00,0.00,0.49,-0.58,0.00,1.70,-2.03,-6.44,-0.31,0.00,-4.87,0.77,-9.21,1218,1194,1195,1219,1218,1500,1500,10446,801
192975,17,-8.00,-6.57,1.77,0.002,-0.200,0.614,-0.80,-0.29,0.00,0.00,0.80,0.29,0.00,2.79,1.00,10.79,7.58,0.00,2.93,3.97,-9.78,1218,1194,1195,1219,1218,1500,1500,10450,801
192987,17,-10.43,2.27,0.29,-0.235,-0.100,1.073,-0.27,-0.51,0.00,0.00,0.27,0.51,0.00,0.93,1.79,11.36,-0.48,0.00,5.00,-0.93,4.75,1218,1194,1195,1219,1218,1500,1500,10446,801
192999,17,4.03,-4.15,-0.63,0.163,0.310,0.882,0.96,1.44,0.00,0.00,-0.96,-1.44,0.00,-3.36,-5.05,-7.39,-0.90,0.00,-1.50,1.43,15.34,1218,1194,1195,1219,1205,1500,1520,10442,801
193011,17,13.01,4.10,1.61,0.204,0.032,0.842,-0.28,0.45,0.00,0.00,0.28,-0.45,0.00,0.97,-1.59,-12.04,-5.69,0.00,-5.64,-3.03,-16.10,1233,1212,1201,1229,1225,1500,1500,10446,803
193023,17,10.78,-10.98,0.21,0.142,-0.197,0.820,-0.50,0.31,0.00,0.00,0.50,-0.31,0.00,1.74,-1.09,-9.04,9.88,0.00,-4.98,3.78,2.07,1233,1212,1201,1229,1225,1500,1500,10438,803
193035,17,-4.30,-4.79,0.01,-0.181,-0.295,0.865,-0.15,-1.86,0.00,0.00,0.15,1.86,0.00,0.54,6.50,4.84,11.29,0.00,2.43,1.81,3.18,1233,1212,1201,1229,1228,1500,1499,10442,803
193047,17,-9.86,-1.51,-1.67,-0.240,-0.065,0.977,1.22,-1.98,0.00,0.00,-1.22,1.98,0.00,-4.27,6.93,5.59,8.44,0.00,5.57,-0.02,22.51,1233,1212,1201,1229,1228,1500,1499,10438,803
193059,17,0.87,0.21,-1.45,-0.025,0.196,0.857,1.39,-1.55,0.00,2.34,-1.39,3.89,0.00,-4.87,13.66,-5.74,13.45,0.00,0.98,-0.64,14.44,1233,1212,1201,1229,1204,1500,1526,10425,803
193071,17,11.97,0.53,-2.88,-0.061,0.177,0.936,0.55,-1.93,0.00,0.00,-0.55,1.93,0.00,-1.95,6.82,-13.92,6.29,0.00,-4.42,-1.33,23.46,1233,1212,1201,1229,1233,1500,1500,10438,803
193083,17,9.57,-2.05,-4.65,0.206,-0.077,0.791,-0.07,-1.91,0.00,0.00,0.07,1.91,0.00,0.22,6.78,-9.35,8.83,0.00,-3.60,0.34,35.83,1233,1212,1201,1229,1233,1500,1500,10409,803
193095,17,0.15,-0.11,-6.21,0.007,-0.148,0.950,-0.06,-3.09,0.00,2.97,0.06,6.06,0.00,0.18,21.34,0.02,21.45,0.00,0.69,0.73,49.06,1233,1212,1201,1229,1200,1500,1533,10404,803
193107,17,-1.57,-2.32,-6.82,0.083,-0.116,0.808,0.28,-1.80,0.00,2.97,-0.28,4.77,0.00,-1.00,16.90,0.57,19.22,0.00,1.28,1.52,51.02,1233,1212,1201,1229,1200,1500,1533,10425,803
193119,17,-1.25,-0.34,-4.32,0.009,-0.097,0.904,0.12,-0.46,0.00,2.34,-0.12,2.80,0.00,-0.43,10.03,0.82,10.37,0.00,0.84,0.34,16.24,1169,1250,1251,1169,1215,1500,1526,10400,803
193131,17,-0.74,-2.25,-2.18,-0.057,-0.037,0.881,0.73,1.14,0.00,0.00,-0.73,-1.14,0.00,-2.57,-3.77,-1.83,-1.52,0.00,0.33,0.70,-9.04,1169,1250,1251,1169,1241,1500,1500,10417,803
193143,17,-0.59,3.38,0.11,-0.068,-0.008,0.930,0.67,0.91,0.00,0.00,-0.67,-0.91,0.00,-2.37,-2.97,-1.78,-6.35,0.00,-0.01,-1.56,-28.14,1169,1250,1251,1169,1241,1500,1500,10425,803
193155,17,-1.47,3.92,-0.42,-0.002,-0.056,0.950,0.76,0.87,0.00,0.00,-0.76,-0.87,0.00,-2.70,-2.82,-1.23,-6.74,0.00,0.34,-1.87,-9.09,1169,1250,1251,1169,1244,1500,1500,10425,803
193167,17,-0.15,-0.29,-0.32,0.172,-0.055,0.859,0.49,0.98,0.00,0.00,-0.49,-0.98,0.00,-1.76,-3.23,-1.61,-2.94,0.00,-0.14,0.27,-1.82,1169,1250,1251,1169,1244,1500,1500,10425,803
193179,17,1.02,-1.01,-1.10,0.117,-0.003,0.865,0.67,0.49,0.00,2.34,-0.67,1.85,0.00,-2.40,6.69,-3.42,7.70,0.00,-0.54,0.75,12.67,1169,1250,1251,1169,1221,1500,1526,10409,803
193191,17,0.59,-0.40,-0.23,0.040,-0.049,0.958,0.52,-0.49,0.00,0.00,-0.52,0.49,0.00,-1.88,1.97,-2.47,2.37,0.00,-0.18,0.18,-1.18,1169,1250,1251,1169,1232,1500,1517,10404,803
193203,17,3.62,0.39,0.45,-0.067,0.015,0.901,1.04,-1.28,0.00,0.00,-1.04,1.28,0.00,-3.70,4.72,-7.32,4.33,0.00,-1.61,0.29,-11.13,1169,1250,1251,1169,1232,1500,1517,10396,803
193215,17,-0.99,-2.74,0.24,-0.150,-0.183,0.862,0.75,-0.77,0.00,0.00,-0.75,0.77,0.00,-2.69,2.95,-1.70,5.69,0.00,0.59,1.35,-8.98,1238,1252,1253,1236,1251,1500,1501,10392,801
193227,17,-2.19,3.18,-0.36,-0.195,0.029,1.034,1.43,-1.58,0.00,0.00,-1.43,1.58,0.00,-5.09,5.80,-2.90,2.62,0.00,1.04,-1.09,2.49,1238,1252,1253,1236,1251,1500,1501,10409,801
193239,17,0.43,-3.39,-2.34,0.282,0.062,0.702,2.18,2.00,0.00,2.25,-2.18,0.25,0.00,-7.75,1.17,-8.18,4.55,0.00,0.05,1.46,24.40,1238,1252,1253,1236,1228,1500,1525,10400,801
193251,17,1.46,7.15,-2.26,0.114,0.081,1.001,1.69,1.03,0.00,0.00,-1.69,-1.03,0.00,-6.02,-3.30,-7.48,-10.45,0.00,-0.35,-4.42,21.28,1238,1252,1253,1236,1257,1500,1500,10392,801
193263,17,6.17,-5.06,-2.12,0.462,0.128,0.658,2.13,1.92,0.00,0.00,-2.13,-1.92,0.00,-7.59,-6.42,-13.76,-1.36,0.00,-3.04,2.51,16.42,1238,1252,1253,1236,1257,1500,1500,10392,801
193275,17,6.50,-6.49,-0.37,-0.088,-0.126,0.980,1.53,1.38,0.00,0.00,-1.53,-1.38,0.00,-5.51,-4.58,-12.01,1.90,0.00,-3.51,2.18,-8.21,1238,1252,1253,1236,1258,1500,1499,10392,801
193287,17,5.97,1.15,-1.68,-0.150,-0.253,0.977,1.25,-0.22,0.00,0.00,-1.25,0.22,0.00,-4.56,1.03,-10.53,-0.12,0.00,-3.19,0.57,8.62,1238,1252,1253,1236,1258,1500,1499,10400,801
193299,17,-6.83,-1.84,-3.20,-0.415,-0.284,1.014,2.31,1.32,0.00,0.00,-2.31,-1.32,0.00,-8.27,-4.39,-1.44,-2.55,0.00,3.07,1.78,22.43,1238,1252,1253,1236,1258,1500,1502,10388,801
193311,17,-8.20,11.78,-3.94,-0.315,0.062,1.100,3.17,-0.28,0.00,0.00,-3.17,0.28,0.00,-11.33,1.19,-3.14,-10.59,0.00,3.88,-4.20,28.18,1226,1288,1285,1236,1260,1500,1500,10388,803
193323,17,-3.92,6.37,-3.74,0.062,0.225,0.667,5.57,1.32,0.00,0.00,-5.57,-1.32,0.00,-19.75,-4.41,-15.83,-10.79,0.00,1.97,-1.44,21.43,1226,1288,1285,1236,1260,1500,1500,10375,803
193335,17,2.44,10.36,-1.64,-0.000,0.257,0.892,4.01,2.08,0.00,1.89,-4.01,-0.19,0.00,-14.34,-0.43,-16.78,-10.79,0.00,-0.88,-5.22,-2.93,1226,1288,1285,1236,1241,1500,1521,10375,803
193347,17,5.27,7.66,-1.58,0.513,0.264,0.749,3.81,1.41,0.00,1.89,-3.81,0.48,0.00,-13.66,1.91,-18.93,-5.74,0.00,-2.46,-2.77,1.91,1226,1288,1285,1236,1241,1500,1521,10375,803
193359,17,8.21,-4.07,0.41,0.457,0.088,0.642,2.77,2.11,0.00,2.25,-2.77,0.14,0.00,-10.07,0.76,-18.28,4.83,0.00,-4.40,2.25,-17.71,1226,1288,1285,1236,1239,1500,1525,10384,803
193371,17,7.05,-3.83,0.86,0.117,-0.206,0.819,1.51,-0.45,0.00,0.00,-1.51,0.45,0.00,-5.67,1.83,-12.73,5.66,0.00,-4.40,2.88,-14.19,1226,1288,1285,1236,1264,1500,1500,10384,803
193383,17,1.33,-11.17,-0.56,0.016,-0.382,0.823,1.70,-0.06,0.00,0.00,-1.70,0.06,0.00,-6.36,0.47,-7.69,11.65,0.00,-2.01,6.67,6.55,1226,1288,1285,1236,1264,1500,1500,10388,803
193395,17,-5.30,-0.95,0.15,-0.385,-0.532,1.064,1.57,-0.74,0.00,0.00,-1.57,0.74,0.00,-5.94,2.84,-0.64,3.79,0.00,1.28,1.71,-2.20,1226,1288,1285,1236,1266,1500,1501,10388,803
193407,17,-8.71,7.07,-1.27,-0.312,-0.247,1.014,1.96,-0.26,0.00,0.00,-1.96,0.26,0.00,-7.34,1.15,1.37,-5.92,0.00,3.16,-1.90,16.18,1226,1288,1285,1236,1266,1500,1501,10388,803
193419,17,-9.22,8.29,-2.75,-0.160,-0.066,0.954,2.86,1.45,0.00,2.25,-2.86,0.80,0.00,-10.49,3.07,-1.27,-5.22,0.00,3.58,-3.34,26.48,1233,1273,1276,1224,1246,1500,1525,10359,802
193431,17,-6.53,10.42,-1.81,-0.005,0.043,0.905,1.81,0.75,0.00,0.00,-1.81,-0.75,0.00,-6.84,-2.35,-0.31,-12.77,0.00,2.62,-4.89,8.52,1233,1273,1276,1224,1264,1500,1508,10359,802
193443,17,-0.96,2.49,-3.12,0.355,0.286,0.693,2.72,1.00,0.00,0.00,-2.72,-1.00,0.00,-10.02,-3.22,-9.06,-5.71,0.00,0.12,-0.57,22.68,1233,1273,1276,1224,1264,1500,1508,10350,802
193455,17,4.24,-7.53,-3.58,0.275,0.237,0.725,2.92,1.37,0.00,0.00,-2.92,-1.37,0.00,-10.74,-4.53,-14.98,3.01,0.00,-2.10,3.01,22.52,1233,1273,1276,1224,1276,1500,1501,10342,802
193467,17,6.93,-4.69,-2.46,0.064,0.052,0.930,1.84,-0.36,0.00,0.00,-1.84,0.36,0.00,-6.99,1.52,-13.92,6.21,0.00,-3.20,2.03,7.69,1233,1273,1276,1224,1276,1500,1501,10355,802
193479,17,9.02,-5.23,-3.38,0.051,0.108,0.866,2.15,-0.64,0.00,2.16,-2.15,2.80,0.00,-8.09,10.10,-17.11,15.33,0.00,-4.00,3.08,21.40,1233,1273,1276,1224,1255,1500,1524,10359,802
193491,17,7.36,-7.41,-3.12,-0.176,-0.174,1.021,2.01,-0.23,0.00,0.00,-2.01,0.23,0.00,-7.62,1.09,-14.99,8.50,0.00,-3.03,3.07,15.35,1233,1273,1276,1224,1279,1500,1501,10355,802
193503,17,4.26,-1.43,-2.68,-0.154,-0.265,1.112,1.24,0.03,0.00,0.00,-1.24,-0.03,0.00,-4.97,0.21,-9.23,1.64,0.00,-1.63,-0.15,12.42,1233,1273,1276,1224,1279,1500,1501,10338,802
193515,17,2.81,1.67,-3.30,-0.037,-0.253,0.840,1.08,0.78,0.00,0.00,-1.08,-0.78,0.00,-4.42,-2.42,-7.24,-4.09,0.00,-1.06,-1.77,21.25,1266,1288,1290,1269,1279,1500,1501,10346,803
193527,17,-0.39,1.65,-4.04,0.003,-0.171,0.729,1.38,1.41,0.00,0.00,-1.38,-1.41,0.00,-5.49,-4.65,-5.10,-6.30,0.00,0.21,-1.85,28.25,1266,1288,1290,1269,1279,1500,1501,10338,803
193539,17,0.11,4.08,-4.72,0.099,-0.178,0.855,1.46,0.87,0.00,2.25,-1.46,1.38,0.00,-5.78,5.14,-5.90,1.07,0.00,-0.24,-2.19,31.79,1266,1288,1290,1269,1255,1500,1525,10338,803
193551,17,-3.71,3.53,-5.91,0.174,-0.192,0.829,1.73,1.71,0.00,0.00,-1.73,-1.71,0.00,-6.74,-5.69,-3.03,-9.22,0.00,1.02,-1.89,39.79,1266,1288,1290,1269,1281,1500,1500,10342,803
193563,17,-10.77,2.76,-7.70,0.173,-0.155,0.780,1.79,1.38,0.00,0.00,-1.79,-1.38,0.00,-6.98,-4.54,3.78,-7.29,0.00,3.82,-0.70,54.67,1266,1288,1290,1269,1281,1500,1500,10342,803
193575,17,-13.88,0.96,-8.70,0.112,-0.115,0.797,1.36,2.08,0.00,0.00,-1.36,-2.08,0.00,-5.50,-7.00,8.38,-7.96,0.00,4.96,0.15,57.57,1266,1288,1290,1269,1280,1500,1502,10359,803
193587,17,-13.91,1.49,-10.01,-0.024,0.071,0.783,1.55,1.04,0.00,0.00,-1.55,-1.04,0.00,-6.16,-3.38,7.75,-4.87,0.00,4.68,0.43,65.92,1266,1288,1290,1269,1280,1500,1502,10346,803
193599,17,-10.85,3.72,-11.40,-0.087,0.265,0.858,2.39,-0.60,0.00,2.07,-2.39,2.67,0.00,-9.11,9.61,1.74,5.88,0.00,3.31,0.73,74.54,1266,1288,1290,1269,1260,1500,1523,10338,803
193611,17,-5.39,0.13,-10.38,0.144,0.342,0.773,2.55,0.95,0.00,0.00,-2.55,-0.95,0.00,-9.68,-3.04,-4.29,-3.18,0.00,0.96,1.93,55.31,1219,1330,1329,1216,1280,1500,1503,10355,803
193623,17,1.12,-3.23,-8.55,0.134,0.367,0.873,1.50,2.46,0.00,0.00,-1.50,-2.46,0.00,-6.02,-8.36,-7.14,-5.13,0.00,-1.93,1.82,32.41,1219,1330,1329,1216,1280,1500,1503,10338,803
193635,17,8.51,4.84,-7.76,-0.054,0.280,0.976,0.46,1.08,0.00,0.00,-0.46,-1.08,0.00,-2.37,-3.53,-10.88,-8.36,0.00,-5.42,-2.17,26.31,1219,1330,1329,1216,1282,1500,1502,10355,803
193647,17,10.52,2.31,-8.24,-0.018,0.006,0.954,0.03,-1.41,0.00,0.00,-0.03,1.41,0.00,-0.85,5.21,-11.37,2.90,0.00,-6.17,0.02,34.50,1219,1330,1329,1216,1282,1500,1502,10338,803
193659,17,8.79,-1.13,-8.95,0.033,-0.164,0.912,0.07,-2.92,0.00,2.16,-0.07,5.08,0.00,-1.00,18.07,-9.79,19.20,0.00,-4.93,3.13,44.74,1219,1330,1329,1216,1262,1500,1524,10325,803
193671,17,7.28,-11.44,-8.99,0.138,-0.316,0.724,0.21,-1.24,0.00,0.00,-0.21,1.24,0.00,-1.51,4.67,-8.79,16.11,0.00,-3.59,6.65,45.53,1219,1330,1329,1216,1283,1500,1503,10317,803
193683,17,0.34,-10.28,-7.54,-0.370,-0.411,1.076,0.73,-0.89,0.00,0.00,-0.73,0.89,0.00,-3.35,3.45,-3.69,13.73,0.00,0.43,4.11,30.40,1219,1330,1329,1216,1283,1500,1503,10321,803
193695,17,-2.06,-3.06,-5.91,-0.282,-0.290,1.050,0.83,-0.90,0.00,0.00,-0.83,0.90,0.00,-3.71,3.48,-1.65,6.54,0.00,2.22,0.48,17.99,1219,1330,1329,1216,1284,1500,1502,10330,803
193707,17,-0.13,2.56,-4.64,-0.400,0.040,1.084,1.79,-1.05,0.00,0.00,-1.79,1.05,0.00,-7.09,4.01,-6.96,1.45,0.00,1.83,-2.82,10.76,1219,1330,1329,1216,1284,1500,1502,10338,803
193719,17,2.14,1.85,-4.56,-0.137,0.273,0.966,2.66,-1.57,0.00,0.00,-2.66,1.57,0.00,-10.14,5.82,-12.28,3.97,0.00,1.06,-2.26,13.67,1267,1305,1308,1263,1287,1500,1500,10325,803
193731,17,4.69,1.35,-6.47,0.081,0.278,0.888,3.69,0.14,0.00,0.00,-3.69,-0.14,0.00,-13.76,-0.15,-18.45,-1.50,0.00,-0.33,-1.82,35.64,1267,1305,1308,1263,1285,1500,1502,10317,803
193743,17,3.65,3.86,-5.51,0.047,0.185,0.845,2.64,2.16,0.00,0.00,-2.64,-2.16,0.00,-10.11,-7.22,-13.76,-11.08,0.00,-0.38,-3.19,21.06,1267,1305,1308,1263,1285,1500,1502,10321,803
193755,17,4.41,2.46,-4.90,0.142,0.107,0.724,0.86,4.32,0.00,0.00,-0.86,-4.32,0.00,-3.88,-14.84,-8.29,-17.30,0.00,-1.62,-2.13,15.21,1267,1305,1308,1263,1285,1500,1502,10313,803
193767,17,6.03,0.26,-4.85,-0.015,0.050,0.882,-0.63,6.23,0.00,0.00,0.63,-6.23,0.00,1.32,-21.55,-4.71,-21.81,0.00,-2.96,-1.61,17.37,1267,1305,1308,1263,1285,1500,1502,10321,803
193779,17,4.10,4.05,-6.93,-0.220,-0.025,1.118,-0.84,4.95,0.00,2.16,0.84,-2.79,0.00,2.04,-9.58,-2.06,-13.63,0.00,-2.61,-2.76,43.10,1267,1305,1308,1263,1263,1500,1524,10321,803
193791,17,5.04,5.38,-6.43,-0.143,-0.050,1.064,-1.04,3.90,0.00,0.00,1.04,-3.90,0.00,2.78,-13.47,-2.26,-18.85,0.00,-3.30,-3.25,34.38,1267,1305,1308,1263,1284,1500,1503,10321,803
193803,17,2.67,10.61,-6.64,-0.087,-0.151,0.947,-0.55,2.42,0.00,0.00,0.55,-2.42,0.00,1.06,-8.32,-1.61,-18.93,0.00,-2.74,-4.82,35.76,1267,1305,1308,1263,1284,1500,1503,10313,803
193815,17,1.13,8.37,-6.81,0.013,-0.308,0.848,-0.77,0.74,0.00,2.43,0.77,1.69,0.00,1.82,6.05,0.70,-2.32,0.00,-2.26,-2.08,36.03,1226,1302,1307,1234,1261,1500,1527,10321,803
193827,17,-3.95,8.02,-6.91,-0.101,-0.406,0.886,-0.70,-1.46,0.00,2.43,0.70,3.89,0.00,1.59,13.78,5.53,5.77,0.00,-0.51,-0.85,34.19,1226,1302,1307,1234,1261,1500,1527,10338,803
193839,17,-5.61,9.59,-6.85,-0.207,-0.507,0.868,-0.06,-3.66,0.00,2.16,0.06,5.82,0.00,-0.68,20.59,4.93,11.00,0.00,-0.00,-0.73,32.22,1226,1302,1307,1234,1264,1500,1524,10330,803
193851,17,-10.58,8.72,-6.58,-0.241,-0.349,0.898,1.59,-5.38,0.00,0.00,-1.59,5.38,0.00,-6.46,19.11,4.13,10.39,0.00,2.54,0.38,29.98,1226,1302,1307,1234,1287,1500,1502,10330,803
193863,17,-13.04,5.54,-5.83,-0.229,-0.204,1.033,2.90,-4.72,0.00,0.00,-2.90,4.72,0.00,-11.07,16.85,1.97,11.31,0.00,3.86,1.66,22.06,1226,1302,1307,1234,1287,1500,1502,10342,803
193875,17,-10.01,10.42,-6.44,-0.063,0.024,0.987,3.47,-2.78,0.00,0.00,-3.47,2.78,0.00,-13.10,10.10,-3.09,-0.32,0.00,2.95,-1.33,31.46,1226,1302,1307,1234,1289,1500,1501,10359,803
193887,17,-5.72,2.47,-6.07,0.047,0.115,0.841,3.48,0.13,0.00,0.00,-3.48,-0.13,0.00,-13.18,-0.09,-7.46,-2.55,0.00,1.40,0.71,27.80,1226,1302,1307,1234,1289,1500,1501,10342,803
193899,17,-0.53,7.65,-5.65,-0.058,0.188,0.954,2.68,-0.38,0.00,2.07,-2.68,2.45,0.00,-10.38,8.98,-9.85,1.33,0.00,-0.69,-2.74,25.28,1226,1302,1307,1234,1267,1500,1523,10325,803
193911,17,6.69,11.01,-4.63,0.272,0.145,0.814,1.82,-0.54,0.00,2.34,-1.82,2.88,0.00,-7.40,10.53,-14.09,-0.48,0.00,-3.91,-3.58,15.09,1248,1287,1278,1247,1265,1500,1526,10325,838
193923,17,10.93,-1.32,-4.71,0.622,-0.040,0.535,0.81,2.78,0.00,2.34,-0.81,-0.44,0.00,-3.88,-1.09,-14.81,0.23,0.00,-5.67,1.05,18.19,1248,1287,1278,1247,1265,1500,1526,10321,838
193935,17,11.40,-7.52,-3.92,0.562,-0.314,0.600,-1.17,4.81,0.00,0.00,1.17,-4.81,0.00,3.03,-16.39,-8.37,-8.87,0.00,-5.29,1.78,11.87,1248,1287,1278,1247,1291,1500,1500,10296,838
193947,17,8.56,-11.21,-3.85,0.399,-0.465,0.651,-2.59,4.86,0.00,0.00,2.59,-4.86,0.00,8.03,-16.62,-0.53,-5.41,0.00,-3.63,2.80,16.78,1248,1287,1278,1247,1291,1500,1500,10305,838
193959,17,4.54,-18.77,-3.14,0.265,-0.530,0.685,-3.14,4.44,0.00,2.52,3.14,-1.92,0.00,9.97,-6.34,5.43,12.43,0.00,-1.24,5.69,13.27,1248,1287,1278,1247,1270,1500,1528,10334,838
193971,17,0.96,-9.54,-3.05,-0.084,-0.504,0.940,-2.55,0.84,0.00,0.00,2.55,-0.84,0.00,7.92,-2.55,6.96,6.98,0.00,0.73,1.57,17.45,1248,1287,1278,1247,1296,1500,1502,10338,838
193983,17,-4.49,-3.02,-5.45,-0.098,-0.368,0.915,-0.87,-2.18,0.00,0.00,0.87,2.18,0.00,2.02,8.03,6.51,11.05,0.00,3.42,0.49,47.56,1248,1287,1278,1247,1296,1500,1502,10342,838
193995,17,-6.97,-0.39,-7.20,-0.136,-0.181,0.972,1.56,-4.23,0.00,0.00,-1.56,4.23,0.00,-6.46,15.25,0.51,15.65,0.00,4.53,0.48,61.80,1248,1287,1278,1247,1298,1500,1501,10346,838
194007,17,-7.95,1.65,-6.91,0.032,-0.117,0.907,2.23,-5.30,0.00,0.00,-2.23,5.30,0.00,-8.86,19.03,-0.91,17.38,0.00,4.99,0.78,48.64,1248,1287,1278,1247,1298,1500,1501,10338,838
194019,17,-4.14,-2.27,-5.53,0.154,0.071,0.829,2.09,-4.34,0.00,0.00,-2.09,4.34,0.00,-8.35,15.73,-4.21,18.01,0.00,3.16,2.86,26.49,1254,1336,1332,1253,1293,1500,1506,10288,834
194031,17,-2.39,-12.85,-5.82,0.277,0.134,0.647,1.85,-1.22,0.00,0.00,-1.85,1.22,0.00,-7.52,4.83,-5.13,17.68,0.00,2.34,6.39,26.99,1254,1336,1332,1253,1299,1500,1501,10288,834
194043,17,-2.13,-12.68,-6.58,0.048,0.122,0.862,1.11,-0.31,0.00,0.00,-1.11,0.31,0.00,-4.96,1.64,-2.83,14.32,0.00,2.07,4.89,33.75,1254,1336,1332,1253,1299,1500,1501,10280,834
194055,17,-2.02,-11.14,-7.14,-0.086,0.225,0.862,1.09,-0.08,0.00,0.00,-1.09,0.08,0.00,-4.87,0.84,-2.85,11.98,0.00,2.02,3.65,38.24,1254,1336,1332,1253,1300,1500,1503,10300,834
194067,17,-0.41,-9.97,-7.03,-0.260,0.295,0.950,0.80,-0.51,0.00,0.00,-0.80,0.51,0.00,-3.88,2.32,-3.47,12.29,0.00,1.22,2.79,34.95,1254,1336,1332,1253,1300,1500,1503,10288,834
194079,17,2.38,-3.44,-7.41,-0.384,0.343,1.142,0.48,-1.22,0.00,1.98,-0.48,3.20,0.00,-2.74,11.76,-5.12,15.19,0.00,0.01,0.37,39.55,1254,1336,1332,1253,1281,1500,1522,10292,834
194091,17,4.47,2.07,-7.69,-0.404,0.379,1.197,0.27,-2.08,0.00,0.00,-0.27,2.08,0.00,-1.98,7.86,-6.45,5.79,0.00,-1.20,-2.07,42.10,1254,1336,1332,1253,1302,1500,1503,10284,834
194103,17,7.22,3.16,-7.82,-0.207,0.402,1.128,0.68,-3.53,0.00,0.00,-0.68,3.53,0.00,-3.44,12.96,-10.66,9.80,0.00,-2.47,-1.37,43.37,1254,1336,1332,1253,1302,1500,1503,10275,834
194115,17,9.68,10.39,-6.90,-0.169,0.170,1.170,-0.68,-4.33,0.00,0.00,0.68,4.33,0.00,1.33,15.80,-8.35,5.41,0.00,-3.65,-4.23,31.56,1265,1320,1321,1264,1289,1500,1516,10275,835
194127,17,10.91,-0.02,-6.24,0.113,0.150,0.861,0.16,-4.74,0.00,0.00,-0.16,4.74,0.00,-1.61,17.30,-12.52,17.32,0.00,-4.56,1.65,24.99,1265,1320,1321,1264,1289,1500,1516,10275,835
194139,17,10.62,-4.57,-5.26,0.059,-0.132,0.894,0.00,-4.50,0.00,1.98,-0.00,6.48,0.00,-1.06,23.45,-11.68,28.02,0.00,-5.09,3.25,15.33,1265,1320,1321,1264,1284,1500,1522,10280,835
194151,17,5.70,-0.28,-6.36,-0.001,-0.332,0.886,-0.22,-4.95,0.00,0.00,0.22,4.95,0.00,-0.30,18.13,-6.00,18.41,0.00,-3.08,1.90,32.08,1265,1320,1321,1264,1306,1500,1501,10271,835
194163,17,-3.19,-5.30,-6.69,0.099,-0.305,0.862,0.68,-3.53,0.00,0.00,-0.68,3.53,0.00,-3.45,13.20,-0.26,18.51,0.00,0.81,4.68,38.14,1265,1320,1321,1264,1306,1500,1501,10271,835
194175,17,-4.27,-5.05,-6.59,0.260,-0.360,0.819,0.80,-1.30,0.00,0.00,-0.80,1.30,0.00,-3.89,5.41,0.38,10.46,0.00,0.65,4.74,38.01,1265,1320,1321,1264,1308,1500,1500,10288,835
194187,17,-10.78,-8.66,-5.82,0.055,-0.293,0.860,2.11,1.47,0.00,0.00,-2.11,-1.47,0.00,-8.50,-4.29,2.28,4.37,0.00,3.39,5.22,31.64,1265,1320,1321,1264,1308,1500,1500,10280,835
194199,17,-14.19,-8.14,-4.08,0.067,-0.344,0.932,1.83,3.69,0.00,1.89,-1.83,-1.80,0.00,-7.54,-5.46,6.65,2.67,0.00,4.84,4.52,16.02,1265,1320,1321,1264,1287,1500,1521,10267,835
194211,17,-15.36,-10.02,-3.63,0.180,-0.236,0.843,1.34,7.63,0.00,0.00,-1.34,-7.63,0.00,-5.85,-25.92,9.51,-15.90,0.00,5.20,3.65,18.41,1279,1293,1304,1281,1291,1492,1517,10263,862
194223,17,-16.92,-9.43,-4.72,0.090,-0.107,0.874,0.75,9.89,0.00,0.00,-0.75,-9.89,0.00,-3.79,-33.94,13.13,-24.50,0.00,5.81,2.14,36.18,1279,1293,1304,1281,1291,1492,1517,10259,862
194235,17,-16.94,-6.16,-5.72,0.037,-0.020,0.861,-0.01,10.31,0.00,0.00,0.01,-10.31,0.00,-1.12,-35.51,15.81,-29.36,0.00,5.65,0.30,46.69,1279,1293,1304,1281,1308,1500,1501,10275,862
194247,17,-16.21,-5.56,-5.80,-0.041,0.072,0.908,-0.67,8.98,0.00,0.00,0.67,-8.98,0.00,1.21,-30.94,17.42,-25.38,0.00,5.25,0.68,42.57,1279,1293,1304,1281,1308,1500,1501,10292,862
194259,17,-14.57,-3.39,-5.42,-0.166,0.049,0.925,-1.62,7.27,0.00,1.98,1.62,-5.29,0.00,4.55,-18.10,19.12,-14.71,0.00,4.58,0.95,33.13,1279,1293,1304,1281,1288,1500,1522,10296,862
194271,17,-12.24,-1.62,-6.73,-0.161,0.079,0.985,-1.52,4.86,0.00,0.00,1.52,-4.86,0.00,4.22,-16.64,16.46,-15.03,0.00,3.50,1.06,44.48,1279,1293,1304,1281,1309,1500,1501,10296,862
194283,17,-13.04,-1.39,-6.69,-0.172,0.066,1.016,-2.14,3.46,0.00,0.00,2.14,-3.46,0.00,6.43,-11.79,19.47,-10.40,0.00,4.10,1.54,39.57,1279,1293,1304,1281,1309,1500,1501,10296,862
194295,17,-11.99,-1.24,-7.79,-0.222,0.184,1.038,-1.84,3.18,0.00,0.00,1.84,-3.18,0.00,5.42,-10.85,17.40,-9.61,0.00,3.68,1.38,48.38,1279,1293,1304,1281,1308,1500,1502,10284,862
194307,17,-13.78,-3.15,-9.16,-0.383,0.327,1.085,-0.55,1.96,0.00,0.00,0.55,-1.96,0.00,0.92,-6.62,14.70,-3.46,0.00,4.77,2.43,59.67,1279,1293,1304,1281,1308,1500,1502,10300,862
194319,17,-14.27,2.22,-9.35,-0.460,0.466,1.161,0.51,0.48,0.00,0.00,-0.51,-0.48,0.00,-2.77,-1.45,11.50,-3.67,0.00,5.00,0.08,55.88,1251,1361,1364,1250,1307,1500,1506,10284,952
194331,17,-8.92,6.45,-9.72,-0.632,0.545,1.178,0.94,-1.32,0.00,0.00,-0.94,1.32,0.00,-4.28,4.85,4.63,-1.60,0.00,2.97,-1.34,57.04,1251,1361,1364,1250,1295,1500,1518,10275,952
194343,17,-8.83,2.18,-10.04,-0.607,0.603,1.205,1.22,-1.79,0.00,0.00,-1.22,1.79,0.00,-5.24,6.48,3.58,4.30,0.00,3.48,0.38,59.28,1251,1361,1364,1250,1295,1500,1518,10288,952
194355,17,-2.24,5.79,-9.67,-0.396,0.651,1.062,1.29,-2.93,0.00,0.00,-1.29,2.93,0.00,-5.46,10.50,-3.23,4.71,0.00,0.90,-1.35,53.82,1251,1361,1364,1250,1318,1500,1501,10292,952
194367,17,1.86,4.33,-8.92,-0.305,0.678,1.089,1.64,-4.41,0.00,0.00,-1.64,4.41,0.00,-6.71,15.73,-8.57,11.41,0.00,-0.17,-0.25,45.21,1251,1361,1364,1250,1318,1500,1501,10280,952
194379,17,7.06,-1.25,-8.84,0.070,0.537,0.912,1.72,-3.77,0.00,2.07,-1.72,5.84,0.00,-7.00,20.77,-14.06,22.02,0.00,-2.68,1.99,44.12,1251,1361,1364,1250,1297,1500,1523,10280,952
194391,17,8.59,-6.80,-8.02,0.135,0.310,0.852,1.60,-3.44,0.00,0.00,-1.60,3.44,0.00,-6.59,12.44,-15.18,19.25,0.00,-3.10,3.34,33.83,1251,1361,1364,1250,1319,1500,1501,10284,952
194403,17,7.72,-7.51,-8.86,0.135,0.103,0.844,1.92,-4.62,0.00,0.00,-1.92,4.62,0.00,-7.70,16.62,-15.42,24.13,0.00,-2.97,3.30,43.69,1251,1361,1364,1250,1319,1500,1501,10271,952
194415,17,5.06,-8.62,-8.86,0.138,-0.168,0.857,1.21,-5.31,0.00,2.97,-1.21,8.28,0.00,-5.25,29.50,-10.31,38.11,0.00,-2.20,3.98,43.20,1249,1341,1347,1247,1287,1500,1533,10271,920
194427,17,2.59,-9.17,-9.20,0.386,-0.259,0.731,0.77,-3.87,0.00,2.97,-0.77,6.84,0.00,-3.74,24.53,-6.32,33.71,0.00,-0.97,4.49,49.26,1249,1341,1347,1247,1287,1500,1533,10263,920
194439,17,-0.24,-8.63,-8.37,0.235,-0.355,0.696,0.31,-2.47,0.00,0.00,-0.31,2.47,0.00,-2.12,9.26,-1.88,17.88,0.00,0.50,3.54,39.44,1249,1341,1347,1247,1318,1500,1502,10271,920
194451,17,-2.28,-1.89,-7.78,0.017,-0.431,0.835,0.29,-3.94,0.00,2.97,-0.29,6.91,0.00,-2.07,24.84,0.21,26.73,0.00,1.32,2.13,35.53,1249,1341,1347,1247,1287,1500,1533,10271,920
194463,17,-2.01,3.65,-7.74,0.017,-0.482,0.805,0.06,-5.49,0.00,2.97,-0.06,8.46,0.00,-1.29,30.36,0.72,26.71,0.00,0.96,1.51,38.49,1249,1341,1347,1247,1287,1500,1533,10280,920
194475,17,-5.12,3.65,-7.98,0.064,-0.557,0.906,0.28,-5.87,0.00,2.97,-0.28,8.84,0.00,-2.05,31.77,3.07,28.12,0.00,2.29,2.45,43.29,1249,1341,1347,1247,1287,1500,1533,10263,920
194487,17,-7.04,4.07,-8.49,-0.001,-0.523,0.980,0.58,-6.17,0.00,2.97,-0.58,9.14,0.00,-3.14,32.91,3.90,28.84,0.00,2.66,2.28,49.74,1249,1341,1347,1247,1287,1500,1533,10280,920
194499,17,-6.94,7.82,-7.33,0.016,-0.433,0.983,0.43,-7.07,0.00,1.98,-0.43,9.05,0.00,-2.62,32.68,4.31,24.86,0.00,2.14,0.16,33.79,1249,1341,1347,1247,1299,1500,1522,10288,920
194511,17,-6.01,7.71,-5.63,-0.064,-0.419,0.944,0.19,-7.74,0.00,2.97,-0.19,10.71,0.00,-1.77,38.58,4.24,30.87,0.00,1.28,0.40,13.56,1270,1309,1313,1271,1288,1500,1533,10305,803
194523,17,-7.47,8.81,-5.35,0.032,-0.520,0.817,-0.57,-8.06,0.00,2.97,0.57,11.03,0.00,0.87,39.81,8.34,31.00,0.00,1.60,0.65,12.35,1270,1309,1313,1271,1288,1500,1533,10305,803
194535,17,-4.57,4.38,-4.36,0.069,-0.436,0.824,-0.97,-7.44,0.00,2.97,0.97,10.41,0.00,2.28,37.74,6.85,33.36,0.00,0.41,2.28,4.94,1270,1309,1313,1271,1287,1500,1533,10305,803
194547,17,-4.08,-0.01,-4.15,-0.068,-0.374,0.813,-1.30,-6.03,0.00,2.97,1.30,9.00,0.00,3.42,32.91,7.50,32.92,0.00,0.94,2.27,8.38,1270,1309,1313,1271,1287,1500,1533,10305,803
194559,17,-3.71,-2.24,-5.09,-0.263,-0.098,0.859,-0.50,-6.39,0.00,1.89,0.50,8.28,0.00,0.65,30.45,4.36,32.68,0.00,1.70,2.01,23.85,1270,1309,1313,1271,1300,1500,1521,10305,803
194571,17,-3.50,4.08,-5.40,-0.348,0.103,0.923,0.02,-7.32,0.00,2.97,-0.02,10.29,0.00,-1.17,37.57,2.33,33.49,0.00,2.01,-0.99,27.66,1270,1309,1313,1271,1288,1500,1533,10296,803
194583,17,-0.46,3.76,-6.09,-0.143,0.249,0.840,0.48,-5.21,0.00,2.97,-0.48,8.18,0.00,-2.79,30.29,-2.33,26.52,0.00,0.45,-1.51,33.79,1270,1309,1313,1271,1288,1500,1533,10305,803
194595,17,2.88,4.47,-6.06,-0.039,0.376,0.892,0.52,-3.04,0.00,2.97,-0.52,6.01,0.00,-2.92,22.74,-5.80,18.27,0.00,-1.15,-2.56,30.68,1270,1309,1313,1271,1288,1500,1533,10292,803
194607,17,9.10,13.73,-5.37,-0.018,0.430,0.921,0.89,-3.33,0.00,2.97,-0.89,6.30,0.00,-4.19,23.82,-13.29,10.10,0.00,-4.52,-6.13,19.69,1270,1309,1313,1271,1288,1500,1533,10305,803
194619,17,14.13,14.68,-5.11,0.090,0.305,0.924,1.18,-3.69,0.00,1.98,-1.18,5.67,0.00,-5.24,21.69,-19.38,7.01,0.00,-7.03,-5.27,15.09,1252,1333,1336,1260,1299,1500,1522,10300,803
194631,17,17.01,11.42,-4.35,0.098,0.163,0.848,0.64,-3.43,0.00,0.00,-0.64,3.43,0.00,-3.34,13.91,-20.34,2.49,0.00,-8.55,-3.36,6.01,1252,1333,1336,1260,1311,1500,1510,10309,803
194643,17,18.31,10.30,-4.27,0.200,0.007,0.766,-0.02,-3.05,0.00,0.00,0.02,3.05,0.00,-1.04,12.62,-19.35,2.32,0.00,-9.07,-2.57,5.87,1252,1333,1336,1260,1311,1500,1510,10309,803
194655,17,14.04,3.07,-4.77,0.416,-0.227,0.638,-1.09,-0.56,0.00,2.97,1.09,3.53,0.00,2.71,14.32,-11.32,11.25,0.00,-7.11,0.25,15.11,1252,1333,1336,1260,1290,1500,1533,10288,803
194667,17,15.47,-7.81,-4.59,0.549,-0.327,0.550,-2.07,3.29,0.00,2.97,2.07,-0.32,0.00,6.12,0.87,-9.35,8.67,0.00,-7.71,2.76,16.81,1252,1333,1336,1260,1290,1500,1533,10292,803
194679,17,7.63,-12.84,-5.20,0.038,-0.342,0.877,-1.99,4.29,0.00,1.98,1.99,-2.31,0.00,5.86,-6.11,-1.77,6.73,0.00,-3.43,2.77,26.33,1252,1333,1336,1260,1306,1500,1522,10288,803
194691,17,3.42,1.96,-7.19,-0.022,-0.356,0.961,-2.29,1.84,0.00,2.88,2.29,1.04,0.00,6.90,5.61,3.49,3.65,0.00,-1.86,-2.52,49.82,1252,1333,1336,1260,1297,1501,1532,10284,803
194703,17,1.58,3.39,-5.11,-0.032,-0.395,0.923,-3.12,1.14,0.00,2.88,3.12,1.74,0.00,9.83,8.05,8.25,4.66,0.00,-1.16,-2.27,21.67,1252,1333,1336,1260,1297,1501,1532,10271,803
194715,17,1.80,0.28,-4.70,0.177,-0.319,0.775,-3.49,3.07,0.00,2.88,3.49,-0.19,0.00,11.15,1.33,9.35,1.05,0.00,-1.34,-0.97,21.32,1294,1299,1304,1296,1299,1500,1532,10288,802
194727,17,0.94,0.37,-5.44,0.288,-0.204,0.601,-2.49,6.59,0.00,2.88,2.49,-3.71,0.00,7.69,-11.04,6.75,-11.42,0.00,-1.30,-2.22,33.89,1294,1299,1304,1296,1299,1500,1532,10275,802
194739,17,2.63,-2.35,-4.61,0.187,-0.171,0.709,-1.78,6.08,0.00,0.00,1.78,-6.08,0.00,5.20,-19.37,2.57,-17.02,0.00,-2.02,-2.08,24.74,1294,1299,1304,1296,1315,1500,1516,10280,802
194751,17,4.19,-10.46,-4.58,0.096,-0.258,0.759,-1.92,4.84,0.00,2.88,1.92,-1.96,0.00,5.70,-5.01,1.51,5.45,0.00,-2.26,1.25,24.93,1294,1299,1304,1296,1302,1500,1532,10284,802
194763,17,5.21,-3.28,-4.53,-0.224,-0.228,0.984,-1.97,0.39,0.00,2.88,1.97,2.49,0.00,5.90,10.59,0.68,13.87,0.00,-1.93,-0.95,24.88,1294,1299,1304,1296,1302,1500,1532,10275,802
194775,17,3.86,1.27,-4.56,-0.197,-0.325,1.129,-2.24,-2.15,0.00,0.00,2.24,2.15,0.00,6.84,9.40,2.98,8.13,0.00,-0.89,-2.01,24.67,1294,1299,1304,1296,1331,1500,1503,10267,802
194787,17,-0.40,-1.69,-6.30,-0.129,-0.281,1.024,-2.15,-2.95,0.00,0.00,2.15,2.95,0.00,6.55,12.23,6.95,13.92,0.00,1.21,0.54,44.25,1294,1299,1304,1296,1331,1500,1503,10259,802
194799,17,-4.80,-3.83,-7.91,-0.207,-0.127,0.935,-1.56,-2.77,0.00,0.00,1.56,2.77,0.00,4.50,11.63,9.29,15.46,0.00,3.22,1.43,57.02,1294,1299,1304,1296,1316,1500,1519,10267,802
194811,17,-7.57,-0.56,-8.28,-0.351,-0.054,0.913,-1.12,-4.16,0.00,2.88,1.12,7.04,0.00,2.99,26.61,10.57,27.18,0.00,4.14,0.78,53.68,1252,1355,1360,1258,1303,1500,1532,10271,802
194823,17,-11.85,9.11,-8.67,-0.557,0.108,1.074,-0.29,-6.65,0.00,2.88,0.29,9.53,0.00,0.08,35.38,11.93,26.27,0.00,5.32,-2.40,53.65,1252,1355,1360,1258,1303,1500,1532,10259,802
194835,17,-9.68,9.81,-8.56,-0.624,0.157,1.210,-0.38,-9.23,0.00,0.00,0.38,9.23,0.00,0.40,34.42,10.08,24.61,0.00,3.79,-1.11,49.47,1252,1355,1360,1258,1316,1500,1519,10263,802
194847,17,-7.82,10.24,-8.96,-0.475,0.291,1.172,-0.50,-9.67,0.00,0.00,0.50,9.67,0.00,0.83,36.06,8.65,25.82,0.00,3.18,-0.54,54.88,1252,1355,1360,1258,1316,1500,1519,10259,802
194859,17,-4.27,6.64,-8.42,-0.349,0.337,1.152,-0.97,-7.95,0.00,0.00,0.97,7.95,0.00,2.52,30.12,6.79,23.48,0.00,1.88,0.04,48.53,1252,1355,1360,1258,1316,1500,1520,10250,802
194871,17,-0.13,3.06,-7.51,-0.036,0.463,0.859,-1.15,-4.68,0.00,2.88,1.15,7.56,0.00,3.19,28.80,3.32,25.74,0.00,0.64,0.71,41.50,1252,1355,1360,1258,1304,1500,1532,10259,802
194883,17,1.06,4.50,-6.02,-0.116,0.390,0.962,-2.41,-2.44,0.00,2.88,2.41,5.32,0.00,7.61,21.02,6.55,16.53,0.00,0.63,-1.43,26.12,1252,1355,1360,1258,1304,1500,1532,10259,802
194895,17,1.98,-1.16,-5.34,0.020,0.476,0.923,-2.03,-0.90,0.00,2.88,2.03,3.78,0.00,6.30,15.68,4.32,16.84,0.00,0.24,0.55,22.39,1252,1355,1360,1258,1304,1500,1532,10242,802
194907,17,6.70,0.65,-4.59,0.084,0.430,0.622,-1.19,0.35,0.00,2.88,1.19,2.53,0.00,3.41,11.33,-3.28,10.68,0.00,-1.93,-0.31,15.36,1252,1355,1360,1258,1304,1500,1532,10242,802
194919,17,4.54,1.77,-4.93,-0.090,0.348,0.833,0.07,-1.79,0.00,2.16,-0.07,3.95,0.00,-0.99,16.34,-5.53,14.57,0.00,-1.32,-0.26,21.01,1286,1328,1333,1291,1313,1500,1524,10259,802
194931,17,2.25,10.10,-5.76,-0.327,0.203,1.027,0.09,-5.72,0.00,0.00,-0.09,5.72,0.00,-1.06,22.58,-3.32,12.48,0.00,-0.88,-2.76,31.38,1286,1328,1333,1291,1332,1500,1505,10267,802
194943,17,0.34,14.64,-6.03,-0.342,0.102,1.074,0.37,-9.59,0.00,0.00,-0.37,9.59,0.00,-2.03,36.22,-2.37,21.57,0.00,-0.34,-2.23,30.50,1286,1328,1333,1291,1332,1500,1505,10263,802
194955,17,-1.63,7.61,-6.46,-0.204,0.086,1.018,0.67,-11.06,0.00,2.88,-0.67,13.94,0.00,-3.11,51.58,-1.47,43.97,0.00,0.09,2.31,34.69,1286,1328,1333,1291,1306,1500,1532,10263,802
194967,17,0.68,2.60,-4.75,-0.023,0.134,0.915,0.63,-10.83,0.00,2.88,-0.63,13.71,0.00,-2.94,50.89,-3.62,48.30,0.00,-1.31,4.27,14.94,1286,1328,1333,1291,1306,1500,1532,10255,802
194979,17,0.80,1.00,-2.92,0.008,0.080,0.887,0.31,-8.07,0.00,1.89,-0.31,9.96,0.00,-1.83,37.89,-2.63,36.89,0.00,-0.71,2.68,-0.96,1286,1328,1333,1291,1317,1500,1521,10267,802
194991,17,3.33,-3.44,-2.50,-0.008,0.180,0.779,0.30,-4.04,0.00,0.00,-0.30,4.04,0.00,-1.79,17.23,-5.12,20.67,0.00,-1.57,2.36,1.89,1286,1328,1333,1291,1343,1500,1500,10275,802
195003,17,8.32,-7.84,-1.59,0.162,0.046,0.861,-1.22,1.19,0.00,0.00,1.22,-1.19,0.00,3.52,-1.08,-4.80,6.77,0.00,-3.18,1.82,-6.47,1286,1328,1333,1291,1343,1500,1500,10267,802
195015,17,5.20,2.10,-2.83,-0.120,0.102,1.055,-2.27,2.90,0.00,2.79,2.27,-0.11,0.00,7.22,2.70,2.02,0.60,0.00,-1.06,-3.11,10.26,1300,1350,1349,1296,1316,1500,1531,10259,799
195027,17,7.30,8.49,-5.24,-0.063,0.238,0.917,-1.70,2.90,0.00,2.79,1.70,-0.11,0.00,5.27,2.70,-2.02,-5.79,0.00,-2.03,-4.37,36.09,1300,1350,1349,1296,1316,1500,1531,10250,799
195039,17,5.09,18.22,-5.60,-0.318,0.245,1.048,-1.22,0.49,0.00,2.79,1.22,2.30,0.00,3.60,11.15,-1.49,-7.07,0.00,-1.49,-7.25,31.91,1300,1350,1349,1296,1316,1500,1531,10221,799
195051,17,5.49,24.25,-6.02,-0.390,0.310,0.989,-0.30,-3.32,0.00,2.88,0.30,6.20,0.00,0.40,24.84,-5.08,0.59,0.00,-2.71,-6.79,29.00,1300,1350,1349,1296,1316,1500,1532,10217,799
195063,17,7.62,21.65,-5.80,-0.422,0.325,0.995,0.57,-7.68,0.00,2.88,-0.57,10.56,0.00,-2.66,40.19,-10.28,18.55,0.00,-4.38,-2.89,19.83,1300,1350,1349,1296,1316,1500,1532,10234,799
195075,17,10.45,19.33,-6.02,-0.459,0.283,0.982,1.44,-11.30,0.00,2.88,-1.44,14.18,0.00,-5.72,52.98,-16.17,33.66,0.00,-5.78,-1.07,19.04,1300,1350,1349,1296,1316,1500,1532,10238,799
195087,17,10.32,14.86,-5.79,-0.403,0.314,0.939,2.02,-14.42,0.00,2.88,-2.02,17.30,0.00,-7.74,64.08,-18.06,49.22,0.00,-5.61,1.39,15.20,1300,1350,1349,1296,1316,1500,1532,10255,799
195099,17,10.07,6.92,-5.53,-0.284,0.242,0.974,2.21,-15.59,0.00,2.79,-2.21,18.38,0.00,-8.43,68.02,-18.50,61.09,0.00,-5.29,3.69,11.01,1300,1350,1349,1296,1318,1500,1531,10242,799
195111,17,8.35,-2.33,-5.68,-0.093,0.241,0.907,1.72,-13.84,0.00,2.88,-1.72,16.72,0.00,-6.75,62.39,-15.10,64.72,0.00,-4.18,5.58,14.47,1304,1335,1340,1288,1317,1500,1532,10255,798
195123,17,5.98,-6.49,-6.15,0.033,0.114,0.895,0.28,-10.09,0.00,2.88,-0.28,12.97,0.00,-1.71,49.40,-7.69,55.89,0.00,-2.89,4.58,22.00,1304,1335,1340,1288,1317,1500,1532,10246,798
195135,17,6.87,-4.79,-6.53,0.027,0.010,1.028,-1.06,-7.23,0.00,2.70,1.06,9.93,0.00,2.99,38.86,-3.88,43.65,0.00,-2.76,2.27,27.86,1304,1335,1340,1288,1319,1500,1530,10238,798
195147,17,8.67,-3.77,-7.73,0.212,0.048,0.829,-1.15,-5.02,0.00,2.70,1.15,7.72,0.00,3.33,31.20,-5.33,34.98,0.00,-2.77,2.31,43.53,1304,1335,1340,1288,1319,1500,1530,10250,798
195159,17,5.86,-5.18,-7.73,0.176,0.053,0.707,-0.74,-3.72,0.00,0.00,0.74,3.72,0.00,1.92,17.24,-3.95,22.42,0.00,-0.93,3.41,42.39,1304,1335,1340,1288,1330,1500,1519,10255,798
195171,17,1.51,-8.17,-8.26,0.271,-0.016,0.676,-0.36,-2.57,0.00,2.79,0.36,5.36,0.00,0.57,23.02,-0.93,31.19,0.00,0.69,5.09,48.24,1304,1335,1340,1288,1318,1500,1531,10246,798
195183,17,5.10,-9.16,-6.94,0.222,0.065,0.694,-0.00,-1.81,0.00,2.79,0.00,4.60,0.00,-0.67,20.44,-5.77,29.59,0.00,-1.67,5.00,32.48,1304,1335,1340,1288,1318,1500,1531,10238,798
195195,17,3.83,-6.30,-6.64,0.240,-0.050,0.837,-0.08,-1.03,0.00,2.79,0.08,3.82,0.00,-0.39,17.75,-4.22,24.05,0.00,-1.09,2.27,76.55,1304,1335,1340,1288,1321,1500,1531,10234,798
195207,17,3.41,-8.87,-6.96,0.304,-0.158,0.750,-0.88,3.50,0.00,2.79,0.88,-0.71,0.00,2.41,1.88,-0.99,10.75,0.00,-1.03,1.22,83.44,1304,1335,1340,1288,1321,1500,1531,10226,798
195219,17,1.14,0.72,-7.70,0.338,-0.107,0.724,-1.37,7.12,0.00,0.00,1.37,-7.12,0.00,4.12,-20.60,2.99,-21.32,0.00,-0.49,-4.25,90.25,1274,1384,1387,1274,1334,1500,1520,10217,798
195231,17,-0.33,12.69,-7.54,0.069,-0.104,0.949,-1.16,6.45,0.00,2.88,1.16,-3.57,0.00,3.38,-8.24,3.71,-20.93,0.00,-1.00,-8.00,46.77,1274,1384,1387,1274,1322,1500,1532,10230,798
195243,17,4.10,17.40,-6.49,-0.094,-0.061,1.019,-1.10,3.74,0.00,2.88,1.10,-0.86,0.00,3.20,1.23,-0.90,-16.17,0.00,-3.72,-7.52,33.00,1274,1384,1387,1274,1322,1500,1532,10217,798
195255,17,7.98,8.56,-4.46,-0.152,-0.079,0.922,-1.30,0.12,0.00,2.88,1.30,2.76,0.00,3.91,13.95,-4.07,5.39,0.00,-5.65,-1.77,48.19,1274,1384,1387,1274,1323,1500,1532,10217,798
195267,17,9.93,-4.47,-2.82,0.102,-0.081,0.730,-1.80,-1.00,0.00,2.88,1.80,3.88,0.00,5.66,17.88,-4.28,22.35,0.00,-6.52,3.77,32.67,1274,1384,1387,1274,1323,1500,1532,10226,798
195279,17,10.41,-13.91,-1.23,0.323,-0.255,0.670,-3.42,0.35,0.00,0.00,3.42,-0.35,0.00,11.35,3.12,0.94,17.03,0.00,-6.54,5.50,-18.28,1274,1384,1387,1274,1337,1500,1518,10221,798
195291,17,9.79,-12.66,-1.66,0.455,-0.343,0.595,-4.52,3.05,0.00,2.79,4.52,-0.26,0.00,15.22,3.41,5.43,16.07,0.00,-5.86,3.68,-6.51,1274,1384,1387,1274,1326,1500,1531,10221,798
195303,17,4.60,-4.27,-2.21,0.366,-0.388,0.670,-4.14,4.36,0.00,2.79,4.14,-1.57,0.00,13.91,-1.19,9.32,3.08,0.00,-3.60,-0.14,4.16,1274,1384,1387,1274,1326,1500,1531,10217,798
195315,17,-1.21,-1.83,-2.80,0.119,-0.447,0.859,-3.17,3.83,0.00,2.88,3.17,-0.95,0.00,10.52,0.98,11.73,2.81,0.00,-1.44,-0.27,13.88,1310,1336,1341,1321,1328,1500,1532,10217,798
195327,17,-6.67,-4.71,-3.51,0.134,-0.377,0.879,-1.82,3.77,0.00,2.88,1.82,-0.89,0.00,5.81,1.19,12.48,5.91,0.00,0.75,1.54,22.86,1310,1336,1341,1321,1328,1500,1532,10217,798
195339,17,-11.17,-6.97,-3.93,0.116,-0.361,0.914,-1.29,4.46,0.00,0.00,1.29,-4.46,0.00,3.97,-11.36,15.14,-4.39,0.00,2.55,2.27,27.99,1310,1336,1341,1321,1357,1500,1503,10213,798
195351,17,-14.51,-8.58,-5.14,0.148,-0.323,0.870,-1.06,5.63,0.00,2.70,1.06,-2.93,0.00,3.15,-6.07,17.66,2.51,0.00,3.79,3.65,41.01,1310,1336,1341,1321,1332,1500,1530,10217,798
195363,17,-18.19,-3.32,-6.29,-0.000,-0.241,0.922,-0.77,4.98,0.00,2.70,0.77,-2.28,0.00,2.15,-3.82,20.34,-0.51,0.00,4.85,2.33,53.07,1310,1336,1341,1321,1332,1500,1530,10217,798
195375,17,-17.10,3.26,-7.13,-0.198,-0.201,1.020,-0.36,1.62,0.00,2.70,0.36,1.08,0.00,0.74,7.94,17.83,4.69,0.00,3.83,1.94,60.02,1310,1336,1341,1321,1332,1500,1530,10217,798
195387,17,-15.83,8.13,-7.23,-0.391,-0.160,1.109,0.29,-3.27,0.00,2.70,-0.29,5.97,0.00,-1.57,25.08,14.26,16.95,0.00,2.95,2.06,58.46,1310,1336,1341,1321,1332,1500,1530,10209,798
195399,17,-17.27,5.13,-7.54,-0.398,-0.155,1.029,0.79,-8.08,0.00,0.00,-0.79,8.08,0.00,-3.30,32.55,13.97,27.42,0.00,3.39,4.38,61.02,1310,1336,1341,1321,1344,1500,1518,10201,798
195411,17,-18.62,-2.17,-7.25,-0.196,-0.151,0.862,0.71,-11.47,0.00,2.79,-0.71,14.26,0.00,-3.04,54.28,15.58,56.46,0.00,3.48,7.38,55.77,1293,1371,1387,1286,1331,1500,1531,10201,799
195423,17,-19.06,-7.58,-7.27,0.130,-0.162,0.759,0.05,-11.20,0.00,2.79,-0.05,13.99,0.00,-0.74,53.46,18.32,61.04,0.00,2.74,7.53,53.73,1293,1371,1387,1286,1331,1500,1531,10196,799
195435,17,-18.72,-0.96,-7.69,0.267,-0.190,0.827,-1.24,-8.43,0.00,0.00,1.24,8.43,0.00,3.80,34.14,22.52,35.11,0.00,1.83,1.77,56.23,1293,1371,1387,1286,1362,1500,1501,10192,799
195447,17,-14.98,4.66,-7.91,0.349,-0.081,0.784,-1.85,-4.15,0.00,0.00,1.85,4.15,0.00,5.94,19.21,20.93,14.54,0.00,-0.44,-1.88,54.17,1293,1371,1387,1286,1362,1500,1501,10196,799
195459,17,-16.01,16.09,-8.03,0.045,-0.016,0.949,-1.56,-2.90,0.00,0.00,1.56,2.90,0.00,4.93,14.86,20.94,-1.23,0.00,-0.60,-6.58,51.40,1293,1371,1387,1286,1362,1500,1501,10201,799
195471,17,-15.15,23.06,-7.46,-0.224,0.037,1.057,-0.85,-4.36,0.00,2.70,0.85,7.06,0.00,2.46,29.47,17.61,6.41,0.00,-1.83,-7.11,39.71,1293,1371,1387,1286,1333,1500,1530,10180,799
195483,17,-13.79,20.59,-5.64,-0.341,0.089,1.070,-0.68,-7.44,0.00,2.70,0.68,10.14,0.00,1.87,40.35,15.66,19.76,0.00,-3.06,-3.91,16.48,1293,1371,1387,1286,1333,1500,1530,10184,799
195495,17,-12.99,6.02,-3.48,-0.083,0.091,0.847,-1.50,-7.86,0.00,2.79,1.50,10.65,0.00,4.75,42.23,17.73,36.20,0.00,-3.87,2.74,-6.48,1293,1371,1387,1286,1332,1500,1531,10176,799
195507,17,-16.96,1.06,-2.37,0.167,0.118,0.775,-2.46,-5.78,0.00,2.79,2.46,8.57,0.00,8.13,35.04,25.09,33.98,0.00,-2.45,2.98,-15.33,1293,1371,1387,1286,1332,1500,1531,10176,799
195519,17,-20.68,5.51,-3.36,0.100,0.212,0.806,-2.47,-3.76,0.00,2.97,2.47,6.73,0.00,8.19,28.68,28.87,23.17,0.00,-1.40,-0.16,-1.18,1300,1350,1368,1302,1330,1500,1533,10188,940
195531,17,-25.72,6.75,-3.56,-0.170,0.300,0.853,-1.31,-5.53,0.00,2.79,1.31,8.32,0.00,4.14,34.34,29.86,27.58,0.00,-0.03,0.32,0.19,1300,1350,1368,1302,1332,1500,1531,10192,940
195543,17,-28.82,2.66,-4.16,-0.076,0.227,0.934,-0.76,-6.86,0.00,2.79,0.76,9.65,0.00,2.23,39.07,31.06,36.40,0.00,0.83,2.35,9.53,1300,1350,1368,1302,1332,1500,1531,10201,940
195555,17,-30.36,-8.29,-5.62,0.308,0.150,0.811,-0.93,-2.64,0.00,2.16,0.93,4.80,0.00,2.86,22.16,33.22,30.45,0.00,1.64,4.89,26.12,1300,1350,1368,1302,1339,1500,1524,10205,940
195567,17,-31.40,-6.69,-6.78,0.424,0.076,0.704,-2.01,3.13,0.00,2.16,2.01,-0.97,0.00,6.66,1.97,38.06,8.66,0.00,2.30,1.64,37.13,1300,1350,1368,1302,1339,1500,1524,10217,940
195579,17,-34.01,-1.43,-7.86,0.357,0.027,0.753,-2.13,5.94,0.00,2.34,2.13,-3.60,0.00,7.10,-7.24,41.11,-5.81,0.00,3.48,-0.89,42.83,1300,1350,1368,1302,1337,1500,1526,10217,940
195591,17,-37.27,2.11,-7.89,0.291,-0.115,0.719,-2.23,6.16,0.00,0.00,2.23,-6.16,0.00,7.48,-16.24,44.76,-18.35,0.00,4.64,-1.46,36.08,1300,1350,1368,1302,1363,1500,1500,10205,940
195603,17,-39.23,4.26,-8.89,0.155,-0.108,0.857,-1.88,4.33,0.00,0.00,1.88,-4.33,0.00,6.26,-9.87,45.49,-14.14,0.00,4.87,-0.74,45.41,1300,1350,1368,1302,1363,1500,1500,10201,940
195615,17,-38.10,-3.68,-9.35,0.202,-0.183,0.865,-2.49,5.05,0.00,2.61,2.49,-2.44,0.00,8.42,-3.29,46.52,0.39,0.00,4.05,3.14,46.59,1280,1404,1406,1281,1335,1500,1529,10196,799
195627,17,-38.79,0.11,-9.85,0.021,-0.155,0.895,-2.74,5.82,0.00,2.61,2.74,-3.21,0.00,9.31,-6.04,48.10,-6.15,0.00,4.29,0.61,50.86,1280,1404,1406,1281,1335,1500,1529,10176,799
195639,17,-43.34,4.23,-9.07,-0.299,-0.221,1.049,-1.86,5.47,0.00,0.00,1.86,-5.47,0.00,6.26,-14.00,49.60,-18.24,0.00,5.79,-1.04,39.59,1280,1404,1406,1281,1347,1500,1517,10171,799
195651,17,-49.29,6.11,-8.42,-0.343,-0.193,1.058,-1.17,4.64,0.00,0.00,1.17,-4.64,0.00,3.87,-11.17,53.15,-17.28,0.00,7.43,-0.62,34.34,1280,1404,1406,1281,1353,1500,1511,10171,799
195663,17,-54.48,9.53,-9.27,-0.364,-0.136,1.131,-1.52,3.06,0.00,0.00,1.52,-3.06,0.00,5.11,-5.68,59.59,-15.21,0.00,8.65,-1.13,47.64,1280,1404,1406,1281,1353,1500,1511,10184,799
195675,17,-60.40,12.26,-10.48,-0.612,0.045,1.311,-1.49,-0.77,0.00,2.61,1.49,3.38,0.00,5.02,16.89,65.42,4.64,0.00,10.24,-0.42,61.29,1280,1404,1406,1281,1334,1500,1529,10192,799
195687,17,-65.72,-0.47,-10.98,-0.353,0.048,1.152,-1.87,-3.44,0.00,2.61,1.87,6.05,0.00,6.37,26.27,72.09,26.74,0.00,11.36,5.58,66.83,1280,1404,1406,1281,1334,1500,1529,10184,799
195699,17,-68.43,-5.27,-12.21,0.031,0.074,0.984,-2.64,-0.74,0.00,1.98,2.64,2.72,0.00,9.10,14.64,77.52,19.92,0.00,10.86,5.38,80.96,1280,1404,1406,1281,1342,1500,1522,10213,799
195711,17,-68.37,1.39,-13.84,-0.172,0.112,1.053,-2.30,-0.51,0.00,2.61,2.30,3.12,0.00,7.94,16.07,76.31,14.68,0.00,8.82,2.14,96.96,1251,1409,1425,1261,1335,1500,1529,10201,799
195723,17,-66.98,-4.91,-13.08,-0.028,-0.032,0.938,-1.69,-1.78,0.00,2.61,1.69,4.39,0.00,5.82,20.55,72.80,25.47,0.00,6.73,5.65,80.79,1251,1409,1425,1261,1335,1500,1529,10205,799
195735,17,-66.45,-9.28,-12.66,0.378,-0.231,0.721,-2.53,1.48,0.00,2.61,2.53,1.13,0.00,8.78,9.16,75.23,18.43,0.00,5.73,5.49,73.35,1251,1409,1425,1261,1335,1500,1529,10201,799
195747,17,-65.19,6.44,-12.68,0.129,-0.353,0.875,-5.27,3.90,0.00,2.61,5.27,-1.29,0.00,18.42,0.70,83.61,-5.74,0.00,4.43,-3.01,71.52,1251,1409,1425,1261,1335,1500,1529,10192,799
195759,17,-63.22,10.10,-12.11,-0.144,-0.252,0.951,-4.96,3.28,0.00,0.00,4.96,-3.28,0.00,17.37,-6.30,80.59,-16.40,0.00,2.73,-3.83,62.96,1251,1409,1425,1261,1354,1500,1510,10196,799
195771,17,-63.50,2.52,-10.75,-0.012,-0.286,0.747,-5.13,0.96,0.00,2.61,5.13,1.65,0.00,18.03,10.94,81.52,8.42,0.00,2.45,1.29,47.46,1251,1409,1425,1261,1335,1500,1529,10184,799
195783,17,-68.96,2.39,-10.44,0.142,-0.268,0.797,-5.15,-0.07,0.00,2.61,5.15,2.68,0.00,18.14,14.56,87.10,12.18,0.00,4.58,1.51,47.00,1251,1409,1425,1261,1335,1500,1529,10180,799
195795,17,-76.61,1.18,-10.66,-0.120,-0.233,0.990,-4.68,-1.88,0.00,2.61,4.68,4.49,0.00,16.52,20.93,93.12,19.75,0.00,7.21,3.01,52.00,1251,1409,1425,1261,1335,1500,1529,10171,799
195807,17,-80.56,-11.69,-11.60,-0.016,-0.480,0.912,-5.59,-2.66,0.00,2.61,5.59,5.27,0.00,19.74,23.73,100.31,35.42,0.00,8.24,9.47,65.53,1251,1409,1425,1261,1335,1500,1529,10180,799
195819,17,-81.76,-16.27,-16.05,0.208,-0.485,0.798,-6.41,-0.13,0.00,0.00,6.41,0.13,0.00,22.68,5.74,104.44,22.01,0.00,8.55,9.41,114.12,1272,1408,1417,1272,1346,1500,1518,10184,799
195831,17,-83.82,-13.11,-18.85,-0.156,-0.443,0.924,-6.61,-0.70,0.00,2.52,6.61,3.22,0.00,23.44,16.55,107.26,29.66,0.00,9.33,6.80,134.74,1272,1408,1417,1272,1336,1500,1528,10176,799
195843,17,-85.06,-8.76,-18.65,-0.335,-0.321,1.011,-6.12,-4.22,0.00,2.52,6.12,6.74,0.00,21.78,28.91,106.85,37.67,0.00,9.89,4.63,118.43,1272,1408,1417,1272,1336,1500,1528,10167,799
195855,17,-80.56,-13.83,-17.75,0.044,-0.436,0.769,-5.62,-2.76,0.00,0.00,5.62,2.76,0.00,20.09,15.02,100.65,28.85,0.00,6.98,5.18,100.83,1272,1408,1417,1272,1364,1500,1500,10163,799
195867,17,-80.41,-9.96,-17.12,-0.033,-0.084,0.754,-4.40,-2.78,0.00,0.00,4.40,2.78,0.00,15.86,15.12,96.27,25.08,0.00,6.35,3.32,92.36,1272,1408,1417,1272,1364,1500,1500,10142,799
195879,17,-79.71,-9.34,-15.62,-0.172,0.148,1.027,-3.45,-3.30,0.00,0.00,3.45,3.30,0.00,12.58,16.96,92.29,26.30,0.00,5.52,2.84,77.49,1272,1408,1417,1272,1349,1500,1515,10134,799
195891,17,-81.70,-18.84,-15.71,-0.081,0.126,0.959,-2.71,0.21,0.00,2.52,2.71,2.31,0.00,10.02,13.51,91.72,32.34,0.00,6.24,5.79,84.00,1272,1408,1417,1272,1336,1500,1528,10117,799
195903,17,-82.31,-27.90,-13.81,0.319,-0.172,0.600,-3.59,3.55,0.00,2.52,3.59,-1.03,0.00,13.14,1.84,95.45,29.73,0.00,6.76,8.15,64.85,1272,1408,1417,1272,1336,1500,1528,10105,799
195915,17,-78.74,-2.03,-10.50,0.254,-0.370,0.929,-5.35,2.89,0.00,2.52,5.35,-0.37,0.00,19.33,4.14,98.07,6.17,0.00,5.57,-3.83,31.47,1292,1374,1378,1297,1336,1500,1528,10117,799
195927,17,-67.41,3.40,1.37,-0.228,-0.453,1.089,-8.27,1.78,0.00,2.52,8.27,0.74,0.00,29.63,8.02,97.04,4.62,0.00,2.00,-4.14,-91.71,1292,1374,1378,1297,1336,1500,1528,10146,799
195939,17,-61.00,-0.87,3.69,0.024,-0.310,0.719,-8.46,2.33,0.00,0.00,8.46,-2.33,0.00,30.38,-2.77,91.38,-1.91,0.00,1.36,0.53,-31.93,1292,1374,1378,1297,1356,1500,1508,10176,799
195951,17,-58.01,8.27,2.13,-0.295,-0.139,1.037,-7.50,2.66,0.00,1.98,7.50,-0.68,0.00,27.10,2.99,85.11,-5.28,0.00,2.45,-2.06,-28.81,1292,1374,1378,1297,1342,1500,1522,10180,799
195963,17,-57.43,7.94,-1.94,-0.665,0.088,1.241,-7.55,-0.15,0.00,1.98,7.55,2.13,0.00,27.36,12.83,84.79,4.89,0.00,4.60,-1.16,34.04,1292,1374,1378,1297,1342,1500,1522,10184,799
195975,17,-50.46,0.75,-6.13,-0.871,0.314,1.260,-8.20,-3.55,0.00,2.97,8.20,6.52,0.00,29.71,28.23,80.17,27.48,0.00,4.11,1.65,76.48,1292,1374,1378,1297,1331,1500,1533,10171,799
195987,17,-49.16,-8.69,-8.32,-0.206,0.156,0.867,-7.62,-3.56,0.00,2.97,7.62,6.53,0.00,27.78,28.32,76.94,37.01,0.00,6.16,4.56,81.96,1292,1374,1378,1297,1331,1500,1533,10167,799
195999,17,-42.38,1.64,-1.47,-0.316,0.193,1.103,-8.83,-4.15,0.00,0.00,8.83,4.15,0.00,32.12,20.01,74.50,18.37,0.00,5.52,-2.31,-11.98,1292,1374,1378,1297,1348,1500,1516,10163,799
196011,17,-35.68,-3.01,2.20,-0.167,0.132,0.948,-7.74,-3.14,0.00,2.52,7.74,5.66,0.00,28.37,25.34,64.05,28.34,0.00,4.53,0.24,-44.85,1375,1300,1304,1377,1336,1500,1528,10180,799
196023,17,-29.54,-5.52,5.80,-0.053,-0.018,0.866,-8.58,-0.71,0.00,2.52,8.58,3.23,0.00,31.42,16.87,60.96,22.39,0.00,3.85,0.48,-70.58,1375,1300,1304,1377,1336,1500,1528,10167,799
196035,17,-22.87,-6.29,4.31,0.074,-0.319,0.989,-11.03,2.56,0.00,2.97,11.03,0.41,0.00,40.09,7.01,62.96,13.30,0.00,2.77,0.68,-32.16,1375,1300,1304,1377,1331,1500,1533,10155,799
196047,17,-9.56,-6.08,1.02,-0.035,-0.326,0.869,-13.96,6.31,0.00,2.97,13.96,-3.34,0.00,50.46,-6.13,60.02,-0.05,0.00,-1.03,-0.03,8.90,1375,1300,1304,1377,1331,1500,1533,10163,799
196059,17,-4.26,0.67,-1.85,-0.208,-0.206,0.930,-12.30,5.00,0.00,0.00,12.30,-5.00,0.00,44.78,-12.00,49.04,-12.67,0.00,-1.24,-2.94,32.49,1375,1300,1304,1377,1364,1500,1500,10184,799
196071,17,-2.40,-5.42,-4.00,0.032,-0.137,0.747,-9.68,4.20,0.00,2.52,9.68,-1.68,0.00,35.73,-0.42,38.12,5.00,0.00,-0.52,0.99,45.32,1375,1300,1304,1377,1336,1500,1528,10184,799
196083,17,1.14,0.81,-4.12,0.184,-0.166,0.762,-7.58,4.22,0.00,2.52,7.58,-1.70,0.00,28.45,-0.49,27.32,-1.29,0.00,-0.98,-1.80,34.69,1375,1300,1304,1377,1336,1500,1528,10184,799
196095,17,5.17,12.75,-1.55,0.009,-0.191,0.897,-6.68,2.27,0.00,0.00,6.68,-2.27,0.00,25.38,-2.50,20.20,-15.25,0.00,-1.68,-5.65,6.15,1375,1300,1304,1377,1363,1500,1501,10171,799
196107,17,12.25,4.90,-1.29,0.116,-0.479,1.027,-8.34,1.42,0.00,0.00,8.34,-1.42,0.00,31.23,0.45,18.98,-4.44,0.00,-3.07,-0.17,11.71,1375,1300,1304,1377,1363,1500,1501,10176,799
196119,17,24.49,1.50,-3.70,-0.147,-0.274,1.158,-9.67,-0.34,0.00,0.00,9.67,0.34,0.00,35.99,6.62,11.50,5.12,0.00,-5.63,1.66,43.53,1359,1349,1346,1357,1349,1500,1515,10167,799
196131,17,30.34,5.15,-5.60,-0.126,-0.190,0.930,-9.32,-2.45,0.00,2.43,9.32,4.88,0.00,34.85,22.54,4.51,17.38,0.00,-5.42,-0.26,57.08,1359,1349,1346,1357,1337,1500,1527,10167,799
196143,17,32.69,-2.93,-7.24,0.043,-0.000,0.859,-7.94,-3.11,0.00,2.43,7.94,5.54,0.00,30.11,24.88,-2.58,27.80,0.00,-4.77,2.85,67.69,1359,1349,1346,1357,1337,1500,1527,10184,799
196155,17,33.05,-4.04,-7.29,0.269,0.007,0.685,-7.25,-0.27,0.00,2.43,7.25,2.70,0.00,27.77,14.98,-5.28,19.02,0.00,-3.60,1.59,58.49,1359,1349,1346,1357,1337,1500,1527,10167,799
196167,17,37.72,-1.02,-3.40,0.247,-0.324,0.786,-10.69,4.00,0.00,2.43,10.69,-1.57,0.00,39.88,0.03,2.15,1.05,0.00,-4.07,-1.42,5.66,1359,1349,1346,1357,1337,1500,1527,10180,799
196179,17,46.64,5.59,-2.47,0.132,0.048,0.899,-11.18,4.04,0.00,0.00,11.18,-4.04,0.00,41.73,-8.65,-4.91,-14.25,0.00,-6.02,-3.89,2.57,1359,1349,1346,1357,1348,1500,1516,10159,799
196191,17,45.53,5.71,-3.51,-0.031,0.278,0.786,-9.58,3.62,0.00,0.00,9.58,-3.62,0.00,36.22,-7.21,-9.31,-12.92,0.00,-3.09,-3.49,18.83,1359,1349,1346,1357,1364,1500,1500,10167,799
196203,17,41.58,5.99,-4.83,-0.134,0.354,0.802,-7.36,1.81,0.00,0.00,7.36,-1.81,0.00,28.53,-0.88,-13.05,-6.87,0.00,-0.13,-2.05,34.10,1359,1349,1346,1357,1364,1500,1500,10188,799
196215,17,38.62,6.21,-4.81,-0.273,0.326,0.914,-5.09,-1.67,0.00,2.43,5.09,4.10,0.00,20.67,19.82,-17.95,13.61,0.00,1.26,-0.79,30.09,1319,1375,1371,1314,1337,1500,1527,10196,799
196227,17,43.61,10.47,-3.46,-0.196,-0.219,1.122,-6.98,-3.11,0.00,2.43,6.98,5.54,0.00,27.33,24.91,-16.29,14.44,0.00,-0.70,-2.55,9.22,1319,1375,1371,1314,1337,1500,1527,10184,799
196239,17,61.83,3.18,-1.85,-0.063,-0.056,1.093,-8.21,-2.70,0.00,0.00,8.21,2.70,0.00,31.71,14.99,-30.12,11.80,0.00,-6.29,0.72,-1.51,1319,1375,1371,1314,1349,1500,1515,10176,799
196251,17,65.67,-0.50,0.31,0.129,-0.115,0.519,-9.11,0.81,0.00,2.43,9.11,1.62,0.00,34.97,11.24,-30.71,11.73,0.00,-3.98,1.76,-20.83,1319,1375,1371,1314,1337,1500,1527,10184,799
196263,17,65.80,6.12,-1.32,-0.001,0.022,0.745,-7.45,2.38,0.00,2.43,7.45,0.05,0.00,29.23,5.73,-36.57,-0.38,0.00,-1.59,-1.74,8.20,1319,1375,1371,1314,1337,1500,1527,10184,799
196275,17,65.09,9.38,-2.26,-0.089,-0.143,0.901,-5.85,2.55,0.00,0.00,5.85,-2.55,0.00,23.71,-3.38,-41.38,-12.76,0.00,-0.14,-3.23,17.96,1319,1375,1371,1314,1363,1500,1501,10184,799
196287,17,64.08,14.87,-3.01,-0.312,-0.189,0.933,-4.43,0.75,0.00,0.00,4.43,-0.75,0.00,18.77,2.90,-45.32,-11.97,0.00,0.37,-4.79,24.52,1319,1375,1371,1314,1363,1500,1501,10167,799
196299,17,63.09,8.14,-4.48,-0.117,-0.260,0.940,-2.57,0.62,0.00,0.00,2.57,-0.62,0.00,12.29,3.35,-50.80,-4.79,0.00,0.53,-0.93,37.45,1319,1375,1371,1314,1349,1500,1515,10167,799
196311,17,67.82,2.70,-8.06,-0.156,-0.453,1.118,-2.96,-0.22,0.00,2.43,2.96,2.65,0.00,13.69,14.79,-54.13,12.09,0.00,-1.64,1.58,74.08,1279,1403,1403,1275,1337,1500,1527,10167,799
196323,17,77.80,-4.99,-13.54,-0.196,-0.406,1.108,-3.72,-1.56,0.00,2.43,3.72,3.99,0.00,16.39,19.53,-61.41,24.53,0.00,-4.80,3.85,119.39,1279,1403,1403,1275,1337,1500,1527,10159,799
196335,17,78.86,-8.70,-16.20,-0.082,-0.340,0.832,-3.70,-2.63,0.00,0.00,3.70,2.63,0.00,16.35,14.79,-62.51,23.49,0.00,-3.83,3.90,169.19,1279,1403,1403,1275,1357,1500,1507,10171,799
196347,17,81.23,-11.12,-16.69,-0.028,-0.255,0.856,-2.81,-2.84,0.00,0.00,2.81,2.84,0.00,13.24,15.56,-67.99,26.68,0.00,-4.00,3.70,153.61,1279,1403,1403,1275,1357,1500,1507,10163,799
196359,17,82.95,-10.07,-15.73,0.103,-0.184,0.793,-2.20,-2.19,0.00,0.00,2.20,2.19,0.00,11.13,13.31,-71.82,23.38,0.00,-4.18,2.36,87.53,1279,1403,1403,1275,1349,1500,1515,10113,799
196371,17,84.04,-7.28,-14.40,0.155,-0.194,0.832,-1.82,-1.17,0.00,0.00,1.82,1.17,0.00,9.83,9.76,-74.21,17.04,0.00,-4.51,0.28,68.23,1279,1403,1403,1275,1353,1500,1511,10084,799
196383,17,90.02,3.25,-9.41,-0.117,-0.103,1.182,-1.84,-2.32,0.00,0.00,1.84,2.32,0.00,9.92,13.79,-80.10,10.54,0.00,-6.96,-3.90,20.13,1279,1403,1403,1275,1353,1500,1511,10084,799
196395,17,90.91,3.80,-7.18,0.111,0.078,0.964,-1.25,-0.82,0.00,2.34,1.25,3.16,0.00,7.85,16.77,-83.07,12.97,0.00,-6.18,-3.07,14.42,1279,1403,1403,1275,1338,1501,1526,10084,799
196407,17,90.15,7.19,-6.53,0.077,0.081,0.857,-0.46,-1.30,0.00,2.34,0.46,3.64,0.00,5.09,18.47,-85.06,11.28,0.00,-5.27,-1.73,25.56,1279,1403,1403,1275,1338,1500,1526,10096,799
196419,17,90.20,4.42,-5.22,0.426,-0.044,0.978,-0.59,0.97,0.00,0.00,0.59,-0.97,0.00,5.55,2.37,-84.65,-2.05,0.00,-5.50,-1.74,24.90,1382,1312,1314,1374,1349,1500,1515,10126,799
196431,17,89.02,7.20,-3.53,0.069,-0.007,0.761,0.00,5.79,0.00,0.00,-0.00,-5.79,0.00,3.49,-14.54,-85.53,-21.74,0.00,-5.15,-3.87,46.14,1382,1312,1314,1374,1364,1500,1500,10146,799
196443,17,94.89,-1.57,-1.41,0.684,-0.261,0.627,-0.76,6.49,0.00,0.00,0.76,-6.49,0.00,6.15,-17.04,-88.74,-15.47,0.00,-7.59,1.83,18.02,1382,1312,1314,1374,1364,1500,1500,10167,799
196455,17,102.18,10.25,-4.75,0.575,-0.182,0.625,-0.99,9.16,0.00,2.34,0.99,-6.82,0.00,6.96,-18.28,-95.22,-28.53,0.00,-10.66,-4.44,17.28,1382,1312,1314,1374,1338,1500,1526,10151,799
196467,17,101.03,13.96,-7.10,-0.275,-0.042,0.992,-0.09,3.93,0.00,2.34,0.09,-1.59,0.00,3.82,-0.01,-97.21,-13.97,0.00,-10.04,-4.29,40.63,1382,1312,1314,1374,1338,1500,1526,10167,799
196479,17,98.22,-3.83,-9.53,0.120,-0.033,0.797,-0.25,1.37,0.00,0.00,0.25,-1.37,0.00,4.36,0.77,-93.86,4.60,0.00,-8.35,4.83,110.15,1382,1312,1314,1374,1359,1500,1505,10159,799
196491,17,98.64,1.15,-12.02,-0.013,0.079,0.737,0.82,-1.75,0.00,2.43,-0.82,4.18,0.00,0.60,20.22,-98.04,19.07,0.00,-8.35,3.13,86.56,1382,1312,1314,1374,1337,1500,1527,10151,799
196503,17,98.64,-1.95,-11.55,-0.225,0.136,0.918,2.41,-7.18,0.00,2.43,-2.41,9.61,0.00,-5.00,39.29,-103.63,41.24,0.00,-8.24,4.29,76.47,1382,1312,1314,1374,1337,1500,1527,10130,799
196515,17,93.74,-15.71,-8.96,0.263,-0.105,0.925,1.70,-5.58,0.00,2.34,-1.70,7.92,0.00,-2.51,33.48,-96.25,49.19,0.00,-5.43,6.43,44.89,1304,1374,1393,1278,1338,1500,1526,10113,801
196527,17,90.22,-12.65,-6.42,-0.074,-0.247,0.876,1.47,-1.61,0.00,2.34,-1.47,3.95,0.00,-1.73,19.60,-91.95,32.25,0.00,-3.55,2.85,13.53,1304,1374,1393,1278,1338,1500,1526,10130,801
196539,17,95.69,-20.33,-3.25,0.146,-0.489,0.641,0.99,-4.11,0.00,0.00,-0.99,4.11,0.00,-0.08,20.20,-95.77,40.53,0.00,-5.22,8.04,-24.11,1304,1374,1393,1278,1349,1500,1515,10155,801
196551,17,104.35,-12.41,-3.66,0.465,-0.434,0.766,0.72,-3.12,0.00,2.34,-0.72,5.46,0.00,0.85,24.97,-103.50,37.38,0.00,-8.51,3.02,-11.15,1304,1374,1393,1278,1338,1500,1526,10151,801
196563,17,107.70,-8.74,-6.64,-0.136,-0.002,1.063,2.66,-2.68,0.00,2.34,-2.66,5.02,0.00,-5.96,23.47,-113.66,32.21,0.00,-9.60,0.45,29.67,1304,1374,1393,1278,1338,1500,1526,10163,801
196575,17,112.03,-21.58,-7.68,0.175,-0.152,0.729,2.47,-3.04,0.00,0.00,-2.47,3.04,0.00,-5.34,16.60,-117.37,38.17,0.00,-10.17,6.35,42.03,1304,1374,1393,1278,1358,1500,1506,10159,801
196587,17,108.93,-13.71,-10.96,-0.054,0.006,0.792,3.17,-4.74,0.00,0.00,-3.17,4.74,0.00,-7.82,22.58,-116.75,36.30,0.00,-7.45,3.10,83.33,1304,1374,1393,1278,1358,1500,1506,10151,801
196599,17,106.77,-0.42,-11.22,-0.729,0.112,1.213,4.04,-10.15,0.00,0.00,-4.04,10.15,0.00,-10.90,41.62,-117.67,42.04,0.00,-5.71,-0.44,85.02,1304,1374,1393,1278,1351,1500,1513,10155,801
196611,17,83.91,-5.81,-8.20,-0.686,1.078,1.034,5.80,-13.42,0.00,2.43,-5.80,15.85,0.00,-17.09,61.70,-101.00,67.51,0.00,5.30,2.38,49.07,1302,1377,1385,1300,1337,1500,1527,10167,806
196623,17,37.31,55.16,-7.33,-1.144,0.340,2.151,4.82,-16.81,0.00,2.43,-4.82,19.24,0.00,-13.69,73.73,-51.00,18.57,0.00,17.75,-15.52,52.28,1302,1377,1385,1300,1337,1500,1527,10163,806
196635,17,4.99,45.73,-3.78,-0.155,-0.171,0.557,4.25,-13.34,0.00,2.43,-4.25,15.77,0.00,-11.73,61.73,-16.71,16.00,0.00,23.52,-4.47,12.70,1302,1377,1385,1300,1337,1500,1527,10155,806
196647,17,1.28,40.91,0.18,0.436,-0.437,0.744,2.11,-8.90,0.00,2.43,-2.11,11.33,0.00,-4.29,46.33,-5.57,5.42,0.00,14.72,4.57,-24.73,1302,1377,1385,1300,1337,1500,1527,10171,806
196659,17,8.33,63.67,1.41,0.499,-0.475,0.422,-1.29,-5.85,0.00,0.00,1.29,5.85,0.00,7.59,27.23,-0.74,-36.44,0.00,5.19,-3.05,-22.39,1302,1377,1385,1300,1348,1500,1516,10163,806
196671,17,7.63,58.93,1.98,0.128,-0.371,0.910,-1.15,5.57,0.00,0.00,1.15,-5.57,0.00,7.11,-12.79,-0.52,-71.72,0.00,2.34,-4.30,-23.01,1302,1377,1385,1300,1353,1501,1511,10171,806
196683,17,11.85,62.72,1.72,-0.059,-0.228,1.115,-4.32,8.27,0.00,0.00,4.32,-8.27,0.00,18.24,-22.30,6.39,-85.02,0.00,-0.30,-6.20,-12.70,1302,1377,1385,1300,1353,1501,1511,10159,806
196695,17,20.95,69.93,0.07,-0.345,-0.187,1.048,-5.50,7.05,0.00,2.61,5.50,-4.44,0.00,22.40,-8.96,1.45,-78.89,0.00,-4.12,-6.60,7.54,1302,1377,1385,1300,1335,1500,1529,10151,806
196707,17,26.30,69.73,-1.91,-0.109,-0.048,0.701,-5.14,4.01,0.00,2.61,5.14,-1.40,0.00,21.18,1.67,-5.13,-68.06,0.00,-5.42,-2.83,31.37,1302,1377,1385,1300,1335,1500,1529,10146,806
196719,17,29.81,69.89,-3.26,0.097,-0.101,0.826,-4.05,1.90,0.00,0.00,4.05,-1.90,0.00,17.40,-0.10,-12.41,-69.99,0.00,-5.82,-2.80,41.48,1334,1358,1354,1337,1351,1500,1513,10151,801
196731,17,29.29,56.91,-4.86,0.101,0.149,0.864,-1.75,2.10,0.00,2.25,1.75,0.15,0.00,9.40,7.06,-19.89,-49.85,0.00,-4.49,1.87,54.26,1334,1358,1354,1337,1339,1500,1525,10159,801
196743,17,22.17,49.99,-5.25,-0.126,0.151,1.345,-1.66,2.22,0.00,2.25,1.66,0.03,0.00,9.11,6.64,-13.06,-43.35,0.00,-1.80,1.00,45.94,1334,1358,1354,1337,1339,1500,1525,10151,801
196755,17,21.20,40.01,-7.34,-0.161,0.191,1.076,-1.95,2.15,0.00,2.25,1.95,0.10,0.00,10.13,6.91,-11.07,-33.10,0.00,-2.73,1.71,59.64,1334,1358,1354,1337,1339,1500,1525,10151,801
196767,17,19.70,48.40,-7.40,-0.537,0.417,1.270,-2.27,0.62,0.00,2.25,2.27,1.63,0.00,11.27,12.25,-8.43,-36.15,0.00,-2.19,-4.56,48.96,1334,1358,1354,1337,1339,1500,1525,10151,801
196779,17,25.25,47.67,-6.24,-0.734,0.516,1.440,-1.51,-2.18,0.00,0.00,1.51,2.18,0.00,8.64,14.17,-16.61,-33.50,0.00,-4.14,-4.35,25.22,1334,1358,1354,1337,1364,1500,1500,10142,801
196791,17,31.74,37.02,-4.95,-0.579,0.492,1.204,-0.50,-5.20,0.00,2.25,0.50,7.45,0.00,5.13,32.68,-26.61,-4.34,0.00,-5.27,0.26,6.89,1334,1358,1354,1337,1339,1500,1525,10146,801
196803,17,34.40,17.59,-2.97,-0.000,0.383,0.842,0.07,-2.97,0.00,2.25,-0.07,5.22,0.00,3.15,24.93,-31.25,7.34,0.00,-3.81,6.97,-13.11,1334,1358,1354,1337,1339,1500,1525,10134,801
196815,17,37.21,17.15,-2.49,0.525,0.196,0.713,-0.52,3.86,0.00,2.34,0.52,-1.52,0.00,5.24,1.34,-31.97,-15.81,0.00,-2.32,3.05,-11.50,1343,1348,1339,1322,1338,1500,1526,10138,802
196827,17,44.01,35.88,-3.77,0.275,0.243,0.860,-0.88,8.45,0.00,2.34,0.88,-6.11,0.00,6.50,-14.78,-37.51,-50.66,0.00,-3.33,-6.72,11.44,1343,1348,1339,1322,1338,1500,1526,10126,802
196839,17,52.10,51.59,-5.05,-0.287,0.227,1.178,-0.42,5.68,0.00,0.00,0.42,-5.68,0.00,4.90,-13.34,-47.20,-64.93,0.00,-4.88,-10.70,31.62,1343,1348,1339,1322,1351,1500,1513,10134,802
196851,17,58.87,52.15,-5.70,-0.446,0.109,1.399,-0.27,1.81,0.00,2.25,0.27,0.44,0.00,4.40,8.05,-54.47,-44.11,0.00,-4.93,-7.98,42.82,1343,1348,1339,1322,1339,1500,1525,10151,802
196863,17,65.93,42.97,-6.06,-0.193,-0.007,1.192,-1.24,3.53,0.00,2.25,1.24,-1.28,0.00,7.81,2.02,-58.11,-40.95,0.00,-4.62,-3.97,49.54,1343,1348,1339,1322,1339,1500,1525,10155,802
196875,17,72.17,44.70,-6.81,-0.234,-0.033,1.068,-1.13,5.06,0.00,0.00,1.13,-5.06,0.00,7.46,-11.22,-64.71,-55.92,0.00,-4.20,-4.30,58.18,1343,1348,1339,1322,1356,1500,1508,10155,802
196887,17,79.87,46.96,-7.18,-0.280,-0.061,0.981,0.41,2.53,0.00,0.00,-0.41,-2.53,0.00,2.06,-2.43,-77.81,-49.40,0.00,-4.52,-2.60,59.36,1343,1348,1339,1322,1356,1500,1508,10171,802
196899,17,89.42,48.28,-7.59,-0.059,-0.174,0.852,1.10,0.38,0.00,0.00,-1.10,-0.38,0.00,-0.36,5.09,-89.79,-43.18,0.00,-5.53,-1.52,120.76,1343,1348,1339,1322,1352,1500,1513,10159,802
196911,17,95.32,56.23,-7.84,-0.172,-0.173,1.031,0.99,-0.30,0.00,2.25,-0.99,2.55,0.00,0.02,15.35,-95.30,-40.88,0.00,-5.04,-4.57,125.84,1238,1461,1441,1232,1340,1500,1525,10142,798
196923,17,99.64,57.90,-6.80,-0.450,-0.186,1.155,1.19,-1.21,0.00,2.25,-1.19,3.46,0.00,-0.71,18.55,-100.34,-39.34,0.00,-4.29,-3.80,110.95,1238,1461,1441,1232,1340,1500,1525,10142,798
196935,17,104.24,48.67,-5.14,-0.398,-0.246,1.042,1.75,-3.30,0.00,2.25,-1.75,5.55,0.00,-2.66,25.92,-106.90,-22.75,0.00,-3.90,2.05,70.46,1238,1461,1441,1232,1339,1500,1525,10126,798
196947,17,91.90,24.55,-5.15,0.153,-0.346,1.233,3.28,-4.34,0.00,2.25,-3.28,6.59,0.00,-8.06,29.61,-99.96,5.06,0.00,2.28,12.04,69.80,1238,1461,1441,1232,1339,1500,1525,10117,798
196959,17,94.92,18.41,-5.80,0.093,-0.365,0.706,3.46,-3.90,0.00,0.00,-3.46,3.90,0.00,-8.73,20.25,-103.65,1.85,0.00,-1.05,9.74,94.28,1238,1461,1441,1232,1352,1500,1513,10134,798
196971,17,101.51,15.05,-4.06,0.032,-0.306,0.866,3.40,-6.05,0.00,2.16,-3.40,8.21,0.00,-8.54,35.39,-110.05,20.34,0.00,-4.70,6.13,77.49,1238,1461,1441,1232,1340,1500,1524,10134,798
196983,17,99.86,-1.83,-6.47,0.592,-0.267,0.711,3.84,3.65,0.00,2.16,-3.84,-1.49,0.00,-10.11,1.47,-109.96,3.29,0.00,-3.80,7.96,110.09,1238,1461,1441,1232,1340,1500,1524,10142,798
196995,17,101.97,17.58,-4.97,-0.155,-0.069,1.186,4.42,1.53,0.00,2.16,-4.42,0.63,0.00,-12.21,8.87,-114.18,-8.71,0.00,-5.02,-3.15,96.20,1238,1461,1441,1232,1340,1500,1524,10134,798
197007,17,102.56,-1.55,-3.91,-0.103,-0.208,1.002,5.07,2.33,0.00,2.16,-5.07,-0.17,0.00,-14.53,6.06,-117.09,7.61,0.00,-5.27,3.21,83.23,1238,1461,1441,1232,1340,1500,1524,10117,798
197019,17,104.94,-15.97,-2.45,0.059,-0.250,0.868,4.41,2.28,0.00,0.00,-4.41,-2.28,0.00,-12.27,-1.32,-117.21,14.65,0.00,-5.87,7.73,65.71,1288,1417,1411,1272,1351,1500,1513,10130,797
197031,17,104.92,-15.84,-2.74,0.180,-0.242,0.770,3.92,1.38,0.00,2.16,-3.92,0.78,0.00,-10.60,9.37,-115.52,25.21,0.00,-4.63,6.07,68.76,1288,1417,1411,1272,1341,1500,1524,10126,797
197043,17,112.13,-13.14,-2.69,-0.292,-0.172,0.879,4.19,-3.87,0.00,2.16,-4.19,6.03,0.00,-11.56,27.78,-123.68,40.92,0.00,-6.58,4.17,70.14,1288,1417,1411,1272,1341,1500,1524,10134,797
197055,17,120.57,-23.69,-4.39,0.025,-0.212,0.877,4.02,-5.51,0.00,2.16,-4.02,7.67,0.00,-11.02,33.62,-131.60,57.30,0.00,-8.23,6.60,95.70,1288,1417,1411,1272,1341,1500,1524,10134,797
197067,17,109.65,-41.27,-5.03,-0.160,-0.033,1.035,5.72,-5.43,0.00,2.16,-5.72,7.59,0.00,-17.01,33.39,-126.66,74.67,0.00,-2.35,11.31,101.26,1288,1417,1411,1272,1341,1500,1524,10151,797
197079,17,109.12,-59.28,-2.88,0.455,-0.091,0.555,5.52,-1.43,0.00,0.00,-5.52,1.43,0.00,-16.37,11.87,-125.49,71.15,0.00,-2.31,14.03,77.13,1288,1417,1411,1272,1352,1500,1512,10151,797
197091,17,110.74,-39.65,0.09,-0.038,-0.034,0.831,4.89,0.40,0.00,2.16,-4.89,1.76,0.00,-14.20,13.02,-124.94,52.67,0.00,-3.22,0.86,38.12,1288,1417,1411,1272,1340,1500,1524,10167,797
197103,17,113.74,-56.71,3.03,0.289,-0.120,0.951,4.51,3.44,0.00,2.16,-4.51,-1.28,0.00,-12.93,2.40,-126.67,59.12,0.00,-4.25,6.79,1.92,1288,1417,1411,1272,1340,1500,1524,10167,797
197115,17,118.95,-56.84,2.07,0.838,-0.032,0.363,4.69,14.35,0.00,2.61,-4.69,-11.74,0.00,-13.60,-34.31,-132.55,22.53,0.00,-6.46,4.42,12.14,1256,1429,1424,1239,1336,1500,1529,10184,802
197127,17,122.71,-42.18,0.45,0.219,0.157,0.673,6.52,13.51,0.00,2.61,-6.52,-10.90,0.00,-20.05,-31.45,-142.75,10.72,0.00,-8.35,-0.40,36.32,1256,1429,1424,1239,1336,1500,1529,10155,802
197139,17,119.03,-46.70,-1.59,0.467,0.356,0.783,6.38,16.18,0.00,0.00,-6.38,-16.18,0.00,-19.63,-50.08,-138.66,-3.38,0.00,-6.42,0.21,68.12,1256,1429,1424,1239,1352,1500,1513,10163,802
197151,17,100.01,-38.11,-3.59,-0.389,0.686,1.259,8.28,11.23,0.00,2.16,-8.28,-9.07,0.00,-26.34,-25.34,-126.35,12.77,0.00,0.47,-1.85,93.00,1256,1429,1424,1239,1341,1500,1524,10155,802
