time_ms,flags,gyro_x,gyro_y,gyro_z,accel_x,accel_y,accel_z,roll,pitch,rate_sp_roll,rate_sp_pitch,rate_err_roll,rate_err_pitch,rate_i_roll,rate_i_pitch,rate_i_yaw,pid_roll,pid_pitch,pid_yaw,m1,m2,m3,m4,rc_thr,rc_roll,rc_pitch,battery_mv,loop_us
108820,0,-0.01,-0.04,0.01,0.019,-0.011,1.001,0.00,0.00,0.00,0.03,0.01,0.07,-0.00,0.00,0.00,0.02,0.12,-0.02,1100,1100,1100,1100,1021,1499,1523,11732,721
108832,0,0.01,-0.04,0.00,0.019,-0.011,1.001,0.00,0.00,0.00,0.03,-0.01,0.07,0.00,0.00,-0.00,-0.03,0.10,-0.00,1100,1100,1100,1100,1012,1499,1532,11732,721
108844,0,-0.01,-0.06,-0.02,0.018,-0.011,1.001,0.00,0.00,-0.00,0.03,0.01,0.09,0.00,0.00,-0.00,0.02,0.11,0.04,1100,1100,1100,1100,1012,1499,1532,11732,721
108856,0,0.01,0.05,-0.02,0.018,-0.011,1.001,0.00,0.00,-0.00,0.03,-0.01,-0.02,-0.00,0.00,0.00,0.00,-0.28,0.05,1100,1100,1100,1100,1023,1499,1521,11732,721
108868,0,0.02,0.05,0.04,0.018,-0.011,1.001,0.00,0.00,-0.00,0.03,-0.02,-0.02,-0.00,0.00,-0.00,-0.02,-0.13,-0.11,1100,1100,1100,1100,1023,1499,1531,11732,721
108880,0,0.00,-0.02,0.00,0.018,-0.011,0.999,0.00,0.00,-0.01,0.03,-0.01,0.05,-0.00,0.00,-0.00,0.01,0.09,-0.01,1100,1100,1100,1100,1013,1499,1531,11732,721
108892,0,-0.03,0.00,0.06,0.018,-0.011,1.000,0.00,0.00,-0.00,0.03,0.02,0.03,-0.00,0.00,-0.00,0.03,-0.06,-0.15,1100,1100,1100,1100,1023,1499,1521,11732,721
108904,0,0.02,0.04,0.01,0.019,-0.011,1.000,0.00,0.00,-0.00,0.03,-0.02,-0.01,-0.00,0.00,-0.00,-0.05,-0.08,-0.03,1100,1100,1100,1100,1023,1499,1521,11732,721
108916,0,-0.09,0.08,0.04,0.017,-0.012,1.000,0.00,0.00,-0.00,0.03,0.09,-0.06,0.00,0.00,-0.00,0.16,-0.29,-0.09,1100,1100,1100,1100,1020,1499,1524,11728,722
108928,0,0.01,0.11,-0.06,0.018,-0.012,1.000,0.00,0.00,-0.00,0.03,-0.01,-0.08,-0.00,0.00,-0.00,0.01,-0.21,0.14,1100,1100,1100,1100,1020,1499,1524,11728,722
108940,0,-0.03,0.01,-0.00,0.018,-0.012,1.000,0.00,0.00,-0.00,0.03,0.03,0.01,-0.00,0.00,-0.00,0.09,0.32,0.01,1100,1100,1100,1100,1020,1499,1524,11728,722
108952,0,-0.02,-0.09,0.02,0.018,-0.011,0.999,0.00,0.00,-0.00,0.03,0.02,0.12,-0.00,0.00,-0.00,0.11,0.51,-0.06,1100,1100,1100,1100,1020,1499,1524,11724,722
108964,0,-0.04,-0.08,-0.01,0.018,-0.011,1.000,0.00,0.00,-0.00,0.03,0.04,0.11,-0.00,0.00,-0.00,0.12,0.37,0.02,1100,1100,1100,1100,1020,1499,1524,11724,722
108976,0,0.05,-0.13,-0.11,0.018,-0.012,1.000,0.00,0.00,-0.00,0.03,-0.05,0.16,-0.00,0.00,-0.00,-0.01,0.44,0.28,1100,1100,1100,1100,1021,1499,1523,11724,722
108988,0,-0.09,-0.11,-0.03,0.018,-0.012,1.000,0.00,0.00,-0.00,0.03,0.09,0.15,-0.00,0.00,0.00,0.19,0.46,0.08,1100,1100,1100,1100,1021,1499,1523,11724,722
109000,0,0.01,-0.13,0.02,0.019,-0.012,1.001,0.00,0.00,0.00,0.03,-0.00,0.16,-0.00,0.00,0.00,-0.01,0.54,-0.04,1100,1100,1100,1100,1021,1499,1523,11724,722
109012,0,0.00,0.00,-0.07,0.019,-0.012,1.001,0.00,0.00,-0.00,0.03,-0.00,0.03,-0.00,0.00,0.00,0.02,0.00,0.17,1100,1100,1100,1100,1021,1499,1523,11724,722
109024,0,0.04,-0.08,0.30,0.017,-0.013,1.000,0.00,0.00,0.00,0.03,-0.04,0.11,-0.00,0.00,-0.00,-0.10,0.58,-0.76,1100,1100,1100,1100,1021,1499,1523,11716,718
109036,0,-0.05,-0.28,-0.38,0.022,-0.016,0.998,0.00,0.00,0.00,0.03,0.05,0.31,-0.00,0.00,-0.00,-0.06,0.46,0.94,1100,1100,1100,1100,1020,1499,1524,11711,718
109048,0,0.18,-0.02,-0.76,0.022,-0.016,0.996,0.00,0.00,0.01,0.03,-0.17,0.05,0.00,0.00,0.02,-0.57,-0.86,1.93,1100,1100,1100,1100,1020,1499,1523,11703,718
109060,0,0.36,0.23,0.55,0.018,-0.006,0.998,0.00,0.00,0.00,0.02,-0.35,-0.21,-0.00,0.00,0.02,-0.47,-1.24,-1.34,1100,1100,1100,1100,1022,1499,1523,11703,718
109072,0,0.33,0.36,0.74,0.012,-0.011,1.003,0.00,0.00,0.00,0.02,-0.33,-0.34,-0.00,0.00,-0.00,-0.62,-1.27,-1.86,1100,1100,1100,1100,1020,1499,1524,11703,718
109084,0,-0.02,-0.12,-0.13,0.009,-0.007,1.004,0.00,0.00,-0.01,0.03,0.01,0.15,-0.00,0.00,-0.00,0.24,0.91,0.33,1100,1100,1100,1100,1020,1499,1524,11695,718
109096,0,0.18,1.51,-0.21,-0.004,-0.004,1.019,0.00,0.00,-0.02,0.04,-0.20,-1.47,-0.00,0.00,0.00,-0.25,-4.35,0.52,1100,1100,1100,1100,1022,1499,1523,11666,718
109108,0,0.13,1.24,0.08,-0.019,0.004,1.035,0.00,0.00,-0.04,0.06,-0.17,-1.18,-0.00,-0.00,-0.00,0.24,-0.01,-0.20,1100,1100,1100,1100,1022,1499,1524,11641,718
109120,0,-0.26,0.20,0.00,-0.008,-0.006,1.025,0.00,0.00,-0.05,0.08,0.21,-0.12,-0.00,-0.00,-0.00,0.59,2.41,-0.01,1100,1100,1100,1100,1020,1499,1524,11637,724
109132,0,0.15,-0.75,-0.13,0.003,-0.010,1.023,0.00,0.00,-0.05,0.13,-0.20,0.88,-0.00,-0.00,0.00,-0.47,1.68,0.32,1100,1100,1100,1100,1023,1499,1521,11624,724
109144,0,0.18,0.28,0.16,0.007,-0.006,1.021,0.00,0.00,-0.06,0.16,-0.24,-0.12,-0.00,-0.00,-0.00,-0.18,-3.11,-0.41,1100,1100,1100,1100,1023,1499,1521,11632,724
109156,0,0.37,-1.10,0.15,0.022,-0.005,1.004,0.00,0.00,-0.07,0.20,-0.45,1.30,-0.00,0.00,-0.01,-0.71,1.57,-0.39,1100,1100,1100,1100,1023,1499,1521,11624,724
109168,0,0.10,-0.04,-0.21,0.019,-0.007,1.005,0.00,0.00,-0.08,0.22,-0.18,0.26,-0.00,0.00,-0.00,-0.29,-3.30,0.51,1100,1100,1100,1100,1023,1499,1521,11612,724
109180,0,0.02,-0.53,0.08,0.037,-0.013,0.986,0.00,0.00,-0.08,0.22,-0.10,0.76,-0.00,0.01,-0.01,-0.41,-1.48,-0.20,1100,1100,1100,1100,1023,1499,1521,11624,724
109192,0,-0.45,-0.65,-0.16,0.038,-0.013,0.974,0.00,0.00,-0.08,0.20,0.37,0.85,-0.00,0.01,-0.00,0.57,0.15,0.39,1100,1100,1100,1100,1023,1499,1521,11549,724
109204,0,0.02,-0.64,-0.36,0.030,-0.016,0.982,0.00,0.00,-0.07,0.18,-0.09,0.82,-0.00,0.01,0.00,-0.09,0.78,0.91,1100,1100,1100,1100,1023,1499,1521,11566,724
109216,0,0.14,-0.37,-0.07,0.029,-0.014,0.989,0.00,0.00,-0.07,0.17,-0.22,0.54,-0.00,0.01,0.01,0.02,-0.43,0.19,1100,1100,1100,1100,1023,1499,1521,11566,787
109228,0,0.01,-0.62,0.53,0.018,-0.014,1.002,0.00,0.00,-0.06,0.17,-0.07,0.78,-0.00,0.01,-0.00,0.04,3.44,-1.32,1100,1100,1100,1100,1023,1499,1526,11595,787
109240,0,0.24,-0.81,0.04,0.031,-0.016,0.992,0.00,0.00,-0.06,0.16,-0.30,0.97,-0.00,0.02,-0.01,-0.25,1.19,-0.10,1100,1100,1100,1100,1018,1499,1526,11616,787
109252,0,-0.08,-0.47,-0.39,0.030,-0.007,0.989,0.00,0.00,-0.06,0.15,0.02,0.62,-0.00,0.02,-0.00,0.43,-1.05,0.97,1100,1100,1100,1100,1023,1499,1521,11607,787
109264,0,-0.47,-1.18,-0.14,0.024,-0.008,0.990,0.00,0.00,-0.06,0.17,0.41,1.34,-0.00,0.02,0.01,0.78,1.49,0.35,1100,1100,1100,1100,1023,1499,1521,11603,787
109276,0,-0.25,-0.49,0.51,0.036,-0.018,0.978,0.00,0.00,-0.04,0.16,0.21,0.65,-0.00,0.02,-0.00,-0.31,-2.64,-1.29,1100,1100,1100,1100,1023,1499,1521,11599,787
109288,0,0.12,-1.32,-0.02,0.033,-0.011,0.969,0.00,0.00,-0.04,0.15,-0.16,1.48,-0.00,0.03,-0.01,-0.06,2.36,0.03,1100,1100,1100,1100,1023,1499,1521,11620,787
109300,0,-0.15,-0.05,-0.66,0.042,-0.012,0.979,0.00,0.00,-0.03,0.12,0.12,0.18,-0.00,0.03,0.01,0.42,-2.98,1.66,1100,1100,1100,1100,1023,1499,1521,11616,787
109312,0,0.39,0.72,0.59,0.028,-0.019,0.990,0.00,0.00,-0.02,0.08,-0.41,-0.64,-0.00,0.03,0.00,-0.68,-1.52,-1.48,1100,1100,1100,1100,1022,1499,1522,11624,787
109324,0,0.12,-1.51,-0.19,0.039,-0.014,0.987,0.00,0.00,-0.02,0.09,-0.14,1.60,-0.00,0.03,-0.00,0.15,3.11,0.47,1100,1100,1100,1100,1022,1499,1522,11612,717
109336,0,-0.53,-0.02,-0.21,0.041,-0.021,0.984,0.00,0.00,-0.00,0.05,0.53,0.07,-0.00,0.03,0.01,0.55,-2.57,0.54,1100,1100,1100,1100,1017,1499,1527,11620,717
109348,0,0.57,-0.56,0.35,0.031,-0.004,0.986,0.00,0.00,0.00,0.03,-0.57,0.59,-0.00,0.03,-0.01,-0.81,1.48,-0.89,1100,1100,1100,1100,1017,1499,1527,11649,717
109360,0,-1.26,0.82,-0.51,0.032,-0.014,0.983,0.00,0.00,0.02,0.00,1.28,-0.82,-0.00,0.03,0.01,2.07,-3.28,1.29,1100,1100,1100,1100,1017,1499,1527,11653,717
109372,0,1.32,0.03,0.19,0.006,-0.015,0.989,0.00,0.00,0.02,-0.01,-1.31,-0.04,-0.00,0.03,0.00,-2.52,2.15,-0.47,1100,1100,1100,1100,1017,1499,1527,11637,717
109384,0,-0.88,1.19,-0.15,0.038,-0.010,1.002,0.00,0.00,0.00,-0.01,0.88,-1.20,-0.00,0.03,0.00,1.95,-6.87,0.37,1100,1100,1100,1100,1017,1499,1527,11632,717
109396,0,0.65,-0.21,0.32,0.006,-0.033,0.993,0.00,0.00,0.04,-0.03,-0.61,0.18,-0.00,0.03,0.00,-2.04,3.27,-0.79,1100,1100,1100,1100,1017,1498,1521,11632,717
109408,0,-0.83,-1.30,-0.40,0.043,-0.003,1.007,0.00,0.00,0.01,0.04,0.85,1.34,-0.00,0.04,0.00,2.41,-0.76,1.01,1100,1100,1100,1100,1017,1499,1521,11624,717
109420,0,0.06,-0.11,0.04,0.045,-0.027,0.985,0.00,0.00,0.03,-0.03,-0.02,0.08,-0.00,0.03,0.01,-0.76,-0.95,-0.10,1100,1100,1100,1100,1017,1499,1521,11637,718
109432,0,-0.74,-1.37,-0.50,0.050,0.003,0.987,0.00,0.00,0.01,-0.01,0.75,1.36,-0.00,0.04,0.02,1.99,3.28,1.26,1100,1100,1100,1100,1001,1499,1543,11645,718
109444,0,-0.02,0.49,-0.18,0.062,-0.027,0.978,0.00,0.00,0.03,-0.10,0.05,-0.59,-0.00,0.04,0.03,-0.68,-2.35,0.48,1100,1100,1100,1100,1001,1499,1543,11645,718
109456,0,-0.51,-0.25,-0.72,0.034,-0.007,1.008,0.00,0.00,0.01,-0.10,0.52,0.16,-0.00,0.04,0.05,1.18,0.12,1.85,1100,1100,1100,1100,1001,1499,1543,11628,718
109468,0,0.42,0.85,-0.33,0.037,-0.031,0.984,0.00,0.00,0.03,-0.17,-0.38,-1.03,-0.00,0.03,0.06,-1.12,0.37,0.88,1100,1100,1100,1100,1001,1499,1521,11603,718
109480,0,-0.19,-2.48,-0.65,0.025,-0.023,0.989,0.00,0.00,0.03,-0.12,0.22,2.36,-0.00,0.04,0.07,0.74,5.07,1.69,1100,1100,1100,1100,1023,1499,1521,11599,718
109492,0,1.35,1.62,-0.26,0.037,-0.009,0.979,0.00,0.00,0.02,-0.17,-1.33,-1.80,-0.00,0.04,0.08,-2.16,-8.49,0.72,1100,1100,1100,1100,1023,1499,1521,11599,718
109504,0,-0.59,-0.91,-0.80,0.048,-0.027,0.969,0.00,0.00,0.04,-0.19,0.63,0.72,-0.00,0.04,0.10,0.82,3.08,2.10,1100,1100,1100,1100,1023,1499,1521,11612,718
109516,0,0.64,0.02,-0.21,0.028,0.020,0.969,0.00,0.00,0.01,-0.25,-0.63,-0.27,-0.00,0.04,0.11,-1.21,-2.71,0.64,1100,1100,1100,1100,1023,1499,1521,11599,718
109528,0,1.26,1.03,-0.79,0.015,-0.017,1.010,0.00,0.00,0.02,-0.25,-1.24,-1.28,-0.00,0.03,0.13,-3.19,-0.96,2.10,1100,1100,1100,1100,1023,1499,1527,11603,718
109540,0,-2.09,1.56,-0.06,0.009,-0.009,0.997,0.00,0.00,0.03,-0.30,2.12,-1.86,-0.00,0.03,0.13,4.07,-2.01,0.28,1100,1100,1100,1100,1017,1499,1527,11599,718
109552,0,1.46,-4.43,-0.12,0.078,-0.014,0.949,0.00,0.00,0.05,-0.29,-1.41,4.14,-0.00,0.04,0.14,-3.36,13.58,0.43,1100,1100,1100,1100,1017,1499,1527,11599,718
109564,0,-1.12,-2.40,-0.31,0.016,0.002,0.976,0.00,0.00,0.04,-0.29,1.16,2.10,-0.00,0.04,0.14,2.19,3.98,0.92,1100,1100,1100,1100,1017,1499,1527,11603,718
109576,0,0.59,1.76,0.17,0.023,-0.026,1.029,0.00,0.00,0.04,-0.29,-0.54,-2.05,-0.00,0.04,0.14,0.29,-10.54,-0.29,1100,1100,1100,1100,1019,1499,1525,11599,718
109588,0,-1.25,2.58,-0.25,-0.026,-0.019,1.057,0.00,0.00,0.03,-0.29,1.28,-2.86,-0.00,0.03,0.15,1.86,-1.53,0.79,1100,1100,1100,1100,1019,1499,1525,11620,718
109600,0,1.91,-0.50,0.02,0.017,-0.008,1.015,0.00,0.00,0.03,-0.27,-1.89,0.23,-0.00,0.03,0.15,-2.94,6.12,0.11,1100,1100,1100,1100,1019,1499,1525,11620,718
109612,0,-0.32,1.77,-0.20,0.030,-0.058,0.999,0.00,0.00,0.08,-0.27,0.40,-2.05,-0.00,0.03,0.16,-0.93,-8.62,0.66,1100,1100,1100,1100,1019,1499,1525,11620,718
109624,0,-1.35,-2.54,0.18,0.019,0.005,0.980,0.00,0.00,0.09,-0.27,1.43,2.27,-0.00,0.03,0.16,3.75,8.30,-0.29,1100,1100,1100,1100,1019,1499,1525,11620,762
109636,0,0.78,-3.88,0.11,0.071,-0.040,0.951,0.00,0.00,0.14,-0.26,-0.64,3.62,-0.00,0.04,0.16,-3.15,7.23,-0.11,1100,1100,1100,1100,1019,1499,1525,11620,762
109648,0,-1.60,-1.66,-0.34,0.027,0.013,0.988,0.00,0.00,0.12,-0.26,1.72,1.40,0.00,0.04,0.16,3.46,1.83,1.01,1100,1100,1100,1100,1019,1499,1523,11641,762
109660,0,1.14,1.80,-0.08,0.036,-0.031,0.996,0.00,0.00,0.14,-0.32,-1.00,-2.13,0.00,0.03,0.17,-2.46,-6.75,0.37,1100,1100,1100,1100,1023,1499,1523,11624,762
109672,0,-2.74,-0.72,-0.87,0.024,-0.001,1.008,0.00,0.00,0.10,-0.29,2.84,0.43,0.00,0.04,0.19,5.10,1.89,2.36,1100,1100,1100,1100,1017,1499,1527,11624,762
109684,0,2.23,-1.13,-0.50,-0.015,0.013,0.989,0.00,0.00,0.07,-0.28,-2.16,0.85,-0.00,0.03,0.20,-4.04,7.15,1.45,1100,1100,1100,1100,1017,1499,1527,11607,762
109696,0,1.31,2.71,-0.96,0.001,-0.022,1.012,0.00,0.00,0.07,-0.24,-1.23,-2.95,0.00,0.03,0.22,-3.63,-10.95,2.61,1100,1100,1100,1100,1017,1499,1527,11616,762
109708,0,0.46,3.32,-0.51,-0.084,0.019,1.073,0.00,0.00,0.04,-0.17,-0.42,-3.49,-0.00,0.03,0.23,0.42,-8.46,1.50,1100,1100,1100,1100,1017,1499,1527,11624,762
109720,0,0.32,3.92,0.44,-0.049,-0.023,1.070,0.00,0.00,0.04,-0.12,-0.27,-4.04,0.00,0.02,0.24,-0.77,-7.32,-0.85,1100,1100,1100,1100,1017,1499,1527,11624,718
109732,0,-0.67,0.66,-0.30,-0.033,0.016,1.047,0.00,0.00,-0.00,-0.04,0.67,-0.70,-0.00,0.02,0.25,2.43,3.92,0.99,1100,1100,1100,1100,1018,1499,1527,11624,718
109744,0,1.72,2.78,-0.18,-0.046,0.000,1.046,0.00,0.00,-0.02,-0.06,-1.75,-2.84,-0.00,0.01,0.26,-2.26,0.13,0.70,1100,1100,1100,1100,1018,1499,1527,11632,718
109756,0,-0.83,1.59,-0.95,-0.022,0.001,1.047,0.00,0.00,-0.05,-0.01,0.78,-1.60,-0.00,0.01,0.27,2.22,0.62,2.65,1100,1100,1100,1100,1018,1500,1526,11620,718
109768,0,-2.41,-0.41,-0.19,-0.034,0.003,1.031,0.00,0.00,-0.05,0.03,2.36,0.43,-0.00,0.00,0.28,5.25,8.72,0.75,1100,1100,1100,1100,1018,1498,1526,11612,718
109780,0,-1.40,1.12,-0.23,0.018,-0.033,1.012,0.00,0.00,-0.04,0.01,1.35,-1.11,-0.00,-0.00,0.29,2.18,1.18,0.86,1100,1100,1100,1100,1018,1498,1526,11591,718
109792,0,-1.28,-2.77,-0.54,0.035,-0.013,0.976,0.00,0.00,-0.03,0.04,1.25,2.81,0.00,-0.00,0.30,0.75,11.23,1.64,1100,1100,1100,1100,1017,1498,1526,11603,718
109804,0,0.74,2.64,-0.80,-0.014,0.003,1.027,0.00,0.00,-0.03,-0.02,-0.77,-2.66,0.00,-0.01,0.33,-2.47,-5.64,2.32,1100,1100,1100,1100,1017,1498,1526,11599,718
109816,0,1.27,1.36,-0.74,0.030,-0.031,1.000,0.00,0.00,0.01,0.00,-1.27,-1.36,0.00,-0.01,0.35,-4.46,-0.50,2.19,1100,1100,1100,1100,1020,1498,1524,11607,758
109828,0,-2.32,3.53,-0.60,-0.016,-0.019,1.001,0.00,0.00,0.04,-0.03,2.36,-3.56,0.00,-0.02,0.37,4.38,-7.38,1.87,1100,1100,1100,1100,1020,1498,1524,11632,758
109840,0,-0.02,3.75,-0.71,0.003,-0.043,1.036,0.00,0.00,0.07,-0.07,0.09,-3.82,0.00,-0.02,0.39,-0.19,-6.17,2.18,1100,1100,1100,1100,1015,1498,1524,11645,758
109852,0,-0.21,2.44,-0.68,-0.022,-0.005,1.039,0.00,0.00,0.06,-0.04,0.27,-2.48,0.00,-0.03,0.41,-0.39,-0.86,2.11,1100,1100,1100,1100,1020,1499,1524,11628,758
109864,0,1.73,-0.43,-1.13,-0.022,0.010,1.042,0.00,0.00,0.05,-0.03,-1.68,0.40,0.00,-0.03,0.43,-2.34,8.90,3.26,1100,1100,1100,1100,1020,1499,1524,11599,758
109876,0,1.57,1.85,-0.66,0.014,-0.012,1.021,0.00,0.00,0.05,-0.01,-1.52,-1.86,0.00,-0.03,0.46,-2.81,-7.36,2.12,1100,1100,1100,1100,1018,1499,1524,11599,758
109888,0,-1.90,-1.56,-1.18,-0.023,-0.002,1.025,0.00,0.00,0.04,0.04,1.94,1.60,0.00,-0.03,0.49,5.08,9.55,3.44,1100,1100,1100,1100,1018,1499,1526,11599,758
109900,0,-0.78,0.36,-0.61,0.008,-0.046,1.023,0.00,0.00,0.07,0.05,0.85,-0.31,0.00,-0.03,0.51,1.86,-1.63,2.04,1100,1100,1100,1100,1018,1499,1526,11603,758
109912,0,-0.74,-0.73,-1.03,0.014,-0.023,1.000,0.00,0.00,0.09,0.10,0.83,0.83,0.00,-0.03,0.55,0.21,-0.06,3.13,1100,1100,1100,1100,1018,1499,1526,11620,758
109924,0,-0.35,-1.51,-1.01,-0.001,-0.004,1.020,0.00,0.00,0.10,0.09,0.45,1.60,0.00,-0.03,0.57,0.17,6.13,3.10,1100,1100,1100,1100,1018,1499,1526,11620,717
109936,0,0.33,-0.37,-0.35,0.034,-0.007,0.998,0.00,0.00,0.12,0.11,-0.21,0.47,0.00,-0.03,0.59,-1.89,1.32,1.48,1100,1100,1100,1100,1018,1499,1526,11624,717
109948,0,-0.47,2.69,-1.59,-0.025,-0.003,1.038,0.00,0.00,0.11,0.14,0.58,-2.55,0.00,-0.03,0.62,0.71,-10.53,4.59,1100,1100,1100,1100,1018,1499,1526,11607,717
109960,0,1.48,0.34,-0.22,-0.012,-0.010,1.023,0.00,0.00,0.09,0.16,-1.39,-0.17,0.00,-0.03,0.64,-2.34,1.24,1.18,1100,1100,1100,1100,1018,1499,1526,11607,717
109972,0,1.45,-0.44,-1.20,0.009,-0.019,1.001,0.00,0.00,0.09,0.22,-1.37,0.65,0.00,-0.03,0.67,-2.62,-1.16,3.67,1100,1100,1100,1100,1019,1499,1525,11624,717
109984,0,-2.69,2.35,-0.92,-0.009,-0.014,0.992,0.00,0.00,0.12,0.20,2.81,-2.16,0.00,-0.03,0.68,5.48,-7.30,2.99,1100,1100,1100,1100,1019,1499,1525,11599,717
109996,0,0.15,0.78,0.26,-0.017,-0.019,1.045,0.00,0.00,0.11,0.22,-0.04,-0.55,0.00,-0.03,0.70,0.28,1.99,0.04,1100,1100,1100,1100,1000,1499,1548,11595,717
110008,0,-1.38,1.48,-0.87,-0.048,-0.017,1.035,0.00,0.00,0.10,0.27,1.48,-1.21,0.01,-0.04,0.71,1.70,0.84,2.88,1100,1100,1100,1100,1000,1499,1525,11599,717
110020,0,-0.20,-0.08,0.13,-0.006,0.032,1.054,0.00,0.00,0.04,0.31,0.25,0.39,0.00,-0.04,0.71,1.24,3.10,0.38,1100,1100,1100,1100,1019,1499,1525,11599,722
110032,0,-0.14,-2.94,0.35,0.020,-0.029,0.995,0.00,0.00,0.09,0.37,0.23,3.31,0.01,-0.03,0.71,-1.52,11.41,-0.16,1100,1100,1100,1100,1006,1499,1541,11612,722
110044,0,-1.36,-0.37,-0.22,-0.016,0.001,1.019,0.00,0.00,0.07,0.46,1.43,0.83,0.01,-0.03,0.71,2.76,-6.17,1.25,1100,1100,1100,1100,1006,1499,1541,11616,722
110056,0,3.88,-2.24,0.64,0.006,-0.007,1.009,0.00,0.00,0.06,0.53,-3.82,2.77,0.01,-0.02,0.70,-8.15,1.38,-0.90,1100,1100,1100,1100,1006,1499,1541,11599,722
110068,0,-0.33,1.24,-0.87,0.016,-0.013,0.995,0.00,0.00,0.04,0.57,0.37,-0.67,0.01,-0.02,0.72,0.83,-10.72,2.89,1100,1100,1100,1100,1006,1499,1549,11607,722
110080,0,-0.46,1.83,-0.47,-0.020,0.023,1.031,0.00,0.00,-0.01,0.56,0.45,-1.27,0.00,-0.02,0.71,2.83,-2.94,1.88,1100,1100,1100,1100,1000,1499,1549,11624,722
110092,0,-2.13,4.90,0.17,-0.025,-0.011,1.037,0.00,0.00,-0.03,0.52,2.10,-4.38,0.01,-0.03,0.73,4.41,-10.60,0.30,1100,1100,1100,1100,1000,1498,1549,11637,722
110104,0,-0.91,0.55,-1.05,-0.001,0.012,1.012,0.00,0.00,-0.07,0.54,0.84,-0.01,0.01,-0.03,0.74,1.81,7.12,3.37,1100,1100,1100,1100,1000,1498,1549,11612,722
110116,0,1.69,1.53,-0.03,-0.024,-0.004,1.039,0.00,0.00,-0.08,0.50,-1.77,-1.03,0.00,-0.04,0.75,-4.35,5.05,0.83,1100,1100,1100,1100,1012,1498,1532,11607,720
110128,0,0.25,1.51,-1.00,-0.002,0.002,1.038,0.00,0.00,-0.07,0.52,-0.33,-0.99,0.01,-0.04,0.79,-1.39,-0.33,3.28,1100,1100,1100,1100,1012,1499,1527,11607,720
110140,0,-1.17,2.82,-0.53,-0.050,-0.028,1.062,0.00,0.00,-0.05,0.55,1.12,-2.27,0.01,-0.04,0.79,2.38,-2.66,2.12,1100,1100,1100,1100,1016,1499,1527,11612,720
110152,0,-0.24,0.10,0.34,-0.038,-0.034,1.055,0.00,0.00,-0.02,0.63,0.22,0.54,0.01,-0.04,0.81,-0.13,2.49,-0.04,1100,1100,1100,1100,1020,1499,1524,11624,720
110164,0,-0.18,-4.15,-0.56,-0.013,-0.050,0.980,0.00,0.00,0.02,0.77,0.21,4.92,0.01,-0.03,0.81,-0.38,10.32,2.20,1100,1100,1100,1100,1020,1499,1524,11620,720
110176,0,-0.82,-5.45,0.41,0.035,-0.005,0.973,0.00,0.00,0.06,0.85,0.88,6.31,0.01,-0.02,0.80,1.37,9.88,-0.23,1100,1100,1100,1100,1020,1499,1524,11620,720
110188,0,0.51,-0.53,-0.03,0.074,-0.041,0.933,0.00,0.00,0.10,0.84,-0.40,1.37,0.01,-0.01,0.80,-0.90,-10.18,0.87,1100,1100,1100,1100,1020,1499,1524,11607,720
110200,0,0.39,-1.62,0.09,0.071,-0.038,0.954,0.00,0.00,0.12,0.79,-0.27,2.42,0.01,-0.01,0.80,-0.49,1.18,0.58,1100,1100,1100,1100,1020,1499,1524,11620,720
110212,0,2.60,-0.51,0.08,0.040,-0.019,0.972,0.00,0.00,0.14,0.72,-2.47,1.23,0.01,-0.00,0.80,-4.37,-1.89,0.61,1100,1100,1100,1100,1019,1499,1525,11637,720
110224,0,0.67,-1.15,-0.47,0.076,-0.026,0.913,0.00,0.00,0.16,0.69,-0.51,1.83,0.01,0.00,0.81,-0.77,-4.54,1.98,1100,1100,1100,1100,1019,1499,1525,11637,719
110236,0,-2.51,-3.04,-0.48,0.042,-0.025,0.950,0.00,0.00,0.21,0.65,2.73,3.69,0.01,0.01,0.81,6.36,9.12,2.01,1100,1100,1100,1100,1019,1499,1525,11624,719
110248,0,-2.04,1.86,0.09,0.030,-0.054,0.964,0.00,0.00,0.25,0.54,2.28,-1.32,0.01,0.01,0.81,4.63,-5.11,0.59,1100,1100,1100,1100,1019,1499,1525,11628,719
110260,0,-0.65,1.37,-0.46,0.002,-0.038,0.990,0.00,0.00,0.28,0.56,0.93,-0.80,0.01,0.01,0.83,0.15,-1.94,1.97,1100,1100,1100,1100,1019,1499,1525,11624,719
110272,0,0.59,3.77,-0.06,-0.064,-0.010,1.080,0.00,0.00,0.30,0.55,-0.29,-3.22,0.01,-0.00,0.83,-2.50,-5.12,0.98,1100,1100,1100,1100,1010,1499,1534,11624,719
110284,0,1.37,3.46,-0.25,-0.044,-0.001,1.078,0.00,0.00,0.32,0.59,-1.05,-2.87,0.01,-0.01,0.85,-3.60,-1.48,1.49,1100,1100,1100,1100,1010,1499,1534,11620,719
110296,0,0.05,-0.02,-0.67,-0.052,-0.028,1.079,0.00,0.00,0.33,0.68,0.27,0.70,0.01,-0.01,0.86,-0.15,8.58,2.55,1100,1100,1100,1100,1010,1499,1534,11624,719
110308,0,-0.65,1.61,-0.19,-0.033,-0.007,1.059,0.00,0.00,0.32,0.73,0.97,-0.88,0.01,-0.01,0.88,2.18,-2.48,1.34,1100,1100,1100,1100,1010,1499,1526,11599,719
110320,0,1.20,-0.91,-1.12,-0.027,-0.038,1.013,0.00,0.00,0.33,0.85,-0.87,1.76,0.01,-0.01,0.89,-2.27,1.68,3.69,1100,1100,1100,1100,1018,1499,1526,11595,720
110332,0,-1.53,-3.78,0.10,0.022,0.013,0.987,0.00,0.00,0.31,0.92,1.84,4.69,0.01,0.00,0.89,3.48,9.18,0.65,1100,1100,1100,1100,1018,1499,1526,11574,720
110344,0,0.56,-2.36,0.46,0.044,-0.016,0.959,0.00,0.00,0.32,0.94,-0.24,3.31,0.01,0.01,0.89,-0.49,-3.36,-0.27,1100,1100,1100,1100,1018,1499,1526,11578,720
110356,0,-1.15,-4.83,0.43,0.080,-0.020,0.937,0.00,0.00,0.32,0.92,1.47,5.75,0.01,0.02,0.88,1.55,10.22,-0.20,1100,1100,1100,1100,1016,1499,1528,11587,720
110368,0,0.17,1.08,0.31,0.039,-0.005,0.978,0.00,0.00,0.31,0.84,0.13,-0.24,0.01,0.02,0.87,0.61,-6.40,0.10,1100,1100,1100,1100,1016,1499,1528,11574,720
110380,0,1.62,-0.77,-0.26,0.083,-0.035,0.936,0.00,0.00,0.32,0.76,-1.30,1.53,0.01,0.03,0.87,-4.01,0.09,1.52,1100,1100,1100,1100,1016,1499,1528,11595,720
110392,0,-1.58,-1.69,-0.04,0.050,-0.007,0.952,0.00,0.00,0.32,0.71,1.90,2.39,0.01,0.03,0.87,4.15,6.43,0.96,1100,1100,1100,1100,1018,1499,1526,11595,720
110404,0,1.33,3.13,0.69,0.032,-0.035,0.994,0.00,0.00,0.33,0.61,-1.00,-2.52,0.01,0.03,0.87,-2.21,-9.42,-0.85,1100,1100,1100,1100,1018,1499,1526,11607,720
110416,0,0.01,4.10,-0.53,0.001,-0.020,1.034,0.00,0.00,0.33,0.58,0.32,-3.52,0.01,0.02,0.88,-0.59,-8.23,2.21,1100,1100,1100,1100,1018,1499,1526,11603,749
110428,0,1.31,0.82,0.17,-0.016,0.014,1.052,0.00,0.00,0.29,0.55,-1.02,-0.27,0.01,0.02,0.87,-1.03,5.53,0.44,1100,1100,1100,1100,1018,1499,1526,11616,749
110440,0,0.37,1.47,-0.29,0.019,-0.004,1.034,0.00,0.00,0.30,0.55,-0.07,-0.92,0.01,0.02,0.88,-0.66,-0.08,1.61,1100,1100,1100,1100,1019,1499,1526,11620,749
110452,0,0.27,1.65,-0.64,-0.047,0.009,1.079,0.00,0.00,0.25,0.60,-0.02,-1.05,0.01,0.02,0.88,0.30,-3.25,2.47,1100,1100,1100,1100,1019,1499,1526,11607,749
110464,0,1.07,0.38,0.35,-0.018,0.018,1.047,0.00,0.00,0.19,0.63,-0.88,0.25,0.01,0.01,0.89,-1.29,4.50,0.02,1100,1100,1100,1100,1019,1499,1526,11612,749
110476,0,-0.07,0.62,-1.18,-0.004,0.001,1.030,0.00,0.00,0.13,0.69,0.21,0.07,0.01,0.02,0.91,1.26,-1.99,3.87,1100,1100,1100,1100,1019,1499,1526,11595,749
110488,0,-0.45,-1.43,0.10,0.000,0.043,1.023,0.00,0.00,0.05,0.71,0.50,2.13,0.01,0.02,0.90,2.43,5.04,0.65,1100,1100,1100,1100,1019,1499,1527,11599,749
110500,0,0.50,0.89,-0.30,0.017,0.022,1.016,0.00,0.00,-0.02,0.71,-0.52,-0.19,0.01,0.02,0.92,0.13,-2.71,1.68,1100,1100,1100,1100,1017,1499,1527,11607,749
110512,0,0.51,-3.99,-0.00,0.062,0.022,0.973,0.00,0.00,-0.10,0.71,-0.61,4.70,0.01,0.03,0.91,-0.63,10.91,0.92,1100,1100,1100,1100,1017,1499,1527,11599,749
110524,0,0.84,-1.64,0.66,0.056,0.031,0.964,0.00,0.00,-0.17,0.66,-1.01,2.30,0.01,0.03,0.92,-1.02,3.21,-0.74,1100,1100,1100,1100,1017,1499,1527,11603,721
110536,0,-0.35,1.34,-0.83,0.045,-0.006,0.983,0.00,0.00,-0.20,0.63,0.15,-0.71,0.01,0.04,0.93,-0.16,-11.57,3.01,1100,1100,1100,1100,1018,1499,1526,11599,721
110548,0,-1.36,-2.66,0.05,0.053,0.026,0.970,0.00,0.00,-0.24,0.59,1.12,3.25,0.01,0.04,0.93,2.69,10.52,0.79,1100,1100,1100,1100,1018,1499,1524,11616,721
110560,0,-0.20,1.81,0.31,0.025,-0.024,0.991,0.00,0.00,-0.25,0.53,-0.04,-1.28,0.01,0.04,0.93,0.37,-8.72,0.15,1100,1100,1100,1100,1020,1499,1524,11607,721
110572,0,-0.89,-2.34,-0.00,0.064,-0.002,0.940,0.00,0.00,-0.23,0.53,0.66,2.87,0.01,0.05,0.93,-0.29,4.36,0.94,1100,1100,1100,1100,1020,1499,1524,11628,721
110584,0,1.69,1.84,0.18,0.013,-0.009,0.999,0.00,0.00,-0.21,0.49,-1.90,-1.35,0.01,0.05,0.92,-4.37,-7.98,0.47,1100,1100,1100,1100,1020,1499,1524,11620,721
110596,0,-0.86,3.72,-0.44,0.025,-0.016,0.999,0.00,0.00,-0.15,0.43,0.71,-3.30,0.01,0.04,0.92,0.13,-9.42,2.02,1100,1100,1100,1100,1020,1499,1524,11628,721
110608,0,-2.84,0.47,0.06,-0.042,-0.021,1.042,0.00,0.00,-0.13,0.44,2.71,-0.03,0.01,0.04,0.91,6.69,7.79,0.77,1100,1100,1100,1100,1020,1499,1528,11637,721
110620,0,0.21,-1.61,0.59,0.033,-0.039,0.986,0.00,0.00,-0.11,0.44,-0.32,2.05,0.01,0.04,0.92,-0.79,6.60,-0.57,1100,1100,1100,1100,1016,1499,1528,11632,722
110632,0,0.28,-0.76,-0.80,0.007,-0.026,0.999,0.00,0.00,-0.11,0.51,-0.38,1.26,0.01,0.05,0.92,-0.19,-1.32,2.91,1100,1100,1100,1100,1016,1499,1528,11624,722
110644,0,-0.25,-2.20,0.25,0.002,0.003,1.016,0.00,0.00,-0.12,0.50,0.13,2.70,0.01,0.05,0.91,0.83,8.77,0.29,1100,1100,1100,1100,1016,1499,1528,11607,722
110656,0,-0.83,-0.78,0.12,0.051,-0.016,0.991,0.00,0.00,-0.10,0.52,0.73,1.30,0.01,0.05,0.92,2.11,-1.63,0.63,1100,1100,1100,1100,1016,1499,1528,11599,722
110668,0,0.29,-5.00,0.11,0.090,-0.027,0.944,0.00,0.00,-0.07,0.51,-0.37,5.51,0.01,0.06,0.92,-3.27,11.71,0.63,1100,1100,1100,1100,1016,1499,1524,11628,722
110680,0,0.22,4.10,0.09,0.024,0.008,0.998,0.00,0.00,-0.07,0.42,-0.29,-3.68,0.01,0.06,0.92,-1.70,-21.62,0.70,1100,1100,1100,1100,1021,1499,1524,11632,722
110692,0,1.89,1.41,-0.91,0.040,-0.002,0.953,0.00,0.00,-0.06,0.38,-1.95,-1.02,0.01,0.06,0.94,-4.42,-4.95,3.21,1100,1100,1100,1100,1021,1499,1524,11637,722
110704,0,-2.65,0.99,-0.53,-0.013,-0.019,1.007,0.00,0.00,-0.03,0.36,2.62,-0.63,0.01,0.06,0.95,5.06,4.79,2.28,1100,1100,1100,1100,1021,1499,1524,11624,722
110716,0,-0.25,3.65,-0.53,-0.023,-0.032,1.044,0.00,0.00,-0.01,0.35,0.24,-3.31,0.01,0.05,0.96,1.44,-8.78,2.27,1100,1100,1100,1100,1034,1499,1524,11628,717
110728,0,-0.52,0.11,-0.24,0.006,-0.043,1.006,0.00,0.00,0.02,0.39,0.54,0.28,0.01,0.05,0.96,-0.00,4.11,1.56,1100,1100,1100,1100,1034,1499,1524,11603,717
110740,0,0.12,3.45,-0.24,-0.056,0.004,1.094,0.00,0.00,0.02,0.38,-0.10,-3.07,0.01,0.04,0.98,0.03,-3.70,1.57,1100,1100,1100,1100,1037,1499,1524,11607,717
110752,0,0.36,3.56,-0.09,-0.019,-0.026,1.060,0.00,0.00,0.06,0.37,-0.29,-3.19,0.01,0.04,0.99,-1.15,-2.48,1.21,1100,1100,1100,1100,1041,1499,1525,11616,717
110764,0,-1.45,-3.65,-0.10,-0.023,-0.040,1.058,0.00,0.00,0.09,0.48,1.54,4.13,0.01,0.04,0.99,3.06,17.19,1.26,1100,1100,1100,1100,1041,1499,1525,11612,717
110776,0,-0.04,-1.87,0.29,0.006,-0.028,1.040,0.00,0.00,0.12,0.52,0.16,2.39,0.01,0.04,0.99,0.04,5.62,0.27,1100,1100,1100,1100,1044,1499,1525,11582,717
110788,0,0.88,2.98,-0.81,-0.011,-0.032,1.053,0.00,0.00,0.12,0.56,-0.76,-2.42,0.01,0.04,1.00,-1.88,-14.01,3.02,1100,1100,1100,1100,1044,1499,1524,11566,717
110800,0,0.19,-3.86,0.28,0.008,-0.002,0.999,0.00,0.00,0.10,0.61,-0.09,4.47,0.01,0.05,0.99,0.56,16.78,0.30,1100,1100,1100,1100,1046,1499,1524,11566,717
110812,0,0.41,-0.52,0.98,0.063,-0.011,0.972,0.00,0.00,0.10,0.62,-0.31,1.14,0.01,0.06,0.98,-0.04,-8.64,-1.46,1100,1100,1100,1100,1046,1499,1523,11557,717
110824,0,-0.02,-2.92,-0.10,0.062,-0.019,0.964,0.00,0.00,0.10,0.59,0.12,3.50,0.01,0.06,0.98,-0.19,4.51,1.21,1100,1100,1100,1100,1046,1499,1523,11557,717
110836,0,-0.09,-0.47,0.45,0.056,0.002,0.971,0.00,0.00,0.09,0.51,0.18,0.98,0.01,0.06,0.97,0.61,2.85,-0.16,1100,1100,1100,1100,1046,1499,1523,11562,717
110848,0,2.00,1.03,-0.98,0.044,-0.016,0.988,0.00,0.00,0.11,0.46,-1.89,-0.57,0.01,0.06,0.99,-4.61,-5.73,3.44,1100,1100,1100,1100,1046,1499,1523,11566,717
110860,0,-1.99,4.27,-0.20,-0.006,-0.023,1.028,0.00,0.00,0.12,0.40,2.11,-3.86,0.01,0.06,0.98,3.76,-11.27,1.48,1100,1100,1100,1100,1057,1499,1523,11595,717
110872,0,0.28,2.41,0.33,-0.015,-0.027,1.037,0.00,0.00,0.15,0.37,-0.14,-2.04,0.01,0.05,0.99,0.06,-0.56,0.17,1100,1100,1100,1100,1066,1499,1523,11599,717
110884,0,-1.30,3.41,-0.80,-0.052,-0.050,1.057,0.00,0.00,0.19,0.39,1.49,-3.02,0.01,0.05,1.00,1.22,-0.82,3.00,1100,1100,1100,1100,1066,1499,1523,11599,717
110896,0,-0.95,-3.68,0.18,-0.016,0.025,1.034,0.00,0.00,0.17,0.47,1.12,4.15,0.01,0.05,1.00,2.80,17.13,0.54,1100,1100,1100,1100,1066,1499,1524,11603,717
110908,0,-0.65,-1.48,0.09,0.024,-0.029,1.004,0.00,0.00,0.23,0.50,0.89,1.97,0.02,0.05,1.01,-0.12,4.54,0.77,1100,1100,1100,1100,1066,1499,1524,11616,717
110920,0,-1.47,-2.29,0.40,0.001,-0.012,1.026,0.00,0.00,0.21,0.59,1.68,2.87,0.02,0.06,1.00,2.14,1.83,-0.01,1100,1100,1100,1100,1073,1499,1524,11616,718
110932,0,2.95,-3.11,0.33,0.010,-0.002,0.975,0.00,0.00,0.21,0.63,-2.74,3.74,0.02,0.06,1.00,-6.46,9.97,0.17,1100,1100,1100,1100,1079,1499,1521,11603,718
110944,0,1.04,0.15,-0.98,0.055,-0.020,0.967,0.00,0.00,0.19,0.66,-0.86,0.50,0.02,0.07,1.01,-1.58,-10.99,3.46,1100,1100,1100,1100,1079,1499,1521,11607,718
110956,0,-1.07,-3.80,0.01,0.029,0.014,0.942,0.00,0.00,0.16,0.66,1.23,4.46,0.01,0.08,1.00,4.09,11.11,0.97,1100,1100,1100,1100,1079,1499,1521,11603,718
110968,0,-1.54,3.16,0.13,0.041,-0.046,0.959,0.00,0.00,0.20,0.59,1.74,-2.57,0.02,0.08,1.00,2.92,-18.79,0.68,1100,1100,1100,1100,1079,1499,1521,11582,718
110980,0,-0.61,-1.11,-0.22,0.058,-0.024,0.966,0.00,0.00,0.20,0.56,0.81,1.67,0.02,0.08,1.01,0.48,3.25,1.57,1100,1100,1100,1100,1096,1499,1521,11582,718
110992,0,0.90,-0.13,0.20,0.011,-0.018,0.995,0.00,0.00,0.22,0.48,-0.68,0.61,0.02,0.08,1.01,-2.47,5.88,0.50,1100,1100,1100,1100,1099,1499,1523,11574,718
111004,0,1.23,-2.68,-0.70,0.090,-0.011,0.964,0.00,0.00,0.24,0.47,-0.99,3.15,0.02,0.09,1.02,-2.84,3.99,2.78,1100,1100,1100,1100,1099,1499,1523,11578,718
111016,0,-2.28,-0.59,-0.11,0.020,-0.045,0.986,0.00,0.00,0.29,0.45,2.57,1.03,0.02,0.09,1.02,4.61,0.88,1.29,1100,1100,1100,1100,1109,1499,1521,11578,765
111028,0,0.04,0.61,0.01,0.037,-0.030,0.988,0.00,0.00,0.32,0.41,0.28,-0.21,0.02,0.09,1.04,0.09,-6.49,1.02,1100,1100,1100,1100,1109,1499,1523,11587,765
111040,0,0.42,-2.15,-0.75,0.067,-0.060,0.953,0.00,0.00,0.38,0.40,-0.05,2.55,0.02,0.10,1.05,-1.92,5.27,2.93,1100,1100,1100,1100,1111,1499,1523,11582,765
111052,0,-1.09,-2.21,-0.02,0.047,-0.013,0.975,0.00,0.00,0.40,0.35,1.49,2.57,0.02,0.10,1.06,2.31,3.11,1.11,1100,1100,1100,1100,1120,1499,1524,11574,765
111064,0,1.13,0.06,-0.77,0.081,-0.019,0.958,0.00,0.00,0.46,0.29,-0.67,0.23,0.02,0.11,1.07,-2.54,-5.02,2.99,1100,1100,1100,1100,1120,1499,1524,11566,765
111076,0,-0.45,-1.40,0.26,0.036,-0.022,0.968,0.00,0.00,0.47,0.28,0.92,1.68,0.02,0.11,1.07,0.44,0.15,0.42,1100,1100,1100,1100,1120,1499,1525,11570,765
111088,0,1.83,-2.43,-0.05,0.061,0.006,0.950,0.00,0.00,0.44,0.23,-1.39,2.66,0.02,0.11,1.08,-2.60,4.46,1.20,1100,1100,1100,1100,1120,1499,1525,11599,765
111100,0,0.60,0.39,-0.52,0.042,-0.040,0.976,0.00,0.00,0.45,0.21,-0.15,-0.18,0.02,0.12,1.08,-1.36,-5.56,2.38,1100,1100,1100,1100,1120,1499,1525,11587,765
111112,0,-2.24,-5.79,-0.05,0.014,0.007,0.993,0.00,0.00,0.45,0.27,2.69,6.06,0.02,0.13,1.09,5.27,15.54,1.21,1100,1100,1100,1100,1132,1499,1524,11595,765
111124,0,-1.75,0.15,0.02,0.019,-0.039,0.987,0.00,0.00,0.49,0.28,2.24,0.13,0.02,0.13,1.09,3.70,-7.12,1.05,1100,1100,1100,1100,1132,1499,1524,11599,720
111136,0,0.68,-0.37,0.17,0.040,-0.020,0.994,0.00,0.00,0.48,0.30,-0.19,0.67,0.02,0.13,1.09,-2.34,-3.04,0.66,1100,1100,1100,1100,1139,1500,1524,11595,720
111148,0,2.73,1.42,0.35,-0.013,-0.006,1.006,0.00,0.00,0.45,0.25,-2.27,-1.17,0.02,0.13,1.09,-4.42,2.77,0.21,1100,1100,1100,1100,1139,1500,1524,11603,720
111160,0,2.15,2.24,-0.45,0.013,-0.009,1.037,0.00,0.00,0.43,0.26,-1.72,-1.98,0.02,0.12,1.10,-3.55,-6.26,2.21,1100,1100,1100,1100,1140,1500,1524,11612,720
111172,0,-1.01,1.88,-0.79,-0.033,-0.000,1.035,0.00,0.00,0.42,0.29,1.42,-1.58,0.02,0.12,1.10,3.09,-2.07,3.07,1100,1100,1100,1100,1144,1499,1523,11616,720
111184,0,-0.82,1.67,-0.02,-0.011,-0.016,1.017,0.00,0.00,0.43,0.32,1.25,-1.35,0.02,0.12,1.11,2.45,-3.12,1.18,1100,1100,1100,1100,1144,1499,1523,11603,720
111196,0,-1.12,-2.86,-0.79,0.005,-0.030,1.018,0.00,0.00,0.45,0.41,1.57,3.27,0.03,0.12,1.13,1.49,9.87,3.11,1100,1100,1100,1100,1144,1499,1523,11620,720
111208,0,0.49,-0.45,0.15,0.019,0.015,0.997,0.00,0.00,0.43,0.41,-0.05,0.85,0.03,0.13,1.13,-0.78,-2.51,0.75,1100,1100,1100,1100,1144,1499,1522,11620,720
111220,0,2.55,-1.25,-0.54,0.059,-0.020,0.987,0.00,0.00,0.44,0.38,-2.11,1.63,0.03,0.13,1.15,-5.14,2.11,2.50,1145,1155,1151,1149,1150,1499,1522,11624,720
111232,0,-2.36,-0.44,-0.19,0.049,-0.011,0.958,0.00,0.00,0.45,0.32,2.80,0.77,0.03,0.13,1.14,4.88,2.72,1.61,1145,1155,1151,1149,1160,1499,1522,11624,720
111244,0,-0.50,1.24,0.40,0.046,-0.019,0.968,0.00,0.00,0.45,0.26,0.94,-0.99,0.03,0.13,1.15,2.11,-5.63,0.16,1145,1155,1151,1149,1160,1499,1522,11620,720
111256,0,-0.87,-0.68,-0.32,0.053,-0.044,0.962,0.00,0.00,0.48,0.22,1.36,0.90,0.03,0.13,1.15,-0.49,1.04,1.94,1145,1155,1151,1149,1160,1499,1522,11603,720
111268,0,-1.10,-0.38,0.53,-0.010,0.028,1.021,0.00,0.00,0.44,0.20,1.54,0.58,0.03,0.13,1.14,2.49,3.89,-0.19,1145,1155,1151,1149,1160,1499,1521,11620,720
111280,0,0.77,-0.90,0.17,0.040,-0.024,0.969,0.00,0.00,0.49,0.21,-0.28,1.11,0.03,0.13,1.14,-2.59,4.55,0.72,1145,1155,1151,1149,1161,1499,1521,11553,720
111292,0,-2.38,-2.57,-0.40,0.047,-0.036,0.980,0.00,0.00,0.49,0.26,2.87,2.82,0.03,0.14,1.14,3.90,1.74,2.13,1145,1155,1151,1149,1174,1499,1522,11541,720
111304,0,1.65,0.52,-0.34,-0.006,0.004,1.002,0.00,0.00,0.48,0.24,-1.16,-0.28,0.03,0.14,1.15,-2.10,-1.48,2.00,1145,1155,1151,1149,1174,1499,1522,11528,720
111316,0,2.88,1.82,0.20,0.087,-0.006,0.941,0.00,0.00,0.50,0.15,-2.38,-1.68,0.03,0.14,1.16,-6.55,-9.80,0.66,1172,1190,1160,1178,1175,1499,1522,11532,718
111328,0,-1.55,2.72,-0.44,0.003,-0.004,1.034,0.00,0.00,0.45,0.13,2.01,-2.60,0.03,0.14,1.17,4.56,-6.52,2.26,1172,1190,1160,1178,1175,1499,1536,11462,718
111340,0,1.47,5.00,-0.52,-0.091,0.034,1.139,0.00,0.00,0.32,0.10,-1.15,-4.90,0.03,0.13,1.18,0.71,-4.35,2.47,1172,1190,1160,1178,1175,1499,1536,11462,718
111352,0,-1.53,7.24,-0.22,-0.059,-0.037,1.070,0.00,0.00,0.35,0.10,1.88,-7.15,0.03,0.12,1.19,4.32,-17.05,1.73,1172,1190,1160,1178,1175,1499,1536,11470,718
111364,0,-1.46,-0.10,-1.05,-0.003,-0.041,1.042,0.00,0.00,0.39,0.20,1.85,0.30,0.03,0.12,1.21,1.36,0.49,3.83,1172,1190,1160,1178,1175,1499,1536,11458,718
111376,0,1.23,-4.47,-0.54,-0.011,0.014,1.068,0.00,0.00,0.38,0.30,-0.86,4.77,0.03,0.13,1.22,-4.10,14.39,2.58,1172,1190,1160,1178,1191,1499,1525,11462,718
111388,0,2.15,-0.53,-0.14,-0.026,0.057,1.065,0.00,0.00,0.33,0.36,-1.82,0.89,0.03,0.13,1.23,-5.49,-2.62,1.57,1172,1190,1160,1178,1191,1499,1525,11483,718
111400,0,0.47,-0.75,-0.68,0.080,0.037,0.990,0.00,0.00,0.25,0.40,-0.21,1.15,0.03,0.14,1.26,0.64,-7.32,2.97,1172,1190,1160,1178,1200,1499,1525,11487,718
111412,0,1.10,-1.29,-1.75,0.051,-0.025,0.996,0.00,0.00,0.17,0.43,-0.94,1.72,0.03,0.15,1.28,0.54,-6.84,5.65,1172,1190,1160,1178,1200,1499,1525,11478,718
111424,0,1.05,-2.02,-0.70,-0.045,0.018,1.085,0.00,0.00,0.06,0.44,-0.99,2.46,0.03,0.15,1.30,-0.33,1.38,3.05,1186,1212,1196,1206,1200,1499,1525,11478,718
111436,0,-2.29,2.49,-1.14,-0.078,0.049,1.137,0.00,0.00,0.03,0.38,2.32,-2.11,0.03,0.14,1.35,5.36,2.52,4.21,1186,1212,1196,1206,1200,1499,1525,11478,718
111448,0,-1.67,6.46,-2.68,-0.031,0.014,1.054,0.00,0.00,0.01,0.32,1.68,-6.14,0.03,0.12,1.42,5.55,5.77,8.12,1186,1212,1196,1206,1200,1498,1527,11478,718
111460,0,7.48,14.31,-2.83,-0.033,-0.076,1.159,0.00,0.00,-0.04,0.39,-7.52,-13.92,0.03,0.11,1.48,-13.28,-47.18,8.56,1186,1212,1196,1206,1208,1498,1527,11466,718
111472,0,5.59,-3.12,-0.73,-0.031,0.028,1.150,0.00,0.00,0.02,0.59,-5.57,3.71,0.03,0.13,1.53,-17.72,-5.37,3.36,1186,1212,1196,1206,1209,1498,1524,11462,718
111484,0,-15.30,-23.86,-2.10,0.045,-0.040,0.907,0.00,0.00,0.11,0.65,15.41,24.51,0.03,0.14,1.60,30.11,88.42,6.86,1186,1212,1196,1206,1209,1498,1524,11466,718
111496,0,-3.59,2.58,-2.73,-0.017,-0.003,0.996,0.00,0.00,-0.06,0.60,3.53,-1.98,0.03,0.13,1.66,14.97,-3.53,8.47,1186,1212,1196,1206,1214,1498,1524,11458,718
111508,0,12.85,4.38,-1.78,0.056,0.030,0.995,0.00,0.00,-0.01,0.75,-12.86,-3.62,0.03,0.16,1.72,-26.86,-47.64,6.17,1186,1212,1196,1206,1214,1499,1524,11466,718
111520,0,1.83,-0.93,-2.71,0.151,-0.131,0.868,0.00,0.00,0.15,0.71,-1.68,1.64,0.03,0.17,1.81,-7.14,-8.08,8.58,1215,1183,1265,1201,1216,1499,1524,11433,718
111532,0,0.63,-6.27,-2.60,0.082,-0.047,1.015,0.00,0.00,0.16,0.68,-0.47,6.95,0.03,0.18,1.90,-3.84,12.64,8.41,1215,1183,1265,1201,1221,1499,1520,11428,718
111544,0,-15.94,-8.08,-4.65,-0.026,-0.017,0.991,0.00,0.00,0.26,0.50,16.19,8.58,0.03,0.16,2.00,32.77,59.02,13.63,1215,1183,1265,1201,1221,1499,1520,11395,718
111556,0,-7.66,8.93,-3.04,-0.103,-0.005,1.094,0.00,0.00,0.14,0.43,7.80,-8.51,0.03,0.15,2.06,24.24,-27.05,9.66,1215,1183,1265,1201,1227,1499,1521,11399,718
111568,0,10.77,-0.73,-2.10,0.131,0.029,0.895,0.00,0.00,0.12,0.35,-10.65,1.08,0.03,0.16,2.15,-18.85,5.09,7.39,1215,1183,1265,1201,1227,1499,1521,11420,718
111580,0,9.28,21.39,-2.96,-0.010,-0.013,1.070,0.00,0.00,0.23,0.42,-9.05,-20.97,0.03,0.16,2.24,-22.94,-103.52,9.64,1215,1183,1265,1201,1227,1499,1521,11424,718
111592,0,3.56,-14.21,-2.17,0.176,-0.016,0.917,0.00,0.00,0.26,0.43,-3.29,14.64,0.03,0.17,2.35,-11.69,55.60,7.78,1215,1183,1265,1201,1227,1499,1521,11420,718
111604,0,-4.50,-3.34,-4.18,-0.029,-0.083,1.045,0.00,0.00,0.36,0.47,4.86,3.81,0.04,0.17,2.46,3.95,6.57,12.92,1215,1183,1265,1201,1227,1499,1521,11424,718
111616,0,-7.94,-7.77,-4.13,-0.070,-0.033,1.035,0.00,0.00,0.42,0.41,8.36,8.18,0.04,0.16,2.58,10.82,48.65,12.91,1253,1181,1297,1177,1227,1499,1523,11412,718
111628,0,-12.81,-2.67,-4.87,-0.087,-0.013,0.999,0.00,0.00,0.36,0.45,13.17,3.12,0.04,0.17,2.67,28.99,10.36,14.85,1253,1181,1297,1177,1227,1499,1523,11437,718
111640,0,-8.31,5.30,-4.54,-0.066,0.076,1.047,0.00,0.00,0.38,0.40,8.69,-4.90,0.04,0.16,2.79,17.82,-8.07,14.13,1253,1181,1297,1177,1228,1499,1523,11424,718
111652,0,9.10,4.58,-3.03,0.044,0.073,0.981,0.00,0.00,0.23,0.47,-8.87,-4.11,0.03,0.17,2.88,-10.78,-30.74,10.46,1253,1181,1297,1177,1247,1499,1524,11391,718
111664,0,10.06,12.78,-3.71,0.042,-0.049,0.998,0.00,0.00,0.31,0.49,-9.75,-12.28,0.03,0.17,3.02,-15.34,-52.21,12.31,1253,1181,1297,1177,1247,1499,1524,11387,718
111676,0,16.17,-4.61,-1.67,0.135,-0.021,0.935,0.00,0.00,0.34,0.53,-15.83,5.14,0.03,0.18,3.12,-33.41,11.31,7.30,1253,1181,1297,1177,1253,1499,1523,11412,718
111688,0,8.73,-2.66,-2.90,0.031,-0.120,0.979,0.00,0.00,0.33,0.59,-8.40,3.26,0.03,0.19,3.22,-16.84,-4.12,10.47,1253,1181,1297,1177,1253,1499,1524,11399,718
111700,0,-5.75,-2.69,-3.46,0.009,-0.116,0.993,0.00,0.00,0.45,0.54,6.21,3.23,0.03,0.18,3.33,7.62,19.22,11.97,1253,1181,1297,1177,1254,1499,1524,11378,718
111712,0,-12.99,-16.93,-3.58,0.085,-0.049,0.916,0.00,0.00,0.38,0.56,13.37,17.49,0.03,0.20,3.41,28.04,57.90,12.35,1253,1181,1297,1177,1253,1499,1524,11366,718
111724,0,-16.75,1.08,-5.05,-0.031,-0.019,0.988,0.00,0.00,0.32,0.48,17.07,-0.60,0.03,0.20,3.50,39.61,-6.41,16.13,1275,1293,1229,1215,1253,1499,1524,11358,717
111736,0,-14.15,0.77,-4.92,-0.026,0.057,0.994,0.00,0.00,0.36,0.38,14.51,-0.39,0.03,0.19,3.63,31.37,18.39,15.92,1275,1293,1229,1215,1254,1499,1524,11345,717
111748,0,-2.60,-1.19,-3.84,0.053,0.129,0.963,0.00,0.00,0.28,0.34,2.89,1.52,0.03,0.19,3.73,8.78,3.08,13.34,1275,1293,1229,1215,1254,1499,1522,11308,717
111760,0,6.03,11.37,-3.82,-0.019,0.073,1.020,0.00,0.00,0.22,0.29,-5.81,-11.08,0.03,0.19,3.84,-7.72,-49.15,13.39,1275,1293,1229,1215,1263,1499,1522,11320,717
111772,0,6.58,8.79,-3.31,0.011,-0.009,0.950,0.00,0.00,0.35,0.26,-6.22,-8.53,0.03,0.19,3.96,-14.73,-24.16,12.24,1275,1293,1229,1215,1264,1499,1522,11312,717
111784,0,10.13,0.54,-2.81,0.111,0.013,0.886,0.00,0.00,0.45,0.28,-9.67,-0.26,0.04,0.20,4.06,-26.23,-14.39,11.09,1275,1293,1229,1215,1264,1499,1522,11304,717
111796,0,16.51,2.71,-2.80,0.044,0.045,1.039,0.00,0.00,0.33,0.33,-16.18,-2.38,0.04,0.21,4.17,-37.18,-28.96,11.17,1275,1293,1229,1215,1264,1499,1524,11308,717
111808,0,13.66,3.98,-3.05,-0.019,-0.041,1.065,0.00,0.00,0.25,0.28,-13.40,-3.69,0.04,0.19,4.30,-30.38,-0.72,11.93,1275,1293,1229,1215,1264,1499,1527,11312,717
111820,0,3.94,-5.15,-2.12,0.015,-0.100,0.959,0.00,0.00,0.33,0.29,-3.61,5.44,0.04,0.19,4.41,-12.62,33.80,9.72,1254,1226,1346,1262,1272,1499,1527,11324,718
111832,0,-3.10,-11.67,-1.39,0.018,-0.083,0.903,0.00,0.00,0.30,0.36,3.41,12.03,0.04,0.19,4.47,6.88,44.01,7.95,1254,1226,1346,1262,1276,1499,1527,11324,718
111844,0,-7.37,-8.15,-2.56,-0.033,-0.038,0.961,0.00,0.00,0.15,0.40,7.53,8.55,0.04,0.20,4.55,20.55,29.92,10.94,1254,1226,1346,1262,1276,1499,1527,11324,718
111856,0,-10.83,-3.91,-3.43,-0.037,-0.020,1.045,0.00,0.00,-0.02,0.33,10.81,4.25,0.03,0.19,4.64,29.55,25.52,13.22,1254,1226,1346,1262,1277,1499,1527,11320,718
111868,0,-15.57,-0.19,-4.03,-0.019,-0.053,1.016,0.00,0.00,0.02,0.24,15.59,0.43,0.03,0.19,4.75,34.14,14.05,14.81,1254,1226,1346,1262,1277,1499,1521,11337,718
111880,0,-15.80,3.85,-3.75,-0.055,-0.020,0.976,0.00,0.00,0.16,0.21,15.96,-3.64,0.03,0.19,4.84,29.45,-13.86,14.22,1254,1226,1346,1262,1287,1499,1521,11324,718
111892,0,-10.04,4.59,-3.31,-0.027,0.057,0.967,0.00,0.00,0.16,0.25,10.20,-4.33,0.04,0.20,4.92,19.36,-25.59,13.20,1254,1226,1346,1262,1283,1499,1527,11308,718
111904,0,-5.56,5.72,-2.96,0.009,0.099,0.995,0.00,0.00,0.03,0.30,5.59,-5.42,0.03,0.20,4.98,15.02,-29.11,12.36,1254,1226,1346,1262,1283,1499,1527,11295,718
111916,0,-2.84,1.67,-3.13,0.072,0.095,0.976,0.00,0.00,-0.14,0.39,2.69,-1.29,0.03,0.22,5.04,13.23,-23.90,12.86,1246,1316,1296,1318,1294,1499,1522,11341,718
111928,0,1.24,0.31,-3.04,0.134,0.074,0.929,0.00,0.00,-0.32,0.46,-1.56,0.15,0.03,0.24,5.11,7.02,-33.13,12.71,1246,1316,1296,1318,1294,1499,1522,11345,718
111940,0,5.01,1.06,-2.67,0.156,0.044,0.904,0.00,0.00,-0.43,0.50,-5.44,-0.56,0.02,0.26,5.16,-0.05,-40.15,11.84,1246,1316,1296,1318,1298,1499,1522,11316,718
111952,0,7.04,3.95,-2.74,0.115,0.016,0.897,0.00,0.00,-0.47,0.48,-7.51,-3.47,0.01,0.26,5.23,-4.48,-34.48,12.09,1246,1316,1296,1318,1298,1499,1522,11316,718
111964,0,7.99,1.78,-2.48,0.087,0.010,0.875,0.00,0.00,-0.49,0.45,-8.48,-1.33,0.01,0.26,5.29,-5.78,-10.35,11.49,1246,1316,1296,1318,1298,1499,1522,11308,718
111976,0,10.56,-3.47,-2.83,0.049,0.008,0.887,0.00,0.00,-0.53,0.47,-11.09,3.94,-0.00,0.26,5.36,-9.34,17.65,12.44,1246,1316,1296,1318,1299,1499,1522,11299,718
111988,0,12.45,-1.69,-2.30,-0.027,0.044,0.947,0.00,0.00,-0.58,0.52,-13.03,2.22,-0.01,0.25,5.44,-13.70,20.44,11.17,1246,1316,1296,1318,1299,1499,1534,11295,718
112000,0,10.57,0.54,-2.68,-0.108,0.058,1.076,0.00,0.00,-0.65,0.59,-11.23,0.06,-0.01,0.23,5.51,-11.43,23.23,12.21,1246,1316,1296,1318,1290,1499,1534,11295,718
112012,0,5.21,-8.04,-3.54,-0.131,0.068,1.000,0.00,0.00,-0.73,0.94,-5.94,8.99,-0.02,0.23,5.60,1.61,32.36,14.45,1246,1316,1296,1318,1301,1499,1522,11274,718
112024,0,4.01,-4.99,-3.57,-0.135,0.076,1.017,0.00,0.00,-0.76,1.44,-4.77,6.43,-0.02,0.26,5.68,-1.18,-10.51,14.61,1276,1260,1368,1300,1301,1499,1522,11254,718
112036,0,6.76,-5.91,-3.49,-0.090,0.090,0.989,0.00,0.00,-0.80,1.97,-7.57,7.88,-0.02,0.30,5.77,-9.32,-22.88,14.48,1276,1260,1368,1300,1302,1499,1522,11258,718
112048,0,8.37,0.11,-3.45,-0.071,0.126,1.033,0.00,0.00,-0.86,2.37,-9.23,2.26,-0.02,0.32,5.86,-14.41,-40.50,14.48,1276,1260,1368,1300,1302,1499,1522,11283,718
112060,0,10.86,4.20,-4.22,-0.101,0.147,1.076,0.00,0.00,-0.99,2.70,-11.85,-1.50,-0.03,0.33,5.96,-18.11,-37.21,16.52,1276,1260,1368,1300,1304,1499,1522,11266,718
112072,0,11.30,5.58,-5.26,-0.149,0.135,1.153,0.00,0.00,-1.10,3.02,-12.40,-2.56,-0.03,0.34,6.10,-19.03,-31.36,19.24,1276,1260,1368,1300,1307,1499,1521,11262,718
112084,0,9.46,-0.51,-5.65,-0.172,0.143,1.186,0.00,0.00,-1.16,3.43,-10.62,3.94,-0.03,0.36,6.26,-16.96,-11.49,20.38,1276,1260,1368,1300,1307,1499,1521,11270,718
112096,0,7.71,-1.70,-6.60,-0.202,0.124,1.200,0.00,0.00,-1.24,3.88,-8.95,5.58,-0.03,0.38,6.44,-11.34,-11.33,22.93,1276,1260,1368,1300,1307,1499,1523,11241,718
112108,0,9.03,-3.43,-6.88,-0.212,0.140,1.225,0.00,0.00,-1.33,4.37,-10.35,7.80,-0.04,0.40,6.64,-13.47,-11.55,23.83,1276,1260,1368,1300,1307,1499,1521,11279,718
112120,0,8.33,-4.24,-7.85,-0.194,0.145,1.207,0.00,0.00,-1.46,4.83,-9.79,9.07,-0.04,0.43,6.86,-9.63,-7.07,26.48,1342,1330,1336,1236,1311,1499,1521,11283,719
112132,0,6.43,-4.02,-8.75,-0.178,0.142,1.194,0.00,0.00,-1.56,5.29,-7.99,9.31,-0.05,0.46,7.10,-5.70,-9.74,28.97,1342,1330,1336,1236,1300,1499,1534,11262,719
112144,0,4.93,-2.12,-8.41,-0.152,0.124,1.132,0.00,0.00,-1.67,5.68,-6.60,7.80,-0.05,0.49,7.33,-0.34,-15.14,28.36,1342,1330,1336,1236,1300,1499,1534,11274,719
112156,0,6.78,-4.60,-7.72,-0.054,0.134,1.030,0.00,0.00,-1.82,5.98,-8.61,10.58,-0.06,0.52,7.54,-1.79,-9.20,26.84,1342,1330,1336,1236,1311,1498,1522,11237,719
112168,0,6.33,-5.26,-7.76,0.049,0.121,0.982,0.00,0.00,-2.00,6.14,-8.33,11.40,-0.07,0.56,7.73,2.57,-12.64,27.13,1342,1330,1336,1236,1311,1498,1522,11212,719
112180,0,5.07,-4.15,-8.37,0.112,0.107,0.976,0.00,0.00,-2.12,6.12,-7.19,10.27,-0.08,0.59,7.93,5.54,-9.64,28.85,1342,1330,1336,1236,1312,1498,1522,11212,719
112192,0,5.95,4.42,-8.73,0.049,0.134,1.082,0.00,0.00,-2.31,6.01,-8.26,1.59,-0.09,0.61,8.12,5.52,-27.83,29.94,1342,1330,1336,1236,1312,1499,1522,11208,719
112204,0,4.99,1.49,-9.10,-0.018,0.156,1.135,0.00,0.00,-2.54,5.98,-7.53,4.48,-0.10,0.63,8.33,7.70,-9.74,31.08,1342,1330,1336,1236,1312,1499,1522,11204,719
112216,0,5.93,-2.32,-9.17,-0.097,0.142,1.178,0.00,0.00,-2.81,6.06,-8.74,8.38,-0.12,0.65,8.54,5.82,10.83,31.47,1286,1328,1358,1276,1312,1499,1522,11212,718
112228,0,5.56,-15.17,-8.22,-0.068,0.089,1.056,0.00,0.00,-3.04,6.41,-8.60,21.58,-0.13,0.69,8.75,5.76,38.26,29.29,1286,1328,1358,1276,1312,1499,1521,11245,718
112240,0,5.81,-21.13,-7.88,0.009,0.035,0.897,0.00,0.00,-3.26,6.82,-9.07,27.95,-0.15,0.75,8.95,5.82,34.69,28.64,1286,1328,1358,1276,1314,1499,1521,11233,718
112252,0,5.13,-26.58,-7.30,0.117,-0.062,0.786,0.00,0.00,-3.42,7.09,-8.55,33.67,-0.16,0.81,9.14,8.34,42.73,27.40,1286,1328,1358,1276,1314,1499,1521,11254,718
112264,0,7.33,-20.23,-7.29,0.180,-0.118,0.813,0.00,0.00,-3.53,7.12,-10.85,27.36,-0.18,0.87,9.34,4.45,25.71,27.57,1286,1328,1358,1276,1314,1499,1521,11237,718
112276,0,10.35,-8.10,-6.77,0.180,-0.157,0.909,0.00,0.00,-3.72,6.96,-14.07,15.06,-0.21,0.92,9.56,1.82,-12.14,26.49,1286,1328,1358,1276,1314,1499,1521,11274,718
112288,0,20.08,1.91,-5.85,0.110,-0.126,1.047,0.00,0.00,-4.08,6.69,-24.16,4.77,-0.23,0.94,9.77,-14.74,-26.29,24.40,1286,1328,1358,1276,1314,1499,1522,11224,718
112300,0,24.63,6.17,-4.51,-0.063,-0.128,1.114,0.00,0.00,-4.51,6.48,-29.14,0.32,-0.26,0.94,9.99,-21.38,-12.74,21.25,1286,1328,1358,1276,1313,1499,1522,11220,718
112312,0,32.05,-0.25,-3.22,-0.188,-0.100,1.136,0.00,0.00,-4.94,6.61,-36.99,6.86,-0.29,0.95,10.19,-37.30,14.79,18.24,1286,1328,1358,1276,1305,1499,1530,11191,718
112324,0,36.79,-11.99,-4.45,-0.183,-0.087,1.132,0.00,0.00,-5.28,7.10,-42.08,19.09,-0.32,0.99,10.41,-47.35,35.26,21.53,1259,1315,1359,1287,1305,1499,1530,11224,719
112336,0,44.38,-21.56,-4.93,-0.076,-0.012,1.138,0.00,0.00,-5.57,7.72,-49.96,29.28,-0.35,1.04,10.66,-62.32,42.56,22.99,1259,1315,1359,1287,1313,1499,1522,11237,719
112348,0,46.13,-18.48,-6.46,-0.014,0.052,1.121,0.00,0.00,-5.93,8.18,-52.06,26.66,-0.38,1.10,10.92,-59.59,25.57,27.07,1259,1315,1359,1287,1313,1499,1522,11274,719
112360,0,40.39,-9.30,-7.98,-0.109,0.115,1.171,0.00,0.00,-6.31,8.53,-46.70,17.83,-0.41,1.14,11.19,-43.73,3.94,31.15,1259,1315,1359,1287,1314,1499,1522,11274,719
112372,0,31.12,-8.47,-9.70,-0.255,0.141,1.214,0.00,0.00,-6.71,8.92,-37.83,17.39,-0.45,1.17,11.47,-22.83,19.33,35.72,1259,1315,1359,1287,1314,1499,1522,11266,719
112384,0,27.95,-18.47,-10.49,-0.289,0.145,1.222,0.00,0.00,-7.18,9.61,-35.12,28.08,-0.48,1.22,11.75,-12.53,39.84,37.98,1259,1315,1359,1287,1314,1499,1522,11241,719
112396,0,24.20,-17.15,-10.09,-0.277,0.126,1.219,0.00,0.00,-7.66,10.41,-31.86,27.55,-0.52,1.29,12.00,-1.02,14.67,37.23,1259,1315,1359,1287,1315,1499,1525,11254,719
112408,0,21.56,-8.04,-9.64,-0.310,0.091,1.241,0.00,0.00,-8.20,11.16,-29.76,19.21,-0.56,1.36,12.22,8.75,-26.92,36.33,1259,1315,1359,1287,1315,1499,1526,11245,719
112420,0,17.43,-11.35,-8.76,-0.252,0.044,1.166,0.00,0.00,-8.76,11.87,-26.19,23.22,-0.61,1.43,12.43,19.32,-16.17,34.33,1383,1355,1323,1199,1315,1499,1526,11245,718
112432,0,16.55,-7.24,-8.53,-0.178,0.013,1.224,0.00,0.00,-9.28,12.37,-25.83,19.61,-0.65,1.49,12.63,17.45,-23.84,33.96,1383,1355,1323,1199,1316,1499,1525,11279,718
112444,0,17.62,-3.38,-8.65,-0.172,-0.018,1.321,0.00,0.00,-9.80,12.66,-27.42,16.04,-0.69,1.54,12.84,12.36,-15.05,34.46,1383,1355,1323,1199,1316,1499,1525,11279,718
112456,0,18.77,-4.35,-8.27,-0.244,-0.045,1.333,0.00,0.00,-10.31,12.93,-29.08,17.29,-0.74,1.58,13.06,6.38,8.96,33.72,1383,1355,1323,1199,1320,1499,1522,11295,718
112468,0,19.14,-5.60,-8.64,-0.336,-0.094,1.373,0.00,0.00,-10.82,13.27,-29.96,18.87,-0.78,1.61,13.29,2.65,30.55,34.90,1383,1355,1323,1199,1320,1499,1521,11304,718
112480,0,20.14,-8.08,-8.08,-0.408,-0.139,1.404,0.00,0.00,-11.26,13.73,-31.40,21.81,-0.82,1.65,13.53,-4.00,37.06,33.72,1383,1355,1323,1199,1320,1499,1521,11266,718
112492,0,21.08,-16.74,-7.42,-0.373,-0.183,1.303,0.00,0.00,-11.76,14.35,-32.83,31.09,-0.87,1.71,13.77,-5.26,49.34,32.33,1383,1355,1323,1199,1320,1499,1522,11270,718
112504,0,24.74,-11.62,-7.86,-0.396,-0.183,1.304,0.00,0.00,-12.30,14.92,-37.04,26.54,-0.92,1.76,14.02,-12.89,25.96,33.67,1383,1355,1323,1199,1320,1499,1522,11233,718
112516,0,28.47,-11.32,-8.16,-0.446,-0.144,1.326,0.00,0.00,-12.83,15.45,-41.30,26.77,-0.96,1.81,14.28,-22.85,35.48,34.69,1342,1340,1366,1228,1319,1500,1523,11208,722
112528,0,32.51,-17.32,-9.08,-0.392,-0.132,1.316,0.00,0.00,-13.32,16.10,-45.83,33.42,-1.01,1.88,14.57,-34.13,46.99,37.26,1342,1340,1366,1228,1319,1499,1525,11200,722
112540,0,38.91,-18.06,-9.30,-0.202,-0.098,1.229,0.00,0.00,-13.77,16.83,-52.69,34.89,-1.05,1.96,14.87,-47.63,17.07,38.12,1342,1340,1366,1228,1317,1499,1525,11220,722
112552,0,38.00,-12.65,-9.29,-0.033,-0.034,1.158,0.00,0.00,-14.19,17.35,-52.19,30.00,-1.10,2.06,15.19,-45.00,-24.09,38.41,1342,1340,1366,1228,1317,1499,1525,11212,722
112564,0,30.34,-7.48,-9.84,-0.035,-0.002,1.109,0.00,0.00,-14.57,17.55,-44.91,25.03,-1.14,2.13,15.50,-29.08,-17.00,40.10,1342,1340,1366,1228,1317,1499,1525,11237,722
112576,0,22.94,-0.55,-11.73,-0.125,-0.001,1.145,0.00,0.00,-14.92,17.64,-37.86,18.19,-1.18,2.17,15.84,-15.34,-7.96,45.16,1342,1340,1366,1228,1321,1499,1525,11254,722
112588,0,18.16,0.56,-12.62,-0.188,0.013,1.184,0.00,0.00,-15.23,17.84,-33.40,17.28,-1.22,2.22,16.19,-5.32,-5.90,47.73,1342,1340,1366,1228,1321,1499,1523,11237,722
112600,0,14.66,2.09,-12.28,-0.169,0.039,1.164,0.00,0.00,-15.59,18.05,-30.24,15.96,-1.27,2.28,16.52,5.62,-17.66,47.21,1342,1340,1366,1228,1325,1499,1523,11224,722
112612,0,12.77,15.27,-12.62,-0.160,0.117,1.258,0.00,0.00,-15.99,17.96,-28.76,2.69,-1.31,2.31,16.86,11.80,-44.71,48.42,1342,1340,1366,1228,1325,1499,1523,11208,722
112624,0,6.96,17.61,-12.87,-0.188,0.143,1.303,0.00,0.00,-16.33,17.79,-23.29,0.17,-1.35,2.33,17.20,21.58,-32.46,49.37,1311,1325,1409,1255,1325,1499,1523,11187,721
112636,0,4.81,10.42,-12.35,-0.254,0.144,1.309,0.00,0.00,-16.67,17.74,-21.48,7.31,-1.39,2.35,17.52,23.42,7.04,48.40,1311,1325,1409,1255,1327,1499,1521,11187,721
112648,0,1.25,-7.06,-10.42,-0.184,0.063,1.148,0.00,0.00,-16.90,17.92,-18.15,24.97,-1.43,2.39,17.82,24.34,57.08,43.87,1311,1325,1409,1255,1327,1499,1521,11170,721
112660,0,-0.53,-11.40,-9.13,-0.054,-0.054,1.063,0.00,0.00,-17.05,18.11,-16.51,29.50,-1.47,2.44,18.12,22.52,48.00,40.94,1311,1325,1409,1255,1327,1499,1521,11195,721
112672,0,4.17,-13.83,-8.58,0.067,-0.153,1.008,0.00,0.00,-17.15,18.06,-21.32,31.89,-1.51,2.49,18.41,9.27,60.98,39.87,1311,1325,1409,1255,1327,1499,1525,11183,721
112684,0,19.81,18.13,-8.91,-0.112,-0.112,1.152,0.00,0.00,-17.42,17.84,-37.23,-0.30,-1.55,2.52,18.71,-22.40,-61.08,40.97,1311,1325,1409,1255,1327,1499,1525,11204,721
112696,0,22.65,9.00,-9.33,-0.234,-0.074,1.227,0.00,0.00,-17.63,17.68,-40.28,8.68,-1.59,2.54,19.05,-31.53,7.59,42.38,1311,1325,1409,1255,1327,1499,1525,11179,721
112708,0,28.51,-2.27,-8.91,-0.206,-0.019,1.227,0.00,0.00,-17.80,17.73,-46.31,20.01,-1.62,2.56,19.39,-43.19,53.88,41.67,1311,1325,1409,1255,1327,1499,1525,11158,721
112720,0,28.13,-4.63,-8.86,-0.080,0.043,1.164,0.00,0.00,-17.88,17.98,-46.01,22.61,-1.66,2.61,19.71,-43.91,21.39,41.87,1334,1344,1412,1234,1331,1499,1525,11162,718
112732,0,25.80,-0.81,-9.73,-0.001,0.068,1.150,0.00,0.00,-17.93,17.97,-43.73,18.78,-1.69,2.65,20.05,-38.82,13.44,44.36,1334,1344,1412,1234,1332,1499,1525,11133,718
112744,0,23.81,11.00,-10.27,-0.086,0.111,1.280,0.00,0.00,-18.04,17.76,-41.84,6.76,-1.73,2.66,20.38,-32.55,-1.81,46.05,1334,1344,1412,1234,1332,1499,1525,11154,718
112756,0,18.35,10.16,-10.09,-0.206,0.082,1.221,0.00,0.00,-18.15,17.67,-36.50,7.51,-1.76,2.68,20.68,-21.50,7.29,45.90,1334,1344,1412,1234,1332,1499,1525,11191,718
112768,0,14.28,10.77,-12.04,-0.298,0.046,1.231,0.00,0.00,-18.25,17.63,-32.53,6.86,-1.80,2.68,20.99,-14.48,15.79,51.08,1334,1344,1412,1234,1332,1498,1525,11187,718
112780,0,13.57,11.99,-13.09,-0.348,-0.010,1.266,0.00,0.00,-18.36,17.70,-31.93,5.71,-1.83,2.70,21.31,-12.48,7.03,54.04,1334,1344,1412,1234,1332,1498,1525,11208,718
112792,0,14.55,12.69,-12.00,-0.229,-0.019,1.146,0.00,0.00,-18.46,17.89,-33.01,5.20,-1.87,2.74,21.58,-12.71,-29.26,51.58,1334,1344,1412,1234,1332,1498,1525,11220,718
112804,0,12.67,7.76,-10.96,-0.049,-0.011,1.040,0.00,0.00,-18.53,17.89,-31.20,10.13,-1.91,2.79,21.82,-9.02,-34.18,49.24,1334,1344,1412,1234,1332,1498,1525,11241,718
112816,0,7.72,10.92,-11.10,0.040,0.015,1.096,0.00,0.00,-18.59,17.46,-26.32,6.54,-1.94,2.81,22.09,-0.21,-9.42,49.84,1274,1390,1372,1292,1332,1498,1525,11220,718
112828,0,4.20,10.65,-10.98,0.016,0.040,1.125,0.00,0.00,-18.70,17.05,-22.90,6.40,-1.97,2.83,22.35,6.64,9.30,49.79,1274,1390,1372,1292,1332,1499,1550,11204,718
112840,0,0.92,-2.34,-9.39,0.130,0.029,0.993,0.00,0.00,-18.81,16.77,-19.73,19.11,-2.01,2.87,22.58,9.92,29.29,46.06,1274,1390,1372,1292,1307,1499,1550,11208,718
112852,0,-2.56,-8.67,-8.55,0.279,-0.042,0.851,0.00,0.00,-18.84,16.21,-16.28,24.88,-2.04,2.92,22.85,10.37,46.18,44.23,1274,1390,1372,1292,1307,1499,1550,11208,718
112864,0,-3.52,2.27,-8.07,0.301,-0.094,0.846,0.00,0.00,-18.84,15.39,-15.32,13.12,-2.07,2.94,23.13,9.06,22.06,43.30,1274,1390,1372,1292,1307,1499,1550,11208,718
112876,0,-1.58,10.08,-7.69,0.306,-0.107,0.858,0.00,0.00,-18.94,14.48,-17.37,4.39,-2.10,2.95,23.40,4.80,-1.81,42.61,1274,1390,1372,1292,1333,1499,1524,11224,718
112888,0,-0.76,19.08,-8.10,0.288,-0.108,0.870,0.00,0.00,-19.00,13.44,-18.24,-5.64,-2.13,2.95,23.67,-2.05,-23.89,43.92,1274,1390,1372,1292,1333,1499,1521,11212,718
112900,0,2.03,24.11,-8.63,0.164,-0.076,0.963,0.00,0.00,-19.00,12.53,-21.03,-11.58,-2.15,2.94,23.97,-12.75,-31.83,45.55,1274,1390,1372,1292,1336,1499,1521,11208,718
112912,0,0.76,17.92,-8.31,0.098,-0.031,0.965,0.00,0.00,-18.96,11.81,-19.72,-6.11,-2.17,2.93,24.26,-13.36,0.83,45.05,1274,1390,1372,1292,1335,1499,1522,11175,718
112924,0,-2.29,16.19,-8.54,0.014,0.019,1.005,0.00,0.00,-18.89,11.30,-16.60,-4.89,-2.19,2.92,24.55,-10.64,0.91,45.90,1306,1376,1390,1268,1335,1499,1522,11154,718
112936,0,-9.79,6.14,-8.40,0.007,0.035,0.966,0.00,0.00,-18.65,10.99,-8.86,4.85,-2.20,2.92,24.86,-3.52,22.50,45.85,1306,1376,1390,1268,1335,1499,1522,11183,718
112948,0,-12.94,0.31,-8.28,0.008,0.058,0.958,0.00,0.00,-18.35,10.83,-5.41,10.52,-2.21,2.93,25.17,-4.86,34.39,45.87,1306,1376,1390,1268,1335,1499,1522,11133,718
112960,0,-14.86,-3.71,-7.83,0.031,0.040,0.908,0.00,0.00,-17.99,10.80,-3.13,14.51,-2.21,2.96,25.49,-6.34,28.83,45.06,1306,1376,1390,1268,1335,1499,1522,11137,718
112972,0,-14.17,3.03,-7.39,-0.042,0.021,0.958,0.00,0.00,-17.56,10.80,-3.38,7.77,-2.20,2.98,25.81,-13.72,4.86,44.28,1306,1376,1390,1268,1333,1499,1524,11116,718
112984,0,-11.16,3.57,-7.92,-0.108,0.012,0.996,0.00,0.00,-17.06,10.97,-5.90,7.40,-2.20,3.00,26.12,-23.70,-4.68,45.92,1306,1376,1390,1268,1333,1499,1524,11150,718
112996,0,-8.93,-2.62,-8.64,-0.016,0.014,0.972,0.00,0.00,-16.46,11.19,-7.54,13.81,-2.19,3.04,26.45,-30.12,0.45,48.04,1306,1376,1390,1268,1333,1499,1524,11133,718
113008,0,-11.74,-6.59,-8.09,0.135,0.036,0.869,0.00,0.00,-15.86,11.17,-4.13,17.76,-2.19,3.08,26.76,-22.60,16.26,46.98,1306,1376,1390,1268,1333,1499,1521,11154,718
113020,0,-11.58,9.85,-9.07,0.089,0.082,1.005,0.00,0.00,-15.24,10.96,-3.66,1.11,-2.18,3.09,27.04,-24.87,-26.79,49.72,1298,1374,1388,1284,1336,1499,1521,11125,718
113032,0,-11.74,0.91,-8.42,0.203,0.120,0.953,0.00,0.00,-14.62,10.69,-2.88,9.78,-2.16,3.10,27.31,-25.05,18.10,48.36,1298,1374,1388,1284,1336,1499,1521,11125,718
113044,0,-9.70,14.59,-7.30,0.121,0.141,0.993,0.00,0.00,-13.94,10.29,-4.24,-4.30,-2.15,3.11,27.54,-33.94,-33.05,45.78,1298,1374,1388,1284,1336,1499,1521,11154,718
113056,0,-10.79,19.94,-6.12,-0.020,0.133,1.125,0.00,0.00,-13.17,9.85,-2.38,-10.09,-2.13,3.08,27.78,-34.23,-12.28,43.08,1298,1374,1388,1284,1336,1499,1521,11150,718
113068,0,-12.39,22.88,-6.17,-0.070,0.154,1.177,0.00,0.00,-12.39,9.33,0.00,-13.55,-2.11,3.04,28.03,-29.75,9.09,43.46,1298,1374,1388,1284,1336,1499,1523,11166,718
113080,0,-14.86,27.30,-6.52,-0.221,0.163,1.251,0.00,0.00,-11.71,8.87,3.15,-18.43,-2.09,2.98,28.29,-18.01,5.64,44.58,1298,1374,1388,1284,1334,1499,1523,11170,718
113092,0,-12.08,20.83,-7.98,-0.283,0.174,1.350,0.00,0.00,-11.13,8.67,0.95,-12.17,-2.08,2.94,28.55,-18.18,20.22,48.51,1298,1374,1388,1284,1335,1499,1522,11179,718
113104,0,-8.76,9.19,-8.63,-0.242,0.143,1.282,0.00,0.00,-10.57,8.76,-1.80,-0.44,-2.07,2.93,28.81,-22.35,29.35,50.39,1298,1374,1388,1284,1335,1499,1522,11170,718
113116,0,-4.17,2.61,-8.15,-0.175,0.162,1.200,0.00,0.00,-10.15,9.09,-5.98,6.48,-2.06,2.95,29.04,-25.18,6.20,49.43,1315,1401,1363,1253,1333,1499,1524,11175,722
113128,0,-1.37,3.49,-7.59,-0.175,0.153,1.222,0.00,0.00,-9.76,9.40,-8.39,5.91,-2.05,2.98,29.28,-29.66,-14.11,48.25,1315,1401,1363,1253,1333,1499,1524,11166,722
113140,0,6.84,-7.42,-7.05,-0.144,0.184,1.196,0.00,0.00,-9.46,9.79,-16.30,17.21,-2.05,3.01,29.53,-44.32,19.61,47.14,1315,1401,1363,1253,1333,1499,1524,11158,722
113152,0,8.31,-1.85,-7.35,-0.236,0.234,1.264,0.00,0.00,-9.14,10.23,-17.45,12.07,-2.04,3.05,29.78,-47.45,-6.35,48.15,1315,1401,1363,1253,1333,1499,1524,11137,722
113164,0,1.64,-13.30,-6.33,-0.163,0.262,1.180,0.00,0.00,-8.82,10.72,-10.45,24.03,-2.03,3.10,30.02,-31.49,28.96,45.84,1315,1401,1363,1253,1333,1499,1524,11141,722
113176,0,-7.35,-11.34,-7.81,-0.134,0.259,1.174,0.00,0.00,-8.42,11.12,-1.07,22.46,-2.02,3.15,30.31,-15.69,21.57,49.83,1315,1401,1363,1253,1332,1500,1525,11108,722
113188,0,-10.21,-6.09,-8.93,-0.183,0.258,1.252,0.00,0.00,-8.01,11.37,2.20,17.46,-2.01,3.17,30.61,-11.81,31.42,52.93,1315,1401,1363,1253,1332,1500,1524,11108,722
113200,0,-14.72,4.90,-9.10,-0.325,0.268,1.335,0.00,0.00,-7.56,11.70,7.17,6.80,-1.99,3.19,30.89,-7.48,-4.18,53.64,1315,1401,1363,1253,1333,1500,1524,11112,722
113212,0,-19.23,7.57,-10.84,-0.390,0.263,1.381,0.00,0.00,-7.00,12.18,12.22,4.61,-1.96,3.21,31.18,-7.48,-25.38,58.29,1315,1401,1363,1253,1333,1499,1524,11100,722
113224,0,-24.13,-1.66,-11.33,-0.369,0.205,1.322,0.00,0.00,-6.34,12.75,17.79,14.42,-1.93,3.26,31.49,-4.52,-2.18,59.82,1236,1342,1444,1310,1333,1499,1524,11116,722
113236,0,-27.57,-6.10,-10.84,-0.325,0.197,1.209,0.00,0.00,-5.59,13.35,21.97,19.45,-1.90,3.30,31.77,-4.19,8.41,58.88,1236,1342,1444,1310,1333,1499,1524,11133,722
113248,0,-35.57,-4.93,-11.02,-0.279,0.160,1.116,0.00,0.00,-4.71,13.87,30.86,18.79,-1.86,3.35,32.05,6.31,8.90,59.60,1236,1342,1444,1310,1333,1499,1523,11137,722
113260,0,-39.00,-9.38,-12.05,-0.197,0.105,1.066,0.00,0.00,-3.76,14.40,35.24,23.79,-1.81,3.40,32.32,11.18,17.49,62.45,1236,1342,1444,1310,1334,1499,1523,11133,722
113272,0,-35.18,-3.99,-12.04,-0.087,0.064,0.984,0.00,0.00,-2.82,14.86,32.37,18.85,-1.77,3.47,32.57,6.26,-17.77,62.67,1236,1342,1444,1310,1332,1499,1525,11154,722
113284,0,-33.66,5.78,-10.98,-0.073,0.015,1.017,0.00,0.00,-1.81,14.98,31.85,9.20,-1.73,3.52,32.84,4.47,-43.51,60.29,1236,1342,1444,1310,1332,1499,1525,11187,722
113296,0,-30.14,7.30,-9.95,-0.022,0.021,0.969,0.00,0.00,-0.95,14.96,29.20,7.66,-1.70,3.55,33.09,6.36,-26.00,57.97,1236,1342,1444,1310,1335,1499,1522,11170,722
113308,0,-30.10,7.91,-9.12,0.048,0.049,0.943,0.00,0.00,-0.19,14.74,29.92,6.83,-1.66,3.58,33.33,15.23,-14.99,56.12,1236,1342,1444,1310,1335,1499,1525,11187,722
113320,0,-32.66,11.30,-9.77,0.105,0.027,0.969,0.00,0.00,0.51,14.25,33.17,2.95,-1.63,3.59,33.59,27.27,-2.82,58.03,1324,1438,1330,1236,1332,1499,1525,11204,727
113332,0,-30.20,10.79,-9.26,0.187,0.008,0.864,0.00,0.00,1.08,13.65,31.28,2.86,-1.61,3.59,33.83,29.02,1.93,56.97,1324,1438,1330,1236,1333,1499,1524,11195,727
113344,0,-28.50,13.12,-9.85,0.269,-0.031,0.826,0.00,0.00,1.61,12.84,30.12,-0.27,-1.58,3.61,34.06,29.01,-15.82,58.67,1324,1438,1330,1236,1333,1499,1524,11208,727
113356,0,-23.90,24.46,-11.92,0.224,-0.061,0.892,0.00,0.00,2.11,11.75,26.01,-12.70,-1.56,3.59,34.34,16.87,-32.18,64.15,1324,1438,1330,1236,1333,1499,1524,11195,727
113368,0,-22.98,35.34,-11.60,-0.026,-0.048,1.087,0.00,0.00,2.47,10.75,25.45,-24.59,-1.54,3.53,34.63,19.10,-23.28,63.63,1324,1438,1330,1236,1333,1499,1524,11187,727
113380,0,-23.74,33.23,-12.68,-0.072,-0.019,1.187,0.00,0.00,2.77,9.92,26.51,-23.32,-1.52,3.47,34.93,23.66,3.15,66.63,1324,1438,1330,1236,1333,1499,1524,11170,727
113392,0,-25.08,44.18,-13.35,-0.169,0.015,1.300,0.00,0.00,3.09,9.17,28.17,-35.02,-1.49,3.40,35.22,24.24,-40.47,68.60,1324,1438,1330,1236,1334,1499,1523,11141,727
113404,0,-29.15,51.63,-12.96,-0.331,0.022,1.452,0.00,0.00,3.44,8.35,32.60,-43.28,-1.47,3.31,35.52,27.29,-45.51,67.91,1324,1438,1330,1236,1334,1499,1523,11120,727
113416,0,-32.73,36.90,-10.86,-0.454,0.042,1.478,0.00,0.00,3.83,7.77,36.55,-29.14,-1.43,3.23,35.83,30.68,21.05,62.99,1263,1345,1447,1281,1334,1499,1523,11116,722
113428,0,-35.55,21.09,-9.36,-0.384,0.067,1.413,0.00,0.00,4.20,7.67,39.75,-13.43,-1.40,3.19,36.09,34.12,27.73,59.50,1263,1345,1447,1281,1334,1499,1523,11129,722
113440,0,-37.42,15.33,-9.57,-0.348,0.046,1.391,0.00,0.00,4.65,7.67,42.07,-7.66,-1.36,3.16,36.34,31.97,20.69,60.28,1263,1345,1447,1281,1334,1499,1523,11100,722
113452,0,-42.40,8.90,-9.42,-0.281,0.024,1.320,0.00,0.00,5.18,7.81,47.58,-1.09,-1.32,3.16,36.58,37.95,13.98,60.12,1263,1345,1447,1281,1334,1500,1523,11087,722
113464,0,-42.06,4.92,-9.86,-0.185,0.014,1.241,0.00,0.00,5.73,7.87,47.79,2.95,-1.28,3.16,36.81,35.79,24.44,61.45,1263,1345,1447,1281,1334,1500,1523,11100,722
113476,0,-38.81,16.10,-11.07,-0.134,0.015,1.217,0.00,0.00,6.27,7.87,45.08,-8.23,-1.24,3.15,37.01,29.91,-31.63,64.68,1263,1345,1447,1281,1334,1500,1523,11129,722
113488,0,-35.23,25.54,-10.99,-0.219,0.023,1.350,0.00,0.00,6.83,7.67,42.06,-17.87,-1.20,3.13,37.25,23.04,-48.98,64.72,1263,1345,1447,1281,1334,1500,1523,11112,722
113500,0,-36.38,15.65,-8.91,-0.238,0.042,1.326,0.00,0.00,7.34,7.55,43.72,-8.09,-1.15,3.11,37.47,29.99,3.31,59.75,1263,1345,1447,1281,1334,1500,1523,11112,722
113512,0,-36.20,13.77,-8.20,-0.234,0.054,1.345,0.00,0.00,7.80,7.57,44.00,-6.20,-1.12,3.10,37.68,35.16,-2.53,58.17,1263,1345,1447,1281,1331,1499,1525,11116,722
113524,0,-35.41,8.94,-7.53,-0.151,0.077,1.296,0.00,0.00,8.22,7.58,43.63,-1.36,-1.08,3.10,37.88,36.73,7.60,56.71,1273,1355,1417,1279,1331,1499,1525,11100,718
113536,0,-31.29,5.38,-7.47,-0.036,0.058,1.168,0.00,0.00,8.57,7.66,39.86,2.28,-1.04,3.11,38.05,32.72,-4.16,56.74,1273,1355,1417,1279,1318,1499,1539,11116,718
113548,0,-28.25,8.46,-7.83,0.025,0.027,1.078,0.00,0.00,8.91,7.58,37.16,-0.88,-1.01,3.13,38.22,27.91,-24.90,57.79,1273,1355,1417,1279,1318,1499,1539,11125,718
113560,0,-21.93,12.54,-8.27,-0.030,0.012,1.096,0.00,0.00,9.22,7.32,31.15,-5.22,-0.98,3.11,38.42,17.09,-13.95,59.10,1273,1355,1417,1279,1318,1499,1539,11141,718
113572,0,-15.29,12.24,-7.65,-0.103,0.038,1.082,0.00,0.00,9.45,7.20,24.75,-5.04,-0.95,3.10,38.60,7.97,-1.49,57.72,1273,1355,1417,1279,1335,1499,1522,11162,718
113584,0,-12.31,8.96,-6.73,-0.094,0.087,1.043,0.00,0.00,9.70,7.26,22.01,-1.70,-0.92,3.11,38.75,1.98,-5.16,55.58,1273,1355,1417,1279,1335,1499,1522,11170,718
113596,0,-10.09,9.72,-7.71,-0.042,0.127,1.038,0.00,0.00,9.88,7.24,19.97,-2.48,-0.89,3.11,38.92,-0.13,-12.64,58.20,1273,1355,1417,1279,1335,1499,1522,11170,718
113608,0,-8.49,9.62,-7.09,-0.042,0.155,1.016,0.00,0.00,10.00,7.17,18.49,-2.45,-0.87,3.10,39.08,0.58,-5.79,56.80,1273,1355,1417,1279,1335,1499,1522,11175,718
113620,0,-5.42,11.23,-5.42,-0.108,0.173,1.057,0.00,0.00,10.08,7.11,15.50,-4.11,-0.84,3.09,39.24,-4.30,-1.40,52.79,1317,1399,1371,1253,1335,1499,1522,11154,719
113632,0,-1.78,3.75,-4.49,-0.070,0.186,1.011,0.00,0.00,10.12,7.13,11.90,3.38,-0.82,3.09,39.41,-10.62,26.25,50.63,1317,1399,1371,1253,1335,1499,1522,11162,719
113644,0,0.27,2.50,-4.03,0.001,0.218,1.020,0.00,0.00,10.07,7.11,9.80,4.61,-0.79,3.09,39.57,-12.44,23.07,49.64,1317,1399,1371,1253,1335,1499,1522,11162,719
113656,0,0.72,-4.47,-2.50,0.109,0.271,0.899,0.00,0.00,9.93,7.06,9.21,11.53,-0.77,3.10,39.69,-13.01,34.08,45.94,1317,1399,1371,1253,1326,1499,1526,11183,719
113668,0,-5.64,0.22,-4.25,0.237,0.273,0.856,0.00,0.00,9.76,6.75,15.40,6.53,-0.75,3.13,39.80,-1.90,-7.92,50.41,1317,1399,1371,1253,1326,1499,1526,11170,719
113680,0,-8.88,12.50,-6.20,0.190,0.249,0.919,0.00,0.00,9.64,6.12,18.53,-6.39,-0.72,3.11,39.95,1.48,-17.16,55.46,1317,1399,1371,1253,1326,1499,1526,11195,719
113692,0,-8.23,21.14,-5.40,0.102,0.250,0.911,0.00,0.00,9.48,5.56,17.71,-15.58,-0.69,3.09,40.07,-0.41,-29.76,53.56,1317,1399,1371,1253,1326,1499,1526,11212,719
113704,0,-6.36,23.05,-5.56,0.080,0.236,0.919,0.00,0.00,9.36,5.06,15.73,-17.99,-0.67,3.06,40.20,-7.95,-33.88,54.09,1317,1399,1371,1253,1326,1499,1526,11224,719
113716,0,-4.67,20.47,-5.47,0.101,0.237,0.893,0.00,0.00,9.26,14.02,13.92,-6.46,-0.64,3.06,40.33,-12.42,-24.84,54.00,1240,1394,1322,1264,1305,1499,1552,11233,723
113728,0,-5.50,19.99,-4.93,0.054,0.275,0.906,0.00,0.00,9.15,13.62,14.64,-6.37,-0.61,3.06,40.47,-9.23,-18.95,52.80,1240,1394,1322,1264,1305,1499,1552,11179,723
113740,0,-11.79,17.04,-4.79,0.029,0.281,0.902,0.00,0.00,9.12,13.28,20.91,-3.76,-0.58,3.05,40.62,3.58,-0.02,52.59,1240,1394,1322,1264,1305,1499,1552,11183,723
113752,0,-15.32,24.38,-5.53,-0.071,0.278,1.035,0.00,0.00,9.14,3.53,24.47,-20.85,-0.55,3.01,40.79,10.08,-14.06,54.60,1240,1394,1322,1264,1332,1499,1525,11170,723
113764,0,-15.84,31.08,-5.20,-0.185,0.254,1.154,0.00,0.00,9.20,3.13,25.03,-27.95,-0.52,2.94,40.95,10.63,-14.37,53.96,1240,1394,1322,1264,1332,1499,1525,11183,723
113776,0,-14.20,28.91,-4.45,-0.206,0.220,1.141,0.00,0.00,9.22,2.87,23.42,-26.04,-0.50,2.88,41.09,7.76,-9.19,52.22,1240,1394,1322,1264,1332,1499,1525,11158,723
113788,0,-11.13,29.31,-4.98,-0.153,0.163,1.134,0.00,0.00,9.28,2.57,20.41,-26.74,-0.47,2.82,41.25,-0.33,-17.12,53.70,1240,1394,1322,1264,1332,1499,1526,11154,723
113800,0,-5.96,31.68,-4.77,-0.117,0.118,1.144,0.00,0.00,9.38,2.16,15.34,-29.52,-0.44,2.76,41.42,-11.99,-21.97,53.34,1240,1394,1322,1264,1331,1499,1526,11162,723
113812,0,-0.48,36.21,-4.54,-0.121,0.101,1.183,0.00,0.00,9.50,1.65,9.98,-34.56,-0.41,2.68,41.59,-23.38,-29.71,52.94,1240,1394,1322,1264,1331,1498,1526,11166,723
113824,0,2.44,35.84,-3.93,-0.190,0.091,1.214,0.00,0.00,9.63,1.17,7.20,-34.67,-0.38,2.60,41.74,-29.20,-16.49,51.56,1209,1385,1399,1331,1331,1498,1526,11170,720
113836,0,0.70,27.49,-4.06,-0.199,0.066,1.225,0.00,0.00,9.86,0.85,9.16,-26.64,-0.35,2.53,41.88,-28.68,5.16,52.02,1209,1385,1399,1331,1333,1498,1523,11154,720
113848,0,-1.98,20.92,-4.17,-0.167,0.039,1.244,0.00,0.00,10.15,0.56,12.13,-20.37,-0.32,2.47,42.02,-26.02,22.08,52.46,1209,1385,1399,1331,1333,1500,1523,11133,720
113860,0,-6.31,16.00,-2.99,-0.133,-0.020,1.183,0.00,0.00,10.44,0.33,16.76,-15.67,-0.28,2.41,42.15,-17.47,29.00,49.62,1209,1385,1399,1331,1333,1500,1523,11133,720
113872,0,-9.76,24.26,-2.52,-0.174,-0.104,1.162,0.00,0.00,10.79,-0.03,20.55,-24.29,-0.25,2.35,42.28,-12.69,0.82,48.58,1209,1385,1399,1331,1333,1500,1523,11133,720
113884,0,-12.13,40.23,-2.13,-0.331,-0.141,1.256,0.00,0.00,11.12,-0.50,23.25,-40.73,-0.21,2.26,42.42,-9.21,-39.12,47.74,1209,1385,1399,1331,1333,1500,1523,11141,720
113896,0,-12.75,46.28,-3.52,-0.494,-0.149,1.417,0.00,0.00,11.40,-0.95,24.15,-47.23,-0.18,2.16,42.57,-8.72,-38.01,51.37,1209,1385,1399,1331,1333,1499,1523,11120,720
113908,0,-13.62,26.58,-3.42,-0.481,-0.141,1.408,0.00,0.00,11.60,8.48,25.22,-18.10,-0.14,2.09,42.72,-5.05,24.50,51.27,1209,1385,1399,1331,1333,1499,1553,11091,720
113920,0,-16.13,13.79,-2.87,-0.405,-0.107,1.310,0.00,0.00,11.74,8.67,27.87,-5.12,-0.11,2.07,42.84,1.78,32.37,50.01,1224,1282,1424,1282,1303,1499,1553,11075,722
113932,0,-18.44,8.42,-4.48,-0.270,-0.099,1.247,0.00,0.00,11.84,9.06,30.28,0.65,-0.08,2.06,42.93,7.50,29.82,54.12,1224,1282,1424,1282,1303,1499,1554,11112,722
113944,0,-19.33,16.91,-5.95,-0.169,-0.061,1.243,0.00,0.00,11.93,9.17,31.26,-7.74,-0.05,2.05,43.01,9.55,-19.79,57.87,1224,1282,1424,1282,1303,1499,1554,11100,722
113956,0,-23.10,28.73,-6.05,-0.310,-0.074,1.367,0.00,0.00,12.08,9.11,35.18,-19.62,-0.01,2.03,43.10,16.10,-47.97,58.22,1224,1282,1424,1282,1303,1499,1554,11158,722
113968,0,-24.06,11.94,-4.33,-0.442,-0.075,1.379,0.00,0.00,12.26,9.26,36.32,-2.68,0.02,2.00,43.22,19.14,31.17,54.04,1224,1282,1424,1282,1303,1499,1554,11204,722
113980,0,-24.97,-1.39,-3.57,-0.386,-0.059,1.266,0.00,0.00,12.43,9.79,37.40,11.18,0.05,2.01,43.33,24.47,47.60,52.27,1224,1282,1424,1282,1303,1499,1554,11191,722
113992,0,-27.19,0.28,-4.12,-0.348,-0.064,1.244,0.00,0.00,12.66,0.66,39.86,0.38,0.09,2.02,43.42,30.63,9.15,53.73,1224,1282,1424,1282,1332,1499,1524,11216,722
114004,0,-26.83,-7.44,-4.22,-0.210,-0.027,1.104,0.00,0.00,12.87,1.28,39.70,8.73,0.12,2.04,43.51,32.33,16.12,54.05,1224,1282,1424,1282,1332,1499,1524,11200,722
114016,0,-28.27,-8.05,-4.71,-0.007,-0.020,0.939,0.00,0.00,13.10,1.74,41.37,9.79,0.16,2.08,43.58,36.34,-11.80,55.35,1233,1365,1415,1327,1335,1499,1522,11204,723
114028,0,-28.60,1.06,-5.59,0.092,-0.020,0.898,0.00,0.00,13.35,1.74,41.95,0.68,0.19,2.10,43.66,37.52,-36.18,57.64,1233,1365,1415,1327,1335,1499,1522,11158,723
114040,0,-25.46,9.08,-6.10,-0.057,-0.040,0.988,0.00,0.00,13.51,1.71,38.97,-7.37,0.22,2.09,43.73,32.06,-30.08,58.98,1233,1365,1415,1327,1335,1499,1522,11158,723
114052,0,-18.21,16.40,-5.64,-0.145,-0.030,1.119,0.00,0.00,13.67,1.75,31.88,-14.64,0.26,2.08,43.84,18.09,-45.61,57.93,1233,1365,1415,1327,1335,1499,1522,11137,723
114065,0,-11.99,13.09,-4.52,-0.095,-0.005,1.094,0.00,0.00,13.82,1.84,25.81,-11.25,0.29,2.07,43.94,7.80,-33.64,55.25,1233,1365,1415,1327,1335,1499,1522,11137,723
114076,0,-10.14,10.60,-3.73,0.002,0.032,1.022,0.00,0.00,14.00,1.87,24.14,-8.73,0.32,2.07,44.01,4.65,-29.58,53.34,1233,1365,1415,1327,1334,1499,1524,11141,723
114088,0,-12.07,8.38,-3.59,0.062,0.078,0.965,0.00,0.00,14.22,10.96,26.29,2.58,0.35,2.07,44.09,10.06,-14.70,53.07,1233,1365,1415,1327,1334,1499,1551,11129,723
114100,0,-13.29,6.93,-3.56,0.076,0.109,0.976,0.00,0.00,14.42,10.75,27.71,3.82,0.38,2.08,44.18,13.57,6.11,53.09,1233,1365,1415,1327,1306,1499,1551,11145,723
114112,0,-13.67,5.67,-3.18,0.074,0.128,0.948,0.00,0.00,14.57,11.10,28.25,5.44,0.41,2.08,44.27,16.83,23.48,52.21,1233,1365,1415,1327,1302,1499,1554,11108,723
114124,0,-12.15,7.78,-2.40,0.090,0.127,0.928,0.00,0.00,14.66,10.96,26.81,3.18,0.44,2.08,44.32,15.04,6.18,50.33,1221,1321,1383,1283,1302,1499,1554,11116,723
114136,0,-7.90,10.41,-2.26,0.071,0.128,0.954,0.00,0.00,14.76,10.94,22.65,0.53,0.47,2.09,44.38,3.66,-2.32,50.04,1221,1321,1383,1283,1302,1499,1555,11104,723
114148,0,-3.91,8.41,-2.07,0.134,0.125,0.897,0.00,0.00,14.80,10.53,18.71,2.12,0.50,2.09,44.46,-5.71,2.30,49.64,1221,1321,1383,1283,1302,1499,1554,11100,723
114160,0,-0.07,9.65,-2.16,0.203,0.143,0.855,0.00,0.00,14.79,10.13,14.86,0.48,0.53,2.09,44.53,-12.85,-0.23,49.93,1221,1321,1383,1283,1302,1499,1554,11133,723
114172,0,2.41,17.02,-2.29,0.180,0.187,0.883,0.00,0.00,14.70,9.57,12.29,-7.45,0.56,2.07,44.59,-16.34,-9.79,50.31,1221,1321,1383,1283,1304,1498,1554,11125,723
114184,0,4.01,21.21,-2.77,0.084,0.200,0.985,0.00,0.00,14.62,9.03,10.61,-12.18,0.59,2.04,44.67,-20.71,-3.37,51.60,1221,1321,1383,1283,1304,1498,1554,11120,723
114196,0,8.71,14.33,-2.87,0.055,0.213,1.017,0.00,0.00,14.48,8.69,5.77,-5.63,0.62,2.01,44.75,-30.06,22.56,51.93,1221,1321,1383,1283,1304,1498,1554,11133,723
114208,0,11.77,10.62,-2.25,0.086,0.209,0.984,0.00,0.00,14.30,8.32,2.53,-2.30,0.65,2.00,44.81,-35.96,13.42,50.43,1221,1321,1383,1283,1304,1499,1553,11133,723
114220,0,13.47,18.35,-1.68,-0.039,0.163,1.093,0.00,0.00,14.17,8.09,0.70,-10.26,0.67,1.98,44.88,-41.51,-12.43,49.08,1231,1337,1371,1273,1303,1499,1553,11133,723
114232,0,13.31,22.81,-0.75,-0.242,0.104,1.216,0.00,0.00,14.13,7.91,0.82,-14.91,0.70,1.94,44.97,-44.31,-2.39,46.84,1231,1337,1371,1273,1303,1499,1553,11120,723
114244,0,8.39,13.11,-0.20,-0.312,0.038,1.222,0.00,0.00,14.24,7.91,5.85,-5.20,0.74,1.90,45.07,-38.94,42.70,45.56,1231,1337,1371,1273,1303,1499,1553,11108,723
114256,0,2.86,8.76,-0.89,-0.288,-0.021,1.216,0.00,0.00,14.45,8.00,11.59,-0.76,0.77,1.87,45.19,-31.10,49.70,47.42,1231,1337,1371,1273,1303,1499,1553,11112,723
114268,0,-1.21,15.29,-1.03,-0.318,-0.055,1.201,0.00,0.00,14.70,-1.52,15.91,-16.80,0.81,1.83,45.31,-22.66,23.96,47.87,1231,1337,1371,1273,1303,1499,1532,11129,723
114280,0,-5.60,19.09,-0.79,-0.330,-0.059,1.133,0.00,0.00,14.94,-1.49,20.54,-20.58,0.85,1.77,45.39,-13.47,7.21,47.36,1231,1337,1371,1273,1322,1499,1532,11150,723
114292,0,-13.00,18.15,-1.55,-0.280,-0.064,1.086,0.00,0.00,15.18,-1.46,28.18,-19.61,0.88,1.72,45.47,0.62,6.57,49.35,1231,1337,1371,1273,1320,1499,1537,11137,723
114304,0,-18.48,10.34,-2.10,-0.207,-0.052,1.069,0.00,0.00,15.35,-1.41,33.84,-11.75,0.92,1.68,45.54,12.33,25.31,50.80,1231,1337,1371,1273,1320,1499,1537,11170,723
114316,0,-22.89,14.46,-2.89,-0.206,-0.061,1.121,0.00,0.00,15.43,-1.38,38.32,-15.84,0.96,1.64,45.62,23.85,-3.90,52.85,1244,1354,1394,1296,1322,1499,1532,11179,719
114328,0,-25.04,23.30,-3.21,-0.279,-0.109,1.191,0.00,0.00,15.52,-1.41,40.57,-24.71,0.99,1.60,45.70,29.08,-31.43,53.71,1244,1354,1394,1296,1322,1499,1525,11187,719
114340,0,-25.88,25.78,-2.18,-0.284,-0.139,1.150,0.00,0.00,15.66,-1.44,41.55,-27.21,1.02,1.55,45.76,31.03,-37.25,51.20,1244,1354,1394,1296,1331,1499,1525,11187,719
114352,0,-26.94,30.25,-2.53,-0.279,-0.145,1.120,0.00,0.00,15.87,-1.54,42.81,-31.79,1.06,1.49,45.81,33.05,-41.36,52.14,1244,1354,1394,1296,1331,1499,1525,11150,719
114364,0,-25.90,27.58,-3.05,-0.243,-0.096,1.101,0.00,0.00,16.12,-1.61,42.02,-29.18,1.10,1.43,45.85,31.23,-28.09,53.47,1244,1354,1394,1296,1331,1499,1525,11154,719
114376,0,-22.80,15.92,-3.39,-0.073,0.001,0.980,0.00,0.00,16.29,-1.60,39.10,-17.51,1.13,1.40,45.88,28.43,-7.23,54.35,1244,1354,1394,1296,1331,1499,1525,11133,719
114388,0,-19.70,6.54,-3.22,0.128,0.083,0.863,0.00,0.00,16.36,-1.70,36.06,-8.24,1.16,1.39,45.90,27.73,-6.50,53.96,1244,1354,1394,1296,1331,1499,1525,11100,719
114400,0,-18.23,2.80,-2.62,0.284,0.110,0.760,0.00,0.00,16.39,-2.06,34.62,-4.86,1.20,1.39,45.92,29.66,-15.13,52.46,1244,1354,1394,1296,1331,1499,1525,11095,719
114412,0,-18.09,10.38,-2.23,0.284,0.110,0.786,0.00,0.00,16.48,-2.65,34.58,-13.02,1.23,1.37,45.93,30.34,-34.36,51.50,1244,1354,1394,1296,1328,1499,1528,11120,719
114424,0,-13.47,12.97,-1.44,0.212,0.102,0.890,0.00,0.00,16.63,-3.18,30.10,-16.14,1.26,1.34,45.97,20.86,-25.20,49.57,1216,1376,1374,1346,1328,1499,1528,11116,718
114436,0,-9.35,20.30,-0.53,0.100,0.097,0.994,0.00,0.00,16.79,5.80,26.13,-14.51,1.29,1.31,46.02,13.27,-32.36,47.35,1216,1376,1374,1346,1303,1499,1552,11145,718
114448,0,-7.56,28.04,-0.45,-0.058,0.092,1.126,0.00,0.00,16.99,5.38,24.55,-22.66,1.32,1.26,46.07,8.44,-22.77,47.20,1216,1376,1374,1346,1303,1499,1552,11133,718
114460,0,-4.13,26.68,-0.59,-0.196,0.105,1.214,0.00,0.00,17.15,5.13,21.28,-21.56,1.35,1.20,46.10,2.36,1.78,47.58,1216,1376,1374,1346,1303,1499,1552,11133,718
114472,0,-1.02,26.84,-2.21,-0.269,0.101,1.306,0.00,0.00,17.31,-4.37,18.34,-31.21,1.39,1.13,46.15,-5.66,-9.62,51.68,1216,1376,1374,1346,1312,1499,1545,11141,718
114484,0,4.00,15.74,-1.97,-0.268,0.095,1.294,0.00,0.00,17.38,-4.37,13.38,-20.11,1.42,1.07,46.20,-14.06,19.09,51.13,1216,1376,1374,1346,1312,1499,1545,11175,718
114496,0,9.21,8.74,-0.99,-0.231,0.090,1.219,0.00,0.00,17.32,-4.16,8.11,-12.90,1.44,1.02,46.22,-21.19,19.19,48.70,1216,1376,1374,1346,1312,1499,1545,11179,718
114508,0,15.35,3.22,-0.46,-0.177,0.051,1.179,0.00,0.00,17.24,-3.84,1.88,-7.07,1.47,1.00,46.24,-33.90,15.27,47.40,1216,1376,1374,1346,1312,1499,1548,11145,718
114520,0,23.08,-2.88,0.22,-0.142,0.023,1.155,0.00,0.00,17.10,-3.46,-5.98,-0.58,1.49,0.99,46.27,-49.80,18.02,45.71,1259,1313,1403,1257,1308,1499,1548,11116,719
114532,0,26.76,-9.54,0.44,-0.158,0.012,1.183,0.00,0.00,16.91,-3.01,-9.85,6.53,1.51,0.99,46.30,-56.13,29.69,45.19,1259,1313,1403,1257,1308,1499,1548,11125,719
114544,0,26.74,-12.35,0.12,-0.236,-0.031,1.218,0.00,0.00,16.71,-2.48,-10.04,9.87,1.53,1.00,46.34,-53.63,36.47,46.04,1259,1313,1403,1257,1308,1499,1548,11108,719
114556,0,23.84,-6.06,0.23,-0.358,-0.081,1.231,0.00,0.00,16.52,-1.96,-7.32,4.10,1.55,1.00,46.37,-45.13,23.35,45.80,1259,1313,1403,1257,1310,1498,1547,11120,719
114568,0,16.33,-5.07,0.76,-0.385,-0.115,1.183,0.00,0.00,16.38,-1.40,0.05,3.67,1.56,0.99,46.38,-28.17,24.95,44.47,1259,1313,1403,1257,1310,1498,1547,11154,719
114580,0,11.02,-3.75,0.55,-0.370,-0.112,1.164,0.00,0.00,16.20,-0.87,5.18,2.88,1.58,0.99,46.39,-14.07,26.62,45.02,1259,1313,1403,1257,1310,1498,1547,11162,719
114592,0,7.06,-7.03,0.60,-0.239,-0.123,1.088,0.00,0.00,15.90,-0.34,8.84,6.69,1.59,0.99,46.39,0.15,29.51,44.90,1259,1313,1403,1257,1308,1499,1549,11183,719
114604,0,6.13,-12.85,0.56,-0.057,-0.164,0.952,0.00,0.00,15.52,0.12,9.39,12.97,1.59,1.01,46.38,8.18,28.70,45.00,1259,1313,1403,1257,1308,1499,1549,11183,719
114616,0,5.11,-15.97,0.95,0.098,-0.189,0.779,0.00,0.00,15.14,0.38,10.04,16.34,1.60,1.06,46.37,16.07,11.74,44.01,1259,1325,1379,1269,1308,1499,1549,11191,719
114628,0,2.21,-6.67,0.12,0.136,-0.198,0.712,0.00,0.00,14.81,0.33,12.60,7.00,1.59,1.09,46.38,27.54,-26.35,46.07,1259,1325,1379,1269,1308,1499,1549,11195,719
114640,0,-0.24,1.24,-1.16,0.079,-0.208,0.761,0.00,0.00,14.55,0.21,14.79,-1.03,1.59,1.11,46.40,35.91,-38.96,49.29,1259,1325,1379,1269,1308,1499,1549,11216,719
114652,0,-0.38,-1.09,-1.65,0.124,-0.171,0.739,0.00,0.00,14.29,9.73,14.67,10.82,1.59,1.14,46.43,39.86,-15.37,50.55,1259,1325,1379,1269,1303,1499,1553,11204,719
114664,0,-0.37,-6.47,-1.97,0.255,-0.102,0.657,0.00,0.00,13.95,9.57,14.32,16.03,1.58,1.19,46.44,45.89,3.41,51.37,1259,1325,1379,1269,1303,1499,1553,11204,719
114676,0,4.68,-14.51,-2.05,0.426,-0.036,0.552,0.00,0.00,13.38,-0.47,8.70,14.04,1.56,1.22,46.43,44.56,15.44,51.56,1259,1325,1379,1269,1326,1499,1530,11183,719
114688,0,11.30,-15.41,-1.62,0.524,0.007,0.470,0.00,0.00,12.59,-1.24,1.28,14.17,1.54,1.26,46.41,39.89,3.13,50.46,1259,1325,1379,1269,1326,1499,1522,11187,719
114700,0,17.25,-8.41,-1.58,0.453,0.017,0.516,0.00,0.00,11.66,-2.08,-5.59,6.33,1.51,1.28,46.38,33.26,-17.59,50.34,1259,1325,1379,1269,1334,1499,1522,11191,719
114712,0,25.37,-6.21,-1.71,0.401,0.072,0.614,0.00,0.00,10.48,-2.72,-14.89,3.49,1.48,1.30,46.37,16.48,-20.97,50.65,1259,1325,1379,1269,1334,1499,1522,11170,719
114724,0,32.70,-5.65,-1.20,0.342,0.089,0.651,0.00,0.00,9.22,-3.20,-23.48,2.46,1.45,1.33,46.36,6.98,-30.98,49.35,1326,1368,1384,1258,1334,1499,1522,11170,719
114736,0,37.43,1.22,-1.25,0.248,0.076,0.701,0.00,0.00,8.06,5.79,-29.36,4.57,1.41,1.36,46.34,0.05,-46.06,49.45,1326,1368,1384,1258,1305,1499,1552,11150,719
114748,0,37.53,3.76,-1.58,0.137,0.060,0.770,0.00,0.00,7.10,5.59,-30.43,1.84,1.37,1.38,46.34,-0.72,-30.35,50.29,1326,1368,1384,1258,1305,1499,1552,11129,719
114760,0,35.14,-1.30,-2.22,0.123,0.057,0.769,0.00,0.00,6.25,5.54,-28.89,6.84,1.34,1.40,46.35,3.74,-3.54,51.91,1326,1368,1384,1258,1305,1499,1552,11137,719
114772,0,34.82,-7.73,-2.59,0.151,0.066,0.772,0.00,0.00,5.44,5.58,-29.39,13.31,1.30,1.43,46.37,5.75,18.92,52.83,1326,1368,1384,1258,1305,1499,1552,11129,719
114784,0,37.89,-17.24,-1.37,0.190,0.070,0.706,0.00,0.00,4.59,5.73,-33.30,22.97,1.25,1.48,46.38,3.34,36.84,49.81,1326,1368,1384,1258,1305,1499,1552,11133,719
114796,0,40.66,-16.22,-0.83,0.196,0.061,0.685,0.00,0.00,3.76,-3.50,-36.91,12.71,1.21,1.51,46.39,0.44,4.31,48.45,1326,1368,1384,1258,1306,1499,1550,11170,719
114808,0,41.75,-3.40,-1.15,0.009,0.041,0.850,0.00,0.00,2.94,6.22,-38.81,9.62,1.16,1.53,46.42,-2.07,-21.86,49.29,1326,1368,1384,1258,1306,1499,1553,11170,719
114820,0,42.84,0.11,-1.16,-0.203,0.030,1.043,0.00,0.00,2.05,6.66,-40.79,6.55,1.11,1.55,46.47,-4.59,-8.31,49.36,1287,1385,1319,1225,1304,1499,1553,11166,718
114832,0,45.45,-3.58,-0.24,-0.307,0.018,1.136,0.00,0.00,1.10,-2.26,-44.34,1.32,1.06,1.56,46.51,-9.75,4.99,47.11,1287,1385,1319,1225,1322,1499,1534,11154,718
114844,0,47.74,-3.95,0.08,-0.329,0.009,1.177,0.00,0.00,0.14,-1.58,-47.60,2.37,1.00,1.56,46.54,-14.73,-0.84,46.34,1287,1385,1319,1225,1322,1499,1534,11154,718
114856,0,49.84,-5.42,0.11,-0.280,0.019,1.165,0.00,0.00,-0.84,8.69,-50.68,14.11,0.95,1.60,46.58,-18.83,2.53,46.31,1287,1385,1319,1225,1303,1499,1553,11187,718
114868,0,50.40,-7.83,0.10,-0.165,0.055,1.087,0.00,0.00,-1.85,-0.19,-52.24,7.64,0.89,1.64,46.60,-19.30,2.65,46.35,1287,1385,1319,1225,1303,1499,1549,11145,718
114880,0,50.03,-11.98,-0.07,-0.067,0.099,1.005,0.00,0.00,-2.84,0.43,-52.87,12.41,0.84,1.67,46.61,-20.48,5.75,46.78,1287,1385,1319,1225,1307,1499,1549,11154,718
114892,0,50.05,-14.96,-0.89,-0.074,0.142,1.016,0.00,0.00,-3.82,10.68,-53.87,25.64,0.78,1.73,46.62,-23.79,4.15,48.85,1287,1385,1319,1225,1303,1499,1553,11175,718
114904,0,52.46,-15.63,-1.69,-0.153,0.170,1.109,0.00,0.00,-4.79,11.53,-57.25,27.16,0.73,1.81,46.65,-31.76,-4.74,50.86,1287,1385,1319,1225,1303,1499,1553,11183,718
114916,0,55.67,-23.34,-0.75,-0.194,0.200,1.143,0.00,0.00,-5.75,12.18,-61.42,35.51,0.67,1.89,46.67,-40.50,16.06,48.55,1313,1377,1329,1201,1305,1499,1551,11187,722
114928,0,56.57,-31.76,0.93,-0.180,0.205,1.091,0.00,0.00,-6.72,13.33,-63.28,45.09,0.62,1.99,46.66,-43.91,32.02,44.34,1313,1377,1329,1201,1305,1499,1551,11195,722
114940,0,54.60,-38.00,1.85,-0.118,0.200,0.977,0.00,0.00,-7.65,14.50,-62.25,52.51,0.56,2.10,46.64,-43.25,46.98,42.02,1313,1377,1329,1201,1305,1499,1551,11191,722
114952,0,52.67,-49.52,2.36,0.063,0.184,0.792,0.00,0.00,-8.58,15.64,-61.25,65.16,0.51,2.24,46.61,-42.88,66.70,40.71,1313,1377,1329,1201,1305,1499,1551,11191,722
114964,0,52.12,-52.96,2.34,0.222,0.187,0.656,0.00,0.00,-9.51,16.52,-61.63,69.48,0.46,2.40,46.58,-45.46,55.46,40.72,1313,1377,1329,1201,1305,1499,1551,11187,722
114976,0,49.41,-40.10,1.29,0.239,0.201,0.695,0.00,0.00,-10.44,7.83,-59.85,47.93,0.41,2.52,46.58,-42.08,7.53,43.36,1313,1377,1329,1201,1308,1499,1549,11170,722
114988,0,43.65,-11.65,0.07,0.020,0.208,0.943,0.00,0.00,-11.27,17.47,-54.92,29.13,0.35,2.59,46.62,-31.20,-38.74,46.43,1313,1377,1329,1201,1308,1499,1552,11154,722
115000,0,35.13,12.75,-1.35,-0.263,0.221,1.162,0.00,0.00,-11.99,17.65,-47.13,4.91,0.30,2.62,46.67,-14.42,-54.58,50.06,1313,1377,1329,1201,1305,1499,1552,11154,722
115012,0,23.42,22.12,-2.88,-0.433,0.175,1.285,0.00,0.00,-12.58,17.81,-35.99,-4.31,0.26,2.63,46.72,6.61,-35.46,53.91,1313,1377,1329,1201,1305,1499,1552,11154,722
115024,0,17.98,12.13,-2.30,-0.453,0.155,1.311,0.00,0.00,-13.08,18.27,-31.06,6.14,0.21,2.66,46.74,16.22,-12.00,52.50,1281,1281,1431,1227,1305,1499,1552,11150,732
115036,0,17.29,-4.78,0.08,-0.273,0.183,1.163,0.00,0.00,-13.63,18.91,-30.92,23.69,0.16,2.72,46.71,19.77,19.54,46.51,1281,1281,1431,1227,1305,1499,1552,11137,732
115048,0,17.48,-13.72,0.57,-0.057,0.165,1.008,0.00,0.00,-14.12,19.57,-31.60,33.28,0.11,2.81,46.65,17.25,11.30,45.24,1281,1281,1431,1227,1305,1499,1552,11137,732
115060,0,17.11,-5.34,-0.37,-0.070,0.099,1.078,0.00,0.00,-14.54,20.03,-31.65,25.37,0.07,2.88,46.63,14.53,-19.02,47.55,1281,1281,1431,1227,1305,1499,1552,11137,732
115072,0,15.41,-3.71,-1.03,-0.107,0.044,1.162,0.00,0.00,-14.87,20.18,-30.28,23.90,0.02,2.93,46.62,13.41,3.32,49.19,1281,1281,1431,1227,1306,1499,1551,11158,732
115084,0,17.54,-2.01,-0.85,-0.135,0.014,1.151,0.00,0.00,-15.19,20.51,-32.73,22.53,-0.03,2.99,46.61,6.64,2.68,48.74,1281,1281,1431,1227,1306,1499,1551,11150,732
115096,0,19.22,-0.93,-0.32,-0.094,0.004,1.059,0.00,0.00,-15.47,11.55,-34.70,12.48,-0.07,3.02,46.59,0.57,-2.89,47.40,1281,1281,1431,1227,1309,1499,1547,11158,732
115108,0,18.78,-4.70,-0.14,-0.010,0.011,0.935,0.00,0.00,-15.73,11.71,-34.51,16.41,-0.11,3.07,46.56,-0.99,6.06,46.91,1281,1281,1431,1227,1309,1499,1547,11129,732
115120,0,16.48,-3.14,-0.89,0.050,0.036,0.888,0.00,0.00,-15.93,11.73,-32.41,14.87,-0.16,3.11,46.52,0.89,-2.18,48.76,1293,1377,1313,1253,1309,1499,1547,11116,718
115132,0,13.96,-10.47,-1.37,0.176,0.057,0.806,0.00,0.00,-16.14,20.87,-30.10,31.34,-0.20,3.18,46.48,5.54,19.14,49.91,1293,1377,1313,1253,1306,1499,1551,11112,718
115144,0,13.52,-13.00,-1.32,0.223,0.052,0.811,0.00,0.00,-16.34,20.82,-29.86,33.81,-0.24,3.28,46.42,6.59,1.56,49.72,1293,1377,1313,1253,1306,1499,1551,11091,718
115156,0,8.52,-7.78,-0.88,0.217,0.034,0.781,0.00,0.00,-16.55,20.80,-25.07,28.58,-0.28,3.37,46.35,17.55,-25.82,48.55,1293,1377,1313,1253,1305,1499,1552,11095,718
115168,0,3.06,2.91,-0.22,0.169,0.032,0.770,0.00,0.00,-16.79,20.43,-19.85,17.53,-0.33,3.45,46.29,29.47,-46.09,46.83,1293,1377,1313,1253,1305,1499,1552,11087,718
115180,0,-2.06,24.06,-0.44,0.040,0.034,0.906,0.00,0.00,-16.97,19.96,-14.92,-4.09,-0.37,3.48,46.24,36.86,-86.40,47.33,1293,1377,1313,1253,1305,1499,1552,11137,718
115192,0,-0.06,24.87,-0.21,-0.007,0.058,1.003,0.00,0.00,-17.14,10.15,-17.09,-14.72,-0.41,3.47,46.20,28.98,-43.09,46.72,1293,1377,1313,1253,1310,1499,1548,11154,718
115204,0,5.00,18.00,0.55,0.028,0.085,1.032,0.00,0.00,-17.41,9.82,-22.41,-8.18,-0.45,3.47,46.14,19.94,-18.99,44.78,1293,1377,1313,1253,1310,1499,1548,11133,718
115216,0,7.66,14.20,1.72,-0.001,0.076,1.030,0.00,0.00,-17.70,9.57,-25.37,-4.63,-0.49,3.47,46.05,15.68,-13.96,41.75,1241,1349,1353,1297,1310,1499,1548,11150,718
115228,0,10.80,15.74,2.20,-0.061,0.063,1.055,0.00,0.00,-18.07,18.48,-28.87,2.74,-0.54,3.47,45.95,12.06,-10.48,40.44,1241,1349,1353,1297,1310,1499,1551,11154,718
115240,0,12.17,21.88,2.27,-0.182,0.074,1.138,0.00,0.00,-18.46,18.23,-30.63,-3.65,-0.58,3.47,45.85,11.37,-15.53,40.19,1241,1349,1353,1297,1305,1499,1551,11133,718
115252,0,13.75,23.48,2.11,-0.229,0.094,1.211,0.00,0.00,-18.90,18.00,-32.65,-5.48,-0.63,3.46,45.76,11.13,-8.03,40.49,1241,1349,1353,1297,1305,1499,1551,11141,718
115264,0,12.89,17.74,1.84,-0.219,0.115,1.226,0.00,0.00,-19.38,17.85,-32.27,0.11,-0.69,3.45,45.67,16.00,14.98,41.06,1241,1349,1353,1297,1305,1499,1551,11116,718
115276,0,11.66,13.25,1.69,-0.164,0.118,1.208,0.00,0.00,-19.92,17.79,-31.58,4.53,-0.74,3.46,45.56,22.83,19.96,41.34,1241,1349,1353,1297,1306,1499,1551,11100,718
115288,0,10.30,1.81,1.53,0.002,0.108,1.084,0.00,0.00,-20.49,8.57,-30.80,6.76,-0.80,3.48,45.44,28.17,35.60,41.62,1241,1349,1353,1297,1306,1499,1533,11150,718
115300,0,10.58,-5.60,1.46,0.197,0.102,0.899,0.00,0.00,-21.14,8.38,-31.72,13.98,-0.86,3.51,45.31,30.57,30.31,41.67,1241,1349,1353,1297,1324,1499,1533,11125,718
115312,0,9.21,-10.00,1.21,0.353,0.053,0.733,0.00,0.00,-21.82,7.87,-31.02,17.88,-0.93,3.55,45.20,35.41,29.61,42.18,1241,1349,1353,1297,1330,1499,1527,11133,718
115324,0,6.94,2.45,0.02,0.309,0.009,0.732,0.00,0.00,-22.49,7.13,-29.43,4.68,-0.99,3.57,45.12,40.55,-10.90,45.07,1346,1418,1312,1244,1330,1499,1527,11129,718
115336,0,4.59,11.79,-0.31,0.135,-0.032,0.810,0.00,0.00,-23.11,6.45,-27.70,-5.34,-1.06,3.56,45.07,43.81,-18.19,45.84,1346,1418,1312,1244,1324,1499,1533,11150,718
115348,0,6.77,12.82,-0.15,-0.012,-0.047,0.899,0.00,0.00,-23.73,6.06,-30.50,-6.76,-1.12,3.55,45.04,36.81,-10.51,45.42,1346,1418,1312,1244,1324,1499,1538,11120,718
115360,0,8.79,12.07,-0.53,-0.082,-0.083,0.955,0.00,0.00,-24.30,5.93,-33.09,-6.14,-1.19,3.54,45.02,30.26,-11.06,46.33,1346,1418,1312,1244,1319,1499,1538,11116,718
115372,0,11.60,14.13,-0.86,-0.106,-0.127,1.035,0.00,0.00,-24.77,5.91,-36.36,-8.23,-1.25,3.54,45.01,20.95,-20.78,47.16,1346,1418,1312,1244,1319,1499,1538,11125,718
115384,0,24.96,10.32,3.74,-0.073,-0.239,1.048,0.00,0.00,-25.09,5.97,-50.05,-4.34,-1.32,3.55,44.93,-11.09,-19.33,35.59,1346,1418,1312,1244,1319,1499,1538,11120,718
115396,0,26.57,6.38,4.73,-0.028,-0.161,1.016,0.00,0.00,-25.48,5.93,-52.05,-0.45,-1.39,3.55,44.85,-14.26,1.05,33.02,1346,1418,1312,1244,1316,1499,1550,11112,718
115408,0,27.43,4.38,4.43,-0.042,-0.114,1.026,0.00,0.00,-25.87,5.87,-53.30,1.49,-1.45,3.55,44.80,-19.22,14.17,33.73,1346,1418,1312,1244,1316,1499,1530,11095,718
115420,0,29.60,9.66,3.31,-0.205,-0.068,1.185,0.00,0.00,-26.23,5.84,-55.83,-3.81,-1.51,3.53,44.80,-27.24,8.33,36.53,1247,1403,1359,1319,1332,1499,1530,11066,719
115432,0,30.63,17.49,2.85,-0.390,-0.022,1.339,0.00,0.00,-26.57,5.80,-57.20,-11.70,-1.57,3.49,44.80,-32.14,5.90,37.67,1247,1403,1359,1319,1340,1499,1550,11066,719
115444,0,31.28,7.47,3.33,-0.418,-0.013,1.342,0.00,0.00,-26.86,5.96,-58.14,-1.51,-1.63,3.46,44.78,-35.68,41.80,36.46,1247,1403,1359,1319,1340,1499,1550,11058,719
115456,0,28.80,-3.67,3.75,-0.352,-0.030,1.272,0.00,0.00,-27.01,6.42,-55.80,10.08,-1.68,3.47,44.72,-37.88,50.64,35.34,1247,1403,1359,1319,1340,1499,1550,11075,719
115468,0,26.10,-11.78,3.36,-0.220,-0.067,1.216,0.00,0.00,-27.04,6.97,-53.14,18.75,-1.73,3.49,44.66,-37.65,55.46,36.26,1247,1403,1359,1319,1340,1499,1550,11087,719
115480,0,26.82,-12.78,2.83,-0.127,-0.065,1.211,0.00,0.00,-27.03,7.47,-53.85,20.25,-1.77,3.52,44.58,-42.13,39.44,37.50,1247,1403,1359,1319,1340,1499,1550,11066,719
115492,0,30.30,-8.00,2.80,-0.170,-0.034,1.297,0.00,0.00,-27.03,17.51,-57.33,25.50,-1.82,3.57,44.51,-51.69,17.40,37.52,1247,1403,1359,1319,1338,1498,1553,11091,719
115504,0,28.13,-12.73,3.56,-0.114,0.017,1.243,0.00,0.00,-26.98,18.06,-55.11,30.78,-1.86,3.64,44.41,-50.68,21.96,35.52,1247,1403,1359,1319,1338,1498,1553,11079,719
115516,0,19.19,-10.55,3.17,-0.142,0.044,1.213,0.00,0.00,-26.90,8.94,-46.10,19.49,-1.90,3.68,44.31,-34.42,13.44,36.39,1355,1401,1359,1261,1344,1498,1547,11091,718
115528,0,14.46,-12.16,2.80,-0.164,0.077,1.212,0.00,0.00,-26.85,9.42,-41.31,21.58,-1.94,3.72,44.22,-24.97,25.43,37.22,1355,1401,1359,1261,1344,1498,1547,11104,718
115540,0,12.56,-12.30,2.74,-0.165,0.091,1.162,0.00,0.00,-26.82,10.02,-39.38,22.33,-1.99,3.78,44.12,-19.85,13.47,37.28,1355,1401,1359,1261,1344,1498,1547,11095,718
115552,0,9.73,-20.12,2.95,-0.072,0.083,1.051,0.00,0.00,-26.82,10.68,-36.55,30.80,-2.03,3.86,44.01,-10.90,23.08,36.65,1355,1401,1359,1261,1345,1499,1546,11108,718
115564,0,5.97,-30.94,2.61,0.108,0.074,0.917,0.00,0.00,-26.84,11.33,-32.81,42.27,-2.07,3.96,43.90,-0.75,26.96,37.38,1355,1401,1359,1261,1345,1499,1546,11083,718
115576,0,1.63,-34.03,0.28,0.314,0.053,0.853,0.00,0.00,-26.87,11.59,-28.50,45.62,-2.12,4.08,43.79,8.67,24.94,43.09,1355,1401,1359,1261,1345,1499,1546,11095,718
115588,0,-0.13,-24.52,-0.10,0.206,0.056,0.935,0.00,0.00,-26.97,11.59,-26.84,36.12,-2.16,4.15,43.72,9.65,23.74,43.97,1355,1401,1359,1261,1345,1499,1549,11091,718
115600,0,-0.03,-41.72,3.22,0.247,0.012,0.812,0.00,0.00,-27.06,11.88,-27.03,53.60,-2.20,4.25,43.58,4.45,84.59,35.52,1355,1401,1359,1261,1342,1499,1549,11075,718
115612,0,2.37,-45.83,5.36,0.490,-0.055,0.686,0.00,0.00,-27.09,11.97,-29.45,57.80,-2.24,4.38,43.42,-5.31,55.08,30.01,1355,1401,1359,1261,1342,1499,1549,11083,718
115624,0,6.18,-10.79,6.06,0.425,-0.050,0.773,0.00,0.00,-27.21,11.49,-33.39,22.28,-2.28,4.47,43.29,-13.37,-53.05,28.15,1371,1393,1341,1263,1342,1499,1549,11075,718
115636,0,8.12,-5.48,8.36,0.319,-0.038,0.791,0.00,0.00,-27.26,10.94,-35.38,16.43,-2.32,4.52,43.15,-19.37,-20.84,22.26,1371,1393,1341,1263,1344,1499,1547,11079,718
115648,0,10.90,-15.11,8.89,0.504,-0.010,0.709,0.00,0.00,-27.19,10.41,-38.09,25.52,-2.36,4.59,42.98,-23.19,4.50,20.77,1371,1393,1341,1263,1344,1499,1546,11054,718
115660,0,3.05,-16.58,7.05,0.691,0.069,0.553,0.00,0.00,-27.16,9.44,-30.20,26.02,-2.40,4.66,42.83,-5.03,-7.30,25.19,1371,1393,1341,1263,1345,1499,1546,11041,718
115672,0,-8.52,16.43,1.07,0.498,0.041,0.756,0.00,0.00,-27.00,8.08,-18.48,-8.35,-2.43,4.66,42.74,16.84,-59.41,40.06,1371,1393,1341,1263,1368,1499,1523,11041,718
115684,0,-10.11,31.26,-0.90,0.170,0.046,1.028,0.00,0.00,-26.89,7.07,-16.78,-24.20,-2.47,4.63,42.67,23.89,-59.30,44.91,1371,1393,1341,1263,1368,1499,1523,11054,718
115696,0,-15.26,36.81,-1.03,0.002,0.086,1.174,0.00,0.00,-26.78,6.30,-11.52,-30.51,-2.50,4.59,42.61,32.39,-63.76,45.19,1371,1393,1341,1263,1368,1499,1523,11075,718
115708,0,-35.35,-13.49,6.44,-0.168,0.160,1.323,0.00,0.00,-26.35,6.55,9.00,20.04,-2.51,4.61,42.46,38.44,61.39,26.36,1371,1393,1341,1263,1368,1499,1523,11054,718
115720,0,-66.16,-22.00,7.97,-0.119,0.100,1.558,0.00,0.00,-25.05,6.78,41.10,28.78,-2.47,4.63,42.21,34.12,105.30,22.28,1143,1373,1419,1500,1368,1499,1523,11033,720
115732,0,-90.14,-5.12,0.43,0.084,0.111,1.438,0.00,0.00,-23.09,7.17,67.05,12.29,-2.39,4.69,42.18,26.35,-23.13,41.09,1143,1373,1419,1500,1342,1499,1549,11016,720
115744,0,-107.21,-45.15,1.85,0.182,0.006,1.212,0.00,0.00,-20.71,7.90,86.49,53.05,-2.29,4.81,42.21,33.82,73.23,37.58,1143,1373,1419,1500,1342,1499,1549,11008,720
115756,0,-97.20,-40.12,2.58,0.236,0.124,1.297,0.00,0.00,-18.29,8.55,78.91,48.67,-2.18,4.93,42.22,-3.67,21.54,35.78,1143,1373,1419,1500,1341,1499,1550,11037,720
115768,0,-104.79,-2.72,0.67,0.117,0.111,1.220,0.00,0.00,-15.60,17.95,89.19,20.67,-2.07,5.01,42.27,2.15,-71.48,40.59,1143,1373,1419,1500,1341,1499,1551,11045,720
115780,0,-105.65,-29.47,-1.37,0.186,0.091,1.209,0.00,0.00,-13.16,18.27,92.49,47.73,-1.96,5.09,42.38,17.85,59.69,45.81,1143,1373,1419,1500,1340,1499,1551,11045,720
115792,0,-99.98,-14.52,-3.24,0.088,0.087,1.297,0.00,0.00,-10.71,18.27,89.27,32.79,-1.84,5.13,42.53,11.65,65.79,50.64,1143,1373,1419,1500,1340,1499,1551,11083,720
115804,0,-95.93,-3.70,-5.22,0.087,0.094,1.281,0.00,0.00,-8.32,18.39,87.61,22.09,-1.73,5.18,42.68,5.90,7.45,55.72,1143,1373,1419,1500,1340,1499,1551,11083,720
115816,0,-92.87,-7.38,-5.74,0.124,0.128,1.186,0.00,0.00,-6.17,9.31,86.70,16.69,-1.63,5.22,42.81,11.68,12.94,57.17,1286,1376,1422,1284,1342,1499,1550,11091,721
115828,0,-100.34,-10.82,-6.86,0.152,0.064,1.068,0.00,0.00,-3.97,9.51,96.36,20.32,-1.52,5.30,42.92,31.40,-11.39,60.06,1286,1376,1422,1284,1342,1499,1522,11079,721
115840,0,-94.67,5.35,-7.52,0.172,-0.042,0.935,0.00,0.00,-1.89,9.28,92.77,3.93,-1.41,5.33,43.03,31.61,-39.59,61.83,1286,1376,1422,1284,1369,1499,1522,11066,721
115852,0,-86.21,35.04,-10.62,0.139,-0.030,1.128,0.00,0.00,0.08,8.67,86.29,-26.38,-1.31,5.32,43.19,24.89,-110.00,69.73,1286,1376,1422,1284,1342,1499,1550,11062,721
115864,0,-81.05,35.26,-9.61,-0.024,-0.012,1.290,0.00,0.00,1.96,8.02,83.00,-27.24,-1.22,5.29,43.39,23.26,-68.27,67.41,1286,1376,1422,1284,1342,1499,1550,11037,721
115876,0,-78.33,42.52,-7.56,-0.185,0.073,1.454,0.00,0.00,3.63,7.45,81.96,-35.07,-1.12,5.24,43.55,25.96,-75.48,62.44,1286,1376,1422,1284,1343,1499,1549,11012,721
115888,0,-82.51,19.16,-5.12,-0.066,0.098,1.349,0.00,0.00,5.21,7.00,87.72,-12.17,-1.03,5.20,43.68,42.51,23.82,56.49,1286,1376,1422,1284,1343,1499,1549,11012,721
115900,0,-87.32,17.31,-4.03,-0.042,0.067,1.234,0.00,0.00,6.79,6.59,94.11,-10.72,-0.94,5.17,43.77,53.41,16.26,53.84,1286,1376,1422,1284,1343,1499,1549,11041,721
115912,0,-81.40,21.92,-4.22,-0.034,0.034,1.295,0.00,0.00,8.27,6.11,89.67,-15.82,-0.84,5.13,43.86,42.35,3.18,54.42,1286,1376,1422,1284,1365,1499,1526,11045,721
115924,0,-76.98,14.09,-3.30,0.020,0.048,1.232,0.00,0.00,9.74,5.81,86.72,-8.29,-0.75,5.11,43.91,31.90,6.47,52.17,1331,1393,1427,1309,1365,1499,1526,11045,720
115936,0,-77.10,21.27,-3.63,0.059,0.036,1.146,0.00,0.00,11.12,5.33,88.22,-15.94,-0.65,5.08,43.97,37.10,-13.64,53.05,1331,1393,1427,1309,1365,1499,1526,11033,720
115948,0,-74.63,19.02,-4.05,0.050,0.071,1.139,0.00,0.00,12.46,4.80,87.09,-14.22,-0.56,5.04,44.04,35.22,1.80,54.18,1331,1393,1427,1309,1365,1499,1548,11012,720
115960,0,-70.91,34.83,-3.61,-0.090,0.124,1.237,0.00,0.00,13.72,4.15,84.63,-30.68,-0.46,4.97,44.10,31.35,-23.71,53.13,1331,1393,1427,1309,1343,1499,1548,11021,720
115972,0,-80.45,38.44,-2.47,-0.233,0.022,1.304,0.00,0.00,15.03,3.63,95.48,-34.81,-0.37,4.90,44.14,56.48,-30.34,50.31,1331,1393,1427,1309,1343,1499,1548,11012,720
115984,0,-80.78,28.94,-2.15,-0.302,0.010,1.302,0.00,0.00,16.20,3.35,96.98,-25.59,-0.28,4.84,44.21,65.57,0.05,49.58,1331,1393,1427,1309,1343,1499,1548,11033,720
115996,0,-74.84,17.12,-0.39,-0.231,-0.014,1.221,0.00,0.00,17.30,3.31,92.14,-13.81,-0.19,4.81,44.23,57.27,11.17,45.20,1331,1393,1427,1309,1343,1499,1548,11016,720
116008,0,-74.61,22.66,-1.75,-0.141,-0.029,1.217,0.00,0.00,18.31,3.26,92.92,-19.40,-0.11,4.80,44.27,62.96,-41.51,48.65,1331,1393,1427,1309,1343,1499,1539,11058,720
116020,0,-68.74,18.57,-3.24,-0.188,-0.057,1.206,0.00,0.00,19.26,3.04,88.00,-15.53,-0.03,4.76,44.32,53.16,-0.94,52.41,1287,1385,1409,1327,1352,1499,1539,11100,720
116032,0,-60.94,5.26,-3.07,-0.034,-0.095,1.098,0.00,0.00,20.18,2.98,81.12,-2.28,0.06,4.74,44.36,39.31,37.69,52.02,1287,1385,1409,1327,1352,1499,1539,11100,720
116044,0,-53.38,16.63,-3.03,0.022,-0.081,1.104,0.00,0.00,21.01,2.74,74.39,-13.90,0.13,4.71,44.40,27.89,-13.81,51.97,1287,1385,1409,1327,1352,1499,1539,11116,720
116056,0,-52.83,8.28,-0.93,0.013,-0.225,1.086,0.00,0.00,22.03,2.47,74.86,-5.81,0.22,4.68,44.44,27.20,30.26,46.76,1287,1385,1409,1327,1346,1499,1545,11100,720
116068,0,-46.62,-7.16,0.41,0.218,-0.176,0.935,0.00,0.00,22.87,2.27,69.50,9.43,0.29,4.69,44.43,22.85,53.42,43.42,1287,1385,1409,1327,1346,1499,1545,11091,720
116080,0,-42.78,16.76,0.66,0.270,-0.178,0.963,0.00,0.00,23.63,1.55,66.41,-15.22,0.36,4.65,44.44,20.65,-19.52,42.77,1287,1385,1409,1327,1346,1499,1545,11091,720
116092,0,-40.28,20.98,2.50,0.324,-0.164,0.880,0.00,0.00,24.32,0.51,64.60,-20.47,0.44,4.60,44.42,16.43,3.61,38.18,1287,1385,1409,1327,1346,1499,1545,11083,720
116104,0,-42.07,48.70,0.37,0.050,-0.201,1.155,0.00,0.00,25.02,-0.62,67.09,-49.31,0.51,4.50,44.45,18.21,-62.91,43.53,1287,1385,1409,1327,1346,1499,1545,11075,720
116116,0,-36.62,33.22,0.17,0.051,-0.166,1.132,0.00,0.00,25.62,-1.50,62.24,-34.73,0.59,4.41,44.49,10.70,6.28,44.06,1298,1374,1406,1306,1346,1499,1545,11066,718
116128,0,-33.89,37.13,-0.55,-0.011,-0.191,1.177,0.00,0.00,26.21,-2.38,60.10,-39.50,0.66,4.31,44.53,6.83,-8.24,45.90,1298,1374,1406,1306,1346,1499,1545,11058,718
116140,0,-28.18,28.33,0.47,0.016,-0.155,1.159,0.00,0.00,26.72,-3.13,54.90,-31.46,0.73,4.21,44.56,-1.79,22.69,43.38,1298,1374,1406,1306,1346,1499,1545,11062,718
116152,0,-26.81,27.34,3.98,0.074,-0.117,1.086,0.00,0.00,27.17,-3.83,53.98,-31.17,0.80,4.13,44.52,-1.87,12.18,34.56,1298,1374,1406,1306,1343,1499,1548,11091,718
116164,0,-24.52,36.49,3.27,-0.022,-0.122,1.205,0.00,0.00,27.53,-4.67,52.05,-41.16,0.87,4.03,44.49,-1.62,-9.88,36.33,1298,1374,1406,1306,1343,1499,1548,11079,718
116176,0,-26.19,33.60,2.70,-0.114,-0.144,1.291,0.00,0.00,27.82,-5.30,54.01,-38.90,0.93,3.93,44.47,7.49,3.84,37.71,1298,1374,1406,1306,1343,1499,1548,11079,718
116188,0,-25.04,17.09,1.73,-0.108,-0.172,1.296,0.00,0.00,28.11,-5.65,53.15,-22.73,1.00,3.86,44.44,5.37,38.88,40.11,1298,1374,1406,1306,1343,1499,1548,11100,718
116200,0,-21.53,24.07,1.14,-0.285,-0.191,1.377,0.00,0.00,28.32,-5.88,49.85,-29.95,1.06,3.78,44.41,2.53,1.51,41.56,1298,1374,1406,1306,1343,1499,1548,11095,718
116212,0,-14.24,9.89,1.55,-0.335,-0.196,1.343,0.00,0.00,28.44,-5.91,42.68,-15.80,1.12,3.71,44.36,-6.26,60.16,40.49,1298,1374,1406,1306,1344,1499,1548,11062,718
116224,0,-8.92,-13.89,3.47,-0.078,-0.161,1.101,0.00,0.00,28.54,-5.41,37.47,8.47,1.17,3.71,44.25,-13.96,69.83,35.59,1398,1334,1414,1230,1344,1499,1548,11029,718
116236,0,-7.56,-1.30,3.88,0.014,-0.135,1.099,0.00,0.00,28.57,-5.18,36.13,-3.87,1.22,3.70,44.14,-9.74,-5.70,34.44,1398,1334,1414,1230,1344,1499,1548,11029,718
116248,0,-8.81,3.58,4.67,-0.040,-0.115,1.110,0.00,0.00,28.55,-5.08,37.36,-8.65,1.27,3.69,44.00,0.38,-12.45,32.33,1398,1334,1414,1230,1344,1499,1549,11025,718
116260,0,-10.19,2.73,4.35,-0.121,-0.147,1.195,0.00,0.00,28.49,-4.96,38.68,-7.69,1.31,3.66,43.89,10.23,11.23,33.02,1398,1334,1414,1230,1342,1499,1549,11012,718
116272,0,-4.38,-9.08,5.08,-0.142,-0.168,1.225,0.00,0.00,28.36,-4.60,32.74,4.48,1.35,3.65,43.79,4.40,46.65,31.10,1398,1334,1414,1230,1341,1499,1550,11021,718
116284,0,1.69,-22.63,6.82,0.096,-0.116,1.068,0.00,0.00,28.07,-4.14,26.38,18.50,1.38,3.68,43.67,1.39,59.34,26.61,1398,1334,1414,1230,1341,1499,1550,11012,718
116296,0,1.97,-5.40,6.46,0.175,-0.103,1.113,0.00,0.00,27.73,-4.05,25.76,1.35,1.41,3.70,43.53,5.03,-17.65,27.37,1398,1334,1414,1230,1342,1499,1549,11012,718
116308,0,5.05,1.87,6.78,0.051,-0.093,1.145,0.00,0.00,27.29,-4.21,22.24,-6.08,1.44,3.68,43.42,4.41,-1.04,26.46,1398,1334,1414,1230,1342,1499,1521,11012,718
116320,0,3.18,3.36,5.44,-0.072,-0.109,1.173,0.00,0.00,26.78,-4.25,23.59,-7.61,1.46,3.64,43.30,12.63,17.50,29.70,1272,1406,1406,1396,1370,1499,1521,11016,718
116332,0,5.41,3.30,4.83,-0.170,-0.146,1.243,0.00,0.00,26.26,-4.16,20.85,-7.46,1.48,3.61,43.22,8.89,25.07,31.14,1272,1406,1406,1396,1370,1499,1521,11016,718
116344,0,13.54,-0.39,4.90,-0.226,-0.179,1.182,0.00,0.00,25.64,-3.86,12.10,-3.47,1.49,3.59,43.13,-3.25,28.60,30.87,1272,1406,1406,1396,1370,1499,1521,11012,718
116356,0,21.89,-4.34,5.35,-0.192,-0.183,1.105,0.00,0.00,24.94,-3.37,3.05,0.97,1.50,3.58,43.01,-17.92,18.10,29.63,1272,1406,1406,1396,1369,1499,1522,11004,718
116368,0,30.66,-6.81,4.87,-0.123,-0.178,1.062,0.00,0.00,24.30,-2.84,-6.36,3.97,1.51,3.60,42.90,-37.41,5.82,30.71,1272,1406,1406,1396,1369,1499,1548,11008,718
116380,0,36.14,-17.12,5.55,0.036,-0.137,0.939,0.00,0.00,23.65,-2.36,-12.48,14.76,1.52,3.63,42.77,-44.32,22.65,28.89,1272,1406,1406,1396,1343,1499,1548,11008,718
116392,0,37.38,-20.32,5.58,0.189,-0.074,0.885,0.00,0.00,22.97,-2.18,-14.41,18.14,1.53,3.65,42.63,-42.34,40.29,28.67,1272,1406,1406,1396,1343,1499,1548,10996,718
116404,0,39.54,-18.79,5.51,0.247,-0.037,0.907,0.00,0.00,22.33,-2.13,-17.21,16.66,1.53,3.67,42.50,-45.14,37.75,28.73,1272,1406,1406,1396,1343,1499,1548,11000,718
116416,0,40.84,-13.44,5.49,0.336,0.015,0.872,0.00,0.00,21.66,-2.29,-19.18,11.15,1.54,3.69,42.38,-43.90,19.31,28.65,1396,1414,1366,1272,1362,1499,1531,11025,717
116428,0,38.22,5.75,3.88,0.227,0.050,1.022,0.00,0.00,20.98,-2.61,-17.25,-8.36,1.54,3.68,42.29,-36.56,-33.73,32.58,1396,1414,1366,1272,1362,1499,1531,11021,717
116440,0,36.40,18.45,1.69,-0.024,0.095,1.184,0.00,0.00,20.24,-2.86,-16.16,-21.31,1.53,3.65,42.23,-30.30,-44.37,38.00,1396,1414,1366,1272,1362,1499,1531,10996,717
116452,0,31.16,-0.26,0.23,-0.174,0.123,1.101,0.00,0.00,19.49,-2.67,-11.67,-2.42,1.53,3.62,42.20,-16.47,33.47,41.62,1396,1414,1366,1272,1343,1499,1548,11021,717
116464,0,23.95,-16.98,-1.83,-0.012,0.104,0.966,0.00,0.00,18.77,-2.14,-5.18,14.85,1.53,3.64,42.18,0.53,50.49,46.75,1396,1414,1366,1272,1343,1499,1548,10979,717
116476,0,22.44,-17.31,-1.95,0.187,0.071,0.896,0.00,0.00,18.10,-1.70,-4.34,15.61,1.52,3.69,42.13,5.49,2.86,47.00,1396,1414,1366,1272,1343,1499,1548,10979,717
116488,0,21.35,2.42,-1.04,0.241,0.088,0.905,0.00,0.00,17.33,-1.73,-4.02,-4.15,1.52,3.73,42.04,10.71,-78.52,44.63,1396,1414,1366,1272,1343,1499,1545,10987,717
116500,0,19.89,23.41,-2.04,-0.007,0.049,1.128,0.00,0.00,16.62,-2.13,-3.26,-25.55,1.51,3.70,42.02,10.93,-87.05,47.13,1396,1414,1366,1272,1346,1499,1545,11012,717
116512,0,23.65,14.50,-0.10,-0.317,0.054,1.209,0.00,0.00,15.86,-2.20,-7.79,-16.70,1.50,3.65,42.04,5.45,9.35,42.28,1396,1414,1366,1272,1346,1499,1545,11029,717
116524,0,24.24,-12.58,2.25,-0.193,0.030,1.097,0.00,0.00,15.09,-1.59,-9.14,10.99,1.48,3.66,42.01,6.35,60.04,36.39,1390,1298,1460,1236,1346,1499,1545,11012,717
116536,0,24.71,-25.76,4.16,0.076,0.011,0.955,0.00,0.00,14.29,-1.02,-10.42,24.74,1.46,3.71,41.97,9.42,52.54,31.57,1390,1298,1460,1236,1346,1499,1545,11000,717
116548,0,22.81,-22.62,6.33,0.239,-0.009,0.855,0.00,0.00,13.43,-0.89,-9.38,21.73,1.44,3.75,41.86,16.77,33.94,26.03,1390,1298,1460,1236,1346,1499,1547,11025,717
116560,0,24.96,-8.56,5.05,0.222,-0.075,0.906,0.00,0.00,12.56,-1.11,-12.41,7.45,1.42,3.76,41.78,11.58,9.97,29.15,1390,1298,1460,1236,1344,1499,1547,11012,717
116572,0,34.52,2.91,4.05,0.059,-0.093,1.027,0.00,0.00,11.65,-1.26,-22.87,-4.17,1.39,3.75,41.71,-9.48,-9.65,31.58,1390,1298,1460,1236,1344,1499,1547,11058,717
116584,0,40.94,5.54,4.16,-0.029,-0.080,1.069,0.00,0.00,10.72,-1.29,-30.22,-6.83,1.36,3.74,41.63,-22.66,-11.38,31.24,1390,1298,1460,1236,1344,1499,1547,11058,717
116596,0,43.24,-1.92,5.02,-0.069,-0.069,1.063,0.00,0.00,9.83,-1.21,-33.41,0.70,1.33,3.72,41.56,-25.85,29.73,29.02,1390,1298,1460,1236,1342,1499,1549,11083,717
116608,0,44.86,-3.42,3.68,0.020,-0.031,1.042,0.00,0.00,8.94,-1.05,-35.92,2.36,1.30,3.72,41.52,-24.00,21.31,32.32,1390,1298,1460,1236,1342,1499,1549,11062,717
116620,0,43.20,18.81,1.10,-0.160,0.017,1.276,0.00,0.00,8.09,-1.09,-35.11,-19.90,1.27,3.68,41.50,-18.97,-38.85,38.75,1286,1432,1324,1326,1342,1499,1549,11066,718
116632,0,39.93,7.08,0.39,-0.282,0.036,1.341,0.00,0.00,7.20,-0.91,-32.74,-7.99,1.23,3.65,41.49,-11.26,13.39,40.53,1286,1432,1324,1326,1342,1499,1549,11070,718
116644,0,36.07,-16.16,0.06,-0.195,0.041,1.133,0.00,0.00,6.25,-0.31,-29.82,15.85,1.19,3.67,41.48,-1.78,60.84,41.33,1286,1432,1324,1326,1342,1499,1549,11108,718
116656,0,35.00,-17.26,-1.65,-0.077,0.030,1.010,0.00,0.00,5.32,0.38,-29.68,17.64,1.16,3.71,41.46,-1.22,27.30,45.58,1286,1432,1324,1326,1342,1499,1549,11100,718
116668,0,37.25,-22.09,-1.29,0.071,0.007,0.903,0.00,0.00,4.44,1.06,-32.81,23.15,1.12,3.77,41.40,-8.17,6.62,44.62,1286,1432,1324,1326,1342,1499,1549,11108,718
116680,0,36.50,-25.08,-0.46,0.272,-0.014,0.745,0.00,0.00,3.60,1.42,-32.90,26.50,1.08,3.87,41.32,-6.14,-23.06,42.48,1286,1432,1324,1326,1342,1499,1549,11108,718
116692,0,32.47,-13.38,-0.81,0.341,-0.036,0.729,0.00,0.00,2.78,1.18,-29.70,14.56,1.04,3.93,41.27,2.58,-37.69,43.30,1286,1432,1324,1326,1367,1499,1524,11070,718
116704,0,30.78,2.66,-2.27,0.164,-0.028,0.923,0.00,0.00,1.94,0.79,-28.84,-1.86,1.00,3.93,41.27,5.40,-24.41,46.95,1286,1432,1324,1326,1367,1499,1524,11075,718
116716,0,31.83,0.60,-2.10,-0.023,-0.050,1.025,0.00,0.00,1.10,0.77,-30.73,0.17,0.95,3.93,41.26,3.11,7.26,46.51,1325,1403,1423,1317,1367,1499,1524,11062,722
116728,0,41.91,-5.84,0.80,-0.052,-0.144,1.028,0.00,0.00,0.24,1.01,-41.67,6.84,0.91,3.95,41.24,-16.60,8.54,39.24,1325,1403,1423,1317,1367,1499,1543,11058,722
116740,0,48.09,-13.56,2.13,-0.181,-0.120,1.132,0.00,0.00,-0.81,1.26,-48.90,14.82,0.85,3.95,41.26,-23.77,67.64,35.93,1325,1403,1423,1317,1348,1499,1543,11050,722
116752,0,52.88,-27.15,2.89,-0.135,-0.133,1.041,0.00,0.00,-1.85,11.45,-54.73,38.60,0.79,3.99,41.27,-33.65,99.31,34.06,1325,1403,1423,1317,1338,1499,1553,11016,722
116764,0,63.33,-29.06,1.70,0.005,-0.151,1.009,0.00,0.00,-2.85,12.28,-66.17,41.34,0.74,4.09,41.29,-57.56,44.24,37.05,1325,1403,1423,1317,1338,1499,1553,11016,722
116776,0,66.73,-31.79,1.25,0.181,-0.105,0.909,0.00,0.00,-3.77,3.30,-70.50,35.09,0.68,4.17,41.29,-64.03,22.99,38.17,1325,1403,1423,1317,1348,1499,1543,11029,722
116788,0,64.45,-17.07,-0.98,0.193,-0.063,1.004,0.00,0.00,-4.70,13.16,-69.15,30.23,0.62,4.22,41.30,-56.22,1.93,43.76,1325,1403,1423,1317,1348,1499,1554,11029,722
116800,0,62.62,-4.17,-1.19,-0.013,-0.006,1.132,0.00,0.00,-5.70,13.31,-68.32,17.49,0.56,4.26,41.33,-47.79,-2.51,44.30,1325,1403,1423,1317,1337,1499,1554,11033,722
116812,0,59.22,1.10,-1.62,-0.138,0.032,1.215,0.00,0.00,-6.69,3.93,-65.90,2.83,0.50,4.29,41.35,-38.96,-19.67,45.39,1325,1403,1423,1317,1348,1499,1543,11021,722
116824,0,55.36,-1.56,-1.46,-0.221,0.017,1.218,0.00,0.00,-7.68,4.45,-63.04,6.01,0.43,4.32,41.35,-28.25,-17.38,45.00,1316,1358,1422,1296,1348,1499,1543,11012,722
116836,0,49.80,-10.35,-0.90,-0.132,-0.046,1.072,0.00,0.00,-8.63,4.97,-58.43,15.32,0.36,4.36,41.36,-14.45,7.89,43.62,1316,1358,1422,1296,1367,1499,1524,11021,722
116848,0,45.85,-5.16,-3.28,-0.029,-0.068,1.073,0.00,0.00,-9.56,5.21,-55.41,10.37,0.29,4.39,41.38,-4.75,0.67,49.58,1316,1358,1422,1296,1367,1499,1524,11066,722
116860,0,47.21,22.58,-6.08,-0.235,-0.044,1.344,0.00,0.00,-10.54,5.15,-57.76,-17.43,0.22,4.37,41.42,-7.95,-64.45,56.64,1316,1358,1422,1296,1367,1499,1524,11066,722
116872,0,43.79,15.58,-5.50,-0.425,-0.049,1.386,0.00,0.00,-11.49,5.34,-55.28,-10.24,0.15,4.37,41.47,-5.44,-24.65,55.21,1316,1358,1422,1296,1348,1499,1543,11029,722
116884,0,43.88,6.65,-5.10,-0.585,-0.140,1.466,0.00,0.00,-12.35,5.59,-56.23,-1.06,0.08,4.34,41.60,-11.21,34.12,54.34,1316,1358,1422,1296,1348,1499,1543,11021,722
116896,0,51.64,-15.26,-1.81,-0.487,-0.095,1.408,0.00,0.00,-13.25,6.27,-64.89,21.54,0.01,4.36,41.69,-27.11,90.14,46.20,1316,1358,1422,1296,1348,1499,1543,11021,722
116908,0,47.46,-21.65,1.04,-0.346,-0.063,1.363,0.00,0.00,-14.12,7.30,-61.57,28.95,-0.06,4.44,41.73,-21.26,30.31,39.12,1316,1358,1422,1296,1348,1499,1521,10996,722
116920,0,47.23,-45.41,3.34,-0.248,-0.099,1.183,0.00,0.00,-14.98,8.28,-62.21,53.69,-0.13,4.51,41.77,-25.08,110.00,33.42,1346,1388,1450,1292,1369,1499,1521,10996,722
116932,0,52.97,-46.30,1.72,-0.020,-0.099,1.037,0.00,0.00,-15.81,9.49,-68.78,55.79,-0.20,4.63,41.78,-42.15,61.92,37.48,1346,1388,1450,1292,1369,1499,1521,10975,722
116944,0,54.90,-33.25,0.22,0.117,-0.109,1.043,0.00,0.00,-16.52,10.28,-71.42,43.52,-0.26,4.75,41.78,-50.17,-3.55,41.23,1346,1388,1450,1292,1369,1499,1521,10991,722
116956,0,52.30,-22.51,-0.81,0.152,-0.059,1.014,0.00,0.00,-17.31,10.62,-69.60,33.12,-0.33,4.83,41.79,-41.47,-6.24,43.81,1346,1388,1450,1292,1346,1499,1545,10962,722
116968,0,49.96,-3.05,-2.76,-0.003,-0.030,1.175,0.00,0.00,-18.07,10.73,-68.03,13.78,-0.40,4.88,41.83,-36.21,-24.33,48.72,1346,1388,1450,1292,1346,1499,1545,10966,722
116980,0,45.37,-1.74,-2.37,-0.139,-0.028,1.178,0.00,0.00,-18.78,11.07,-64.15,12.82,-0.47,4.93,41.86,-26.19,-22.29,47.79,1346,1388,1450,1292,1346,1499,1545,10979,722
116992,0,36.83,-13.57,-3.08,0.052,-0.063,1.059,0.00,0.00,-19.47,11.39,-56.30,24.95,-0.54,5.00,41.89,-6.20,10.39,49.58,1346,1388,1450,1292,1345,1499,1546,10962,722
117004,0,38.17,-4.02,-3.42,0.062,-0.101,1.073,0.00,0.00,-20.25,11.31,-58.42,15.32,-0.62,5.03,41.92,-6.52,2.60,50.46,1346,1388,1450,1292,1345,1499,1546,10975,722
117016,0,44.05,6.70,-2.99,-0.145,-0.116,1.189,0.00,0.00,-20.99,11.23,-65.04,4.53,-0.70,5.04,41.95,-23.76,-0.47,49.41,1324,1422,1376,1278,1350,1499,1541,11000,722
117028,0,47.26,7.02,-2.94,-0.185,-0.152,1.291,0.00,0.00,-21.66,11.33,-68.92,4.31,-0.77,5.06,42.00,-33.19,-4.71,49.34,1324,1422,1376,1278,1350,1499,1542,11050,722
117040,0,47.94,12.64,-0.36,-0.423,-0.166,1.380,0.00,0.00,-22.40,11.33,-70.34,-1.31,-0.85,5.05,42.07,-33.43,8.59,42.97,1324,1422,1376,1278,1349,1499,1542,11058,722
117052,0,48.68,-5.88,-0.11,-0.472,-0.151,1.387,0.00,0.00,-23.05,11.63,-71.73,17.51,-0.92,5.05,42.18,-39.50,82.90,42.46,1324,1422,1376,1278,1349,1499,1542,11066,722
117064,0,46.13,-23.19,0.63,-0.233,-0.108,1.223,0.00,0.00,-23.67,12.43,-69.80,35.62,-1.00,5.12,42.25,-35.15,73.20,40.67,1324,1422,1376,1278,1349,1499,1542,11066,722
117076,0,39.12,-23.55,-0.07,0.056,-0.061,1.093,0.00,0.00,-24.27,12.98,-63.39,36.54,-1.07,5.20,42.29,-22.79,33.64,42.46,1324,1422,1376,1278,1347,1499,1544,11037,722
117088,0,36.57,-2.45,-2.34,0.001,-0.006,1.072,0.00,0.00,-24.91,13.15,-61.49,15.61,-1.14,5.26,42.34,-21.30,-29.91,48.18,1324,1422,1376,1278,1347,1499,1544,11029,722
117100,0,31.96,-19.67,-3.17,0.134,-0.020,0.897,0.00,0.00,-25.45,13.49,-57.41,33.16,-1.21,5.34,42.34,-18.65,18.79,50.26,1324,1422,1376,1278,1347,1499,1544,11050,722
117112,0,31.28,-35.99,-2.62,0.422,-0.051,0.671,0.00,0.00,-25.91,13.56,-57.20,49.55,-1.28,5.46,42.32,-18.83,43.77,48.88,1324,1422,1376,1278,1359,1499,1532,11045,722
117124,0,32.00,-14.66,-1.53,0.423,0.019,0.673,0.00,0.00,-26.48,13.06,-58.49,27.72,-1.34,5.54,42.29,-19.82,-12.64,46.11,1379,1383,1401,1273,1359,1499,1532,11050,723
117136,0,27.77,-9.36,-2.02,0.362,0.023,0.745,0.00,0.00,-26.96,12.40,-54.73,21.76,-1.41,5.60,42.27,-16.10,2.30,47.32,1379,1383,1401,1273,1359,1499,1532,11029,723
117148,0,22.55,-15.25,-0.35,0.392,-0.047,0.725,0.00,0.00,-27.33,11.62,-49.87,26.87,-1.47,5.65,42.27,-8.03,37.35,43.15,1379,1383,1401,1273,1359,1499,1542,11021,723
117160,0,20.55,-12.80,1.19,0.443,-0.099,0.717,0.00,0.00,-27.62,10.64,-48.17,23.45,-1.54,5.68,42.31,-7.08,53.89,39.34,1379,1383,1401,1273,1349,1499,1542,11008,723
117172,0,24.47,5.65,0.19,0.283,-0.140,0.827,0.00,0.00,-27.99,9.80,-52.45,4.15,-1.60,5.69,42.36,-15.13,5.49,41.89,1379,1383,1401,1273,1346,1499,1545,10979,723
117184,0,28.26,18.21,-0.15,0.109,-0.159,0.914,0.00,0.00,-28.31,9.19,-56.57,-9.03,-1.67,5.69,42.42,-27.45,-44.23,42.78,1379,1383,1401,1273,1346,1499,1545,11012,723
117196,0,27.95,5.28,1.07,0.059,-0.166,0.929,0.00,0.00,-28.49,8.84,-56.44,3.57,-1.73,5.70,42.48,-29.07,14.74,39.82,1379,1383,1401,1273,1346,1499,1545,11000,723
117208,0,25.35,0.36,-0.42,0.204,-0.076,0.926,0.00,0.00,-28.65,8.58,-54.00,8.22,-1.78,5.71,42.55,-22.72,17.85,43.61,1379,1383,1401,1273,1346,1499,1546,11033,723
117220,0,17.60,29.14,-3.60,0.020,-0.029,1.174,0.00,0.00,-28.69,8.11,-46.29,-21.03,-1.84,5.70,42.65,-11.54,-74.89,51.65,1322,1414,1364,1284,1346,1499,1546,11062,718
117232,0,7.00,14.25,-4.93,-0.129,-0.057,1.173,0.00,0.00,-28.61,7.91,-35.60,-6.34,-1.89,5.68,42.77,4.20,-3.90,55.09,1322,1414,1364,1284,1346,1499,1545,11050,718
117244,0,1.73,13.25,-7.29,-0.286,-0.100,1.190,0.00,0.00,-28.50,7.99,-30.23,-5.25,-1.93,5.68,42.94,11.88,-11.01,61.16,1322,1414,1364,1284,1346,1499,1545,11066,718
117256,0,0.51,20.63,-8.87,-0.468,-0.093,1.378,0.00,0.00,-28.38,8.22,-28.89,-12.41,-1.98,5.68,43.10,12.34,-41.51,65.27,1322,1414,1364,1284,1345,1499,1547,11050,718
117268,0,0.19,1.46,-7.19,-0.424,-0.051,1.317,0.00,0.00,-28.35,8.82,-28.54,7.36,-2.03,5.71,43.23,16.22,-4.07,61.21,1322,1414,1364,1284,1345,1499,1545,11091,718
117280,0,-3.86,6.90,-6.39,-0.477,0.020,1.320,0.00,0.00,-28.36,9.36,-24.50,2.47,-2.08,5.74,43.38,24.24,-28.14,59.36,1322,1414,1364,1284,1346,1499,1545,11083,718
117292,0,-6.74,-6.25,-6.26,-0.479,0.050,1.333,0.00,0.00,-28.33,10.10,-21.59,16.35,-2.12,5.78,43.53,27.13,17.81,59.18,1322,1414,1364,1284,1363,1499,1528,11083,718
117304,0,-10.36,-29.64,-4.68,-0.279,0.040,1.142,0.00,0.00,-28.31,11.24,-17.95,40.87,-2.17,5.88,43.66,33.81,49.32,55.36,1322,1414,1364,1284,1363,1499,1528,11066,718
117316,0,-9.24,-39.37,-2.94,-0.057,-0.033,0.949,0.00,0.00,-28.26,12.26,-19.02,51.62,-2.21,5.99,43.78,28.85,57.50,51.14,1343,1331,1500,1285,1365,1499,1524,11066,718
117328,0,-0.10,-25.87,-3.99,-0.047,-0.058,1.054,0.00,0.00,-28.24,12.96,-28.14,38.83,-2.26,6.09,43.94,6.23,15.70,53.92,1343,1331,1500,1285,1365,1499,1524,11004,718
117340,0,6.94,-22.29,-4.05,-0.101,-0.034,1.082,0.00,0.00,-28.27,13.68,-35.21,35.97,-2.30,6.18,44.10,-10.01,6.21,54.24,1343,1331,1500,1285,1365,1499,1524,10979,718
117352,0,10.24,-14.26,-3.83,-0.308,-0.038,1.189,0.00,0.00,-28.30,14.33,-38.54,28.59,-2.35,6.25,44.28,-17.65,2.94,53.87,1343,1331,1500,1285,1347,1499,1544,10971,718
117364,0,16.44,-31.26,-2.62,-0.190,0.029,1.087,0.00,0.00,-28.41,15.10,-44.86,46.37,-2.40,6.33,44.45,-24.26,80.78,51.01,1343,1331,1500,1285,1347,1499,1544,10946,718
117376,0,18.46,-16.66,-4.20,-0.062,0.091,1.120,0.00,0.00,-28.51,24.99,-46.97,41.65,-2.45,6.44,44.61,-24.71,4.27,55.12,1343,1331,1500,1285,1340,1499,1551,10962,718
117388,0,16.23,-1.26,-5.21,-0.160,0.129,1.206,0.00,0.00,-28.60,16.23,-44.83,17.49,-2.50,6.52,44.78,-19.39,-32.60,57.79,1343,1331,1500,1285,1340,1499,1547,10946,718
117400,0,14.24,-11.42,-6.20,-0.188,0.102,1.136,0.00,0.00,-28.67,16.77,-42.91,28.19,-2.55,6.59,44.94,-14.25,11.82,60.45,1343,1331,1500,1285,1344,1499,1547,10954,718
117412,0,9.13,-8.96,-8.26,0.036,0.123,1.096,0.00,0.00,-28.90,17.03,-38.03,25.99,-2.60,6.66,45.08,4.95,4.43,65.73,1343,1331,1500,1285,1344,1499,1547,10954,718
117424,0,11.47,-10.83,-7.14,0.017,0.145,1.028,0.00,0.00,-29.05,17.19,-40.52,28.02,-2.65,6.72,45.20,-6.22,19.13,63.05,1303,1385,1401,1287,1344,1499,1547,10962,718
117436,0,13.82,-23.77,-4.33,0.199,0.053,0.876,0.00,0.00,-29.13,17.25,-42.95,41.02,-2.70,6.80,45.32,-16.98,57.75,56.15,1303,1385,1401,1287,1347,1499,1544,10975,718
117448,0,20.84,-45.21,0.49,0.467,0.041,0.602,0.00,0.00,-29.23,17.03,-50.07,62.24,-2.75,6.91,45.38,-29.26,110.00,44.15,1303,1385,1401,1287,1347,1499,1544,10996,718
117460,0,18.96,-27.70,0.13,0.635,0.073,0.586,0.00,0.00,-29.33,16.29,-48.29,43.99,-2.80,7.03,45.43,-25.29,10.40,45.10,1303,1385,1401,1287,1347,1499,1544,11029,718
117472,0,14.03,-4.54,-1.26,0.498,0.031,0.645,0.00,0.00,-29.51,15.06,-43.54,19.60,-2.85,7.07,45.55,-12.67,-10.96,48.69,1303,1385,1401,1287,1350,1499,1542,10996,718
117484,0,17.41,-13.12,-1.01,0.510,-0.069,0.564,0.00,0.00,-29.59,13.99,-47.00,27.12,-2.91,7.11,45.67,-21.42,54.32,48.20,1303,1385,1401,1287,1350,1499,1542,11016,718
117496,0,23.84,-22.80,-1.32,0.747,-0.058,0.421,0.00,0.00,-29.74,12.88,-53.58,35.68,-2.96,7.19,45.77,-32.49,46.45,49.06,1303,1385,1401,1287,1369,1499,1520,11029,718
117508,0,28.73,23.25,-5.27,0.550,0.009,0.705,0.00,0.00,-30.02,11.32,-58.75,-11.93,-3.02,7.20,45.90,-44.12,-88.72,59.09,1303,1385,1401,1287,1369,1499,1520,11012,718
117520,0,24.62,14.86,-6.53,0.351,0.087,0.688,0.00,0.00,-30.25,10.00,-54.87,-4.86,-3.07,7.20,46.07,-38.07,-14.11,62.38,1328,1392,1444,1312,1369,1499,1520,11008,718
117532,0,13.28,4.47,-9.30,0.453,0.082,0.598,0.00,0.00,-30.44,8.77,-43.71,4.29,-3.12,7.20,46.25,-12.86,30.08,69.50,1328,1392,1444,1312,1367,1499,1524,10975,718
117544,0,9.76,-2.16,-7.25,0.506,0.071,0.491,0.00,0.00,-30.59,7.57,-40.36,9.73,-3.17,7.22,46.39,-4.80,35.93,64.52,1328,1392,1444,1312,1367,1499,1524,10954,718
117556,0,-1.45,7.77,-7.85,0.582,-0.026,0.531,0.00,0.00,-30.74,6.26,-29.29,-1.52,-3.22,7.25,46.51,15.08,-38.68,66.14,1328,1392,1444,1312,1348,1499,1543,10966,718
117568,0,2.43,19.20,-6.42,0.465,-0.016,0.611,0.00,0.00,-30.88,4.69,-33.31,-14.52,-3.27,7.22,46.66,1.68,-21.72,62.72,1328,1392,1444,1312,1348,1499,1545,10996,718
117580,0,1.92,17.81,-6.29,0.396,-0.005,0.710,0.00,0.00,-30.86,3.37,-32.78,-14.45,-3.31,7.19,46.83,-7.53,-12.40,62.55,1328,1392,1444,1312,1346,1499,1545,10979,718
117592,0,-3.81,0.65,-4.93,0.489,-0.007,0.694,0.00,0.00,-30.79,2.20,-26.97,1.55,-3.35,7.18,47.01,0.21,41.72,59.33,1328,1392,1444,1312,1346,1499,1545,11012,718
117604,0,-10.82,12.57,-4.14,0.536,-0.025,0.685,0.00,0.00,-30.64,0.86,-19.82,-11.71,-3.39,7.16,47.18,10.49,-4.15,57.53,1328,1392,1444,1312,1346,1499,1545,10996,718
117616,0,-18.66,30.58,-4.22,0.303,-0.056,0.865,0.00,0.00,-30.37,-0.44,-11.71,-31.02,-3.42,7.10,47.37,18.74,-42.18,57.91,1230,1428,1380,1350,1347,1499,1544,10991,733
117628,0,-16.92,10.14,-1.77,0.237,-0.097,0.752,0.00,0.00,-30.08,-1.28,-13.16,-11.41,-3.45,7.04,47.53,11.35,49.09,51.95,1230,1428,1380,1350,1347,1499,1538,11012,733
117640,0,-9.61,13.86,-2.15,0.334,-0.097,0.736,0.00,0.00,-29.71,-1.99,-20.10,-15.85,-3.47,7.02,47.67,-11.65,-14.65,53.04,1230,1428,1380,1350,1353,1499,1538,10996,733
117652,0,-8.35,-7.58,-0.50,0.504,-0.029,0.584,0.00,0.00,-29.28,-2.85,-20.93,4.73,-3.49,7.02,47.76,-15.98,32.61,49.01,1230,1428,1380,1350,1353,1499,1538,10979,733
117664,0,-13.89,-0.71,-1.76,0.642,0.052,0.604,0.00,0.00,-28.82,-4.02,-14.93,-3.31,-3.51,7.03,47.83,-8.46,-16.75,52.22,1230,1428,1380,1350,1353,1499,1538,10979,733
117676,0,-19.21,10.49,-1.78,0.465,0.079,0.734,0.00,0.00,-28.18,-5.15,-8.97,-15.64,-3.51,7.00,47.92,-4.20,-28.75,52.38,1230,1428,1380,1350,1347,1499,1544,10979,733
117688,0,-22.73,8.99,-2.35,0.507,0.085,0.727,0.00,0.00,-27.49,-6.17,-4.77,-15.16,-3.52,6.97,48.01,-2.76,-16.86,53.88,1230,1428,1380,1350,1347,1499,1544,10983,733
117700,0,-21.01,27.97,-4.46,0.279,0.129,0.880,0.00,0.00,-26.81,-7.05,-5.80,-35.02,-3.52,6.92,48.13,-10.46,-71.52,59.26,1230,1428,1380,1350,1347,1499,1544,10983,733
117712,0,-24.92,10.75,-4.27,0.192,0.179,0.872,0.00,0.00,-26.08,-7.44,-1.16,-18.20,-3.52,6.89,48.24,-3.59,-11.01,58.91,1230,1428,1380,1350,1349,1499,1542,10991,733
117724,0,-31.41,-1.61,-5.50,0.336,0.192,0.780,0.00,0.00,-25.32,-7.74,6.09,-6.13,-3.52,6.88,48.35,12.22,5.31,62.09,1309,1339,1475,1273,1349,1499,1542,11012,734
117736,0,-35.09,-4.20,-3.88,0.385,0.203,0.705,0.00,0.00,-24.60,-8.10,10.49,-3.90,-3.52,6.88,48.44,24.44,-5.87,58.14,1309,1339,1475,1273,1369,1499,1523,11012,734
117748,0,-37.65,-2.41,-4.05,0.459,0.162,0.688,0.00,0.00,-23.82,-8.61,13.84,-6.20,-3.52,6.89,48.51,30.55,-25.35,58.63,1309,1339,1475,1273,1369,1499,1523,11004,734
117760,0,-36.20,-1.93,-3.49,0.445,0.113,0.642,0.00,0.00,-23.09,-9.25,13.11,-7.32,-3.52,6.88,48.56,30.05,-19.19,57.30,1309,1339,1475,1273,1369,1499,1523,10983,734
117772,0,-34.70,1.83,-4.60,0.442,0.107,0.669,0.00,0.00,-22.39,-10.00,12.31,-11.83,-3.52,6.86,48.63,28.76,-18.83,60.13,1309,1339,1475,1273,1346,1499,1545,10991,734
117784,0,-33.44,9.77,-5.53,0.361,0.113,0.839,0.00,0.00,-21.70,-10.76,11.75,-20.53,-3.52,6.82,48.69,27.44,-24.72,62.51,1309,1339,1475,1273,1346,1499,1545,10962,734
117796,0,-34.36,8.34,-3.97,0.353,0.124,0.834,0.00,0.00,-21.08,-11.46,13.28,-19.80,-3.52,6.79,48.73,28.32,-16.37,58.66,1309,1339,1475,1273,1346,1499,1545,10979,734
117808,0,-33.37,9.46,-3.65,0.211,0.135,0.951,0.00,0.00,-20.51,-12.06,12.86,-21.52,-3.51,6.72,48.78,24.25,15.68,57.89,1309,1339,1475,1273,1346,1499,1545,11000,734
117820,0,-35.23,7.48,-2.15,0.173,0.123,0.900,0.00,0.00,-19.91,-12.37,15.32,-19.85,-3.51,6.68,48.81,23.60,-8.59,54.17,1316,1420,1382,1266,1346,1499,1545,11004,718
117832,0,-35.86,-2.84,-1.50,0.159,0.066,0.865,0.00,0.00,-19.24,-12.66,16.62,-9.81,-3.50,6.64,48.87,19.95,42.49,52.62,1316,1420,1382,1266,1345,1499,1545,11008,718
117844,0,-33.85,-5.14,-2.91,0.227,0.033,0.829,0.00,0.00,-18.58,-12.85,15.27,-7.71,-3.49,6.60,48.95,12.61,36.29,56.22,1316,1420,1382,1266,1345,1499,1545,11004,718
117856,0,-30.20,-6.81,-3.45,0.222,0.021,0.810,0.00,0.00,-17.86,-12.98,12.33,-6.17,-3.47,6.58,49.03,-1.09,23.72,57.66,1316,1420,1382,1266,1345,1500,1545,11008,718
117868,0,-31.46,-16.70,-2.20,0.367,-0.039,0.731,0.00,0.00,-17.07,-13.16,14.39,3.53,-3.46,6.58,49.10,-2.45,29.23,54.60,1316,1420,1382,1266,1345,1500,1545,10996,718
117880,0,-27.16,-34.89,2.28,0.557,-0.051,0.559,0.00,0.00,-16.35,-13.51,10.81,21.38,-3.44,6.61,49.10,-9.10,78.49,43.41,1316,1420,1382,1266,1345,1500,1545,11012,718
117892,0,-25.72,-26.36,2.02,0.690,-0.041,0.551,0.00,0.00,-15.60,-14.18,10.12,12.18,-3.43,6.63,49.09,-13.75,27.92,44.04,1316,1420,1382,1266,1346,1499,1544,11008,718
117904,0,-26.95,-4.07,0.93,0.519,-0.027,0.740,0.00,0.00,-14.85,-15.04,12.09,-10.97,-3.41,6.60,49.13,-10.95,-19.11,46.81,1316,1420,1382,1266,1346,1499,1544,10987,718
