time_ms,flags,gyro_x,gyro_y,gyro_z,accel_x,accel_y,accel_z,roll,pitch,rate_sp_roll,rate_sp_pitch,rate_err_roll,rate_err_pitch,rate_i_roll,rate_i_pitch,rate_i_yaw,pid_roll,pid_pitch,pid_yaw,m1,m2,m3,m4,rc_thr,rc_roll,rc_pitch,battery_mv,loop_us
185868,0,0.01,0.00,-0.01,0.034,-0.026,0.999,0.00,0.00,0.37,-0.43,0.36,-0.43,0.00,-0.00,0.00,0.06,-0.22,0.03,1000,1000,1000,1000,1031,1498,1522,11924,743
185880,0,0.00,-0.02,-0.00,0.034,-0.026,0.999,0.00,0.00,0.37,-0.43,0.37,-0.41,0.00,-0.00,0.00,0.07,-0.15,0.00,1000,1000,1000,1000,1031,1498,1521,11924,743
185892,0,0.01,-0.01,0.04,0.034,-0.026,0.999,0.00,0.00,0.37,-0.43,0.36,-0.42,0.00,-0.00,0.00,0.11,-0.18,-0.10,1000,1000,1000,1000,1031,1498,1521,11924,743
185904,0,0.05,0.01,0.02,0.035,-0.025,0.999,0.00,0.00,0.37,-0.43,0.32,-0.45,0.00,-0.01,0.00,0.03,-0.24,-0.04,1000,1000,1000,1000,1031,1499,1521,11924,743
185916,0,-0.02,0.01,0.01,0.034,-0.025,0.999,0.00,0.00,0.37,-0.43,0.40,-0.44,0.00,-0.01,0.00,0.18,-0.08,-0.03,1100,1100,1100,1100,1031,1499,1521,11924,713
185928,0,-0.02,0.06,0.01,0.035,-0.026,0.999,0.00,0.00,0.38,-0.44,0.39,-0.50,0.00,-0.01,-0.00,0.09,-0.30,-0.02,1100,1100,1100,1100,1031,1499,1521,11920,713
185940,0,-0.02,-0.00,0.03,0.035,-0.025,0.999,0.00,0.00,0.38,-0.44,0.40,-0.44,0.00,-0.01,-0.00,0.11,-0.10,-0.08,1100,1100,1100,1100,1031,1499,1521,11920,713
185952,0,0.09,0.00,-0.06,0.035,-0.025,0.999,0.00,0.00,0.38,-0.44,0.29,-0.44,0.00,-0.01,-0.00,-0.09,-0.20,0.15,1100,1100,1100,1100,1031,1499,1521,11915,713
185964,0,0.05,0.00,-0.07,0.036,-0.026,0.999,0.00,0.00,0.38,-0.45,0.33,-0.45,0.00,-0.01,0.00,0.01,-0.29,0.17,1100,1100,1100,1100,1031,1499,1521,11915,713
185976,0,0.06,0.05,0.13,0.036,-0.026,1.000,0.00,0.00,0.38,-0.45,0.32,-0.50,0.00,-0.01,0.00,-0.01,-0.44,-0.34,1100,1100,1100,1100,1031,1499,1521,11915,713
185988,0,0.08,0.04,0.05,0.036,-0.026,1.000,0.00,0.00,0.38,-0.45,0.31,-0.50,0.01,-0.01,-0.00,-0.05,-0.39,-0.12,1100,1100,1100,1100,1031,1499,1521,11911,713
186000,0,0.05,0.06,-0.07,0.036,-0.025,1.001,0.00,0.00,0.38,-0.46,0.33,-0.51,0.01,-0.01,-0.00,-0.01,-0.41,0.17,1100,1100,1100,1100,1031,1499,1521,11911,713
186012,0,0.07,0.04,-0.02,0.036,-0.026,1.001,0.00,0.00,0.38,-0.46,0.32,-0.50,0.01,-0.01,-0.00,-0.01,-0.41,0.04,1100,1100,1100,1100,1031,1499,1521,11907,713
186024,0,0.06,0.04,-0.09,0.036,-0.025,1.001,0.00,0.00,0.38,-0.47,0.32,-0.50,0.01,-0.02,0.00,0.04,-0.32,0.23,1100,1100,1100,1100,1031,1499,1520,11907,710
186036,0,0.03,0.01,0.09,0.037,-0.026,1.000,0.00,0.00,0.39,-0.47,0.36,-0.48,0.01,-0.02,0.00,0.05,-0.45,-0.22,1100,1100,1100,1100,1031,1499,1520,11903,710
186048,0,0.05,0.11,-0.01,0.036,-0.024,1.001,0.00,0.00,0.39,-0.48,0.34,-0.59,0.01,-0.02,-0.00,0.04,-0.71,0.03,1100,1100,1100,1100,1031,1499,1520,11890,710
186060,0,0.06,-0.36,0.18,0.039,-0.024,0.997,0.00,0.00,0.38,-0.48,0.33,-0.12,0.01,-0.02,-0.00,0.07,0.50,-0.46,1100,1100,1100,1100,1031,1499,1520,11882,710
186072,0,-0.22,0.17,-0.31,0.038,-0.022,0.995,0.00,0.00,0.38,-0.49,0.60,-0.66,0.01,-0.02,-0.00,0.63,-1.56,0.78,1100,1100,1100,1100,1031,1499,1520,11878,710
186084,0,0.16,-0.35,-0.23,0.048,-0.021,0.991,0.00,0.00,0.38,-0.50,0.23,-0.15,0.01,-0.02,0.01,-0.20,0.59,0.58,1100,1100,1100,1100,1031,1499,1521,11870,710
186096,0,0.02,-0.45,0.55,0.052,-0.017,0.986,0.00,0.00,0.38,-0.52,0.36,-0.07,0.01,-0.02,-0.00,0.30,0.48,-1.38,1100,1100,1100,1100,1031,1499,1521,11865,710
186108,0,0.20,-0.76,-0.21,0.050,-0.022,0.989,0.00,0.00,0.38,-0.53,0.18,0.23,0.01,-0.02,-0.00,-0.28,0.99,0.51,1100,1100,1100,1100,1031,1499,1521,11861,710
186120,0,-0.05,-0.54,-0.17,0.045,-0.017,1.000,0.00,0.00,0.38,-0.54,0.43,0.01,0.01,-0.02,0.01,0.42,-0.68,0.44,1100,1100,1100,1100,1032,1499,1520,11861,725
186132,0,0.22,1.39,0.24,0.026,-0.022,1.014,0.00,0.00,0.37,-0.55,0.15,-1.94,0.01,-0.02,0.00,-0.06,-5.55,-0.61,1100,1100,1100,1100,1032,1499,1520,11845,725
186144,0,-0.18,-0.50,0.15,0.026,-0.023,1.016,0.00,0.00,0.37,-0.54,0.55,-0.04,0.01,-0.02,-0.01,0.91,2.93,-0.39,1100,1100,1100,1100,1032,1499,1520,11807,725
186156,0,-0.07,0.24,-0.18,0.026,-0.026,1.011,0.00,0.00,0.38,-0.53,0.45,-0.77,0.01,-0.03,0.00,0.57,0.28,0.45,1100,1100,1100,1100,1032,1499,1520,11791,725
186168,0,-0.01,-0.93,0.12,0.039,-0.020,0.999,0.00,0.00,0.37,-0.52,0.38,0.41,0.01,-0.03,-0.00,0.28,2.61,-0.30,1100,1100,1100,1100,1032,1499,1521,11761,725
186180,0,-0.15,-1.04,0.13,0.050,-0.021,0.990,0.00,0.00,0.37,-0.52,0.52,0.53,0.01,-0.02,-0.01,0.24,0.39,-0.33,1100,1100,1100,1100,1032,1498,1521,11761,725
186192,0,-0.25,-0.58,-0.25,0.053,-0.022,0.990,0.00,0.00,0.38,-0.53,0.62,0.04,0.01,-0.02,-0.00,0.18,-1.38,0.61,1100,1100,1100,1100,1032,1498,1521,11766,725
186204,0,-0.23,0.46,-0.00,0.042,-0.024,0.995,0.00,0.00,0.38,-0.56,0.61,-1.01,0.01,-0.03,0.00,0.30,-2.77,0.00,1100,1100,1100,1100,1032,1498,1521,11770,725
186216,0,-0.02,0.50,-0.03,0.027,-0.031,1.005,0.00,0.00,0.39,-0.57,0.41,-1.07,0.01,-0.03,0.00,-0.01,0.25,0.07,1100,1100,1100,1100,1032,1498,1521,11770,711
186228,0,0.09,-3.75,-0.01,0.055,-0.034,0.979,0.00,0.00,0.40,-0.53,0.31,3.22,0.01,-0.03,0.00,-0.10,10.26,0.02,1100,1100,1100,1100,1031,1498,1521,11757,711
186240,0,0.50,-3.60,0.17,0.074,-0.033,0.961,0.00,0.00,0.40,-0.51,-0.10,3.09,0.01,-0.02,-0.00,-0.37,1.76,-0.43,1100,1100,1100,1100,1031,1499,1521,11766,711
186252,0,0.41,0.28,-0.23,0.048,-0.029,0.984,0.00,0.00,0.41,-0.53,-0.00,-0.81,0.01,-0.02,-0.00,-0.21,-8.48,0.57,1100,1100,1100,1100,1031,1499,1521,11728,711
186264,0,-0.29,0.77,0.07,0.051,-0.032,0.995,0.00,0.00,0.42,-0.57,0.71,-1.34,0.02,-0.02,0.00,0.54,-4.15,-0.18,1100,1100,1100,1100,1031,1499,1521,11753,711
186276,0,-0.28,-0.31,0.02,0.063,-0.030,0.982,0.00,0.00,0.44,-0.61,0.72,-0.31,0.02,-0.02,-0.00,0.28,1.58,-0.04,1100,1100,1100,1100,1031,1499,1521,11774,711
186288,0,0.16,-0.15,0.03,0.057,-0.036,0.991,0.00,0.00,0.46,-0.66,0.30,-0.52,0.02,-0.02,-0.00,-0.55,0.94,-0.08,1100,1100,1100,1100,1031,1499,1521,11774,711
186300,0,0.19,-1.22,0.03,0.061,-0.041,0.982,0.00,0.00,0.48,-0.70,0.28,0.53,0.02,-0.02,-0.00,0.00,4.79,-0.07,1100,1100,1100,1100,1032,1499,1521,11774,711
186312,0,0.04,0.52,-0.26,0.055,-0.031,0.995,0.00,0.00,0.49,-0.73,0.45,-1.24,0.02,-0.02,0.00,0.40,-4.40,0.66,1100,1100,1100,1100,1032,1499,1521,11782,711
186324,0,-0.24,0.87,0.43,0.044,-0.028,0.998,0.00,0.00,0.50,-0.76,0.74,-1.63,0.02,-0.03,0.00,0.10,-3.72,-1.07,1100,1100,1100,1100,1032,1499,1521,11774,720
186336,0,-0.06,-0.06,0.39,0.042,-0.026,0.995,0.00,0.00,0.51,-0.77,0.57,-0.72,0.02,-0.03,-0.02,-0.38,0.24,-1.00,1100,1100,1100,1100,1032,1499,1521,11766,720
186348,0,-0.44,0.21,-1.00,0.039,-0.024,1.002,0.00,0.00,0.52,-0.78,0.96,-0.99,0.02,-0.03,0.00,0.90,-0.60,2.50,1100,1100,1100,1100,1031,1499,1521,11782,720
186360,0,-0.03,1.27,0.60,0.031,-0.030,1.005,0.00,0.00,0.53,-0.81,0.56,-2.08,0.02,-0.04,0.00,-0.05,-0.77,-1.49,1100,1100,1100,1100,1031,1499,1520,11774,720
186372,0,0.17,0.49,0.05,0.022,-0.033,1.013,0.00,0.00,0.53,-0.81,0.35,-1.31,0.02,-0.04,-0.01,0.08,0.69,-0.14,1100,1100,1100,1100,1031,1499,1520,11774,720
186384,0,-0.22,-1.29,-0.62,0.035,-0.027,0.988,0.00,0.00,0.54,-0.78,0.75,0.51,0.02,-0.04,0.01,0.34,2.83,1.57,1100,1100,1100,1100,1031,1499,1520,11766,720
186396,0,-0.08,-1.06,0.56,0.024,-0.023,0.995,0.00,0.00,0.55,-0.76,0.63,0.30,0.02,-0.04,-0.00,-0.36,1.55,-1.40,1100,1100,1100,1100,1031,1499,1520,11786,720
186408,0,-1.22,-3.07,-0.65,0.030,-0.024,0.994,0.00,0.00,0.56,-0.69,1.78,2.39,0.02,-0.03,0.01,2.28,4.98,1.63,1100,1100,1100,1100,1031,1499,1520,11774,720
186420,0,-0.36,-1.04,0.35,0.071,-0.028,0.972,0.00,0.00,0.58,-0.71,0.93,0.33,0.03,-0.03,0.01,0.55,-2.07,-0.87,1100,1100,1100,1100,1031,1499,1520,11770,720
186432,0,0.42,-2.04,-1.10,0.062,-0.020,0.981,0.00,0.00,0.58,-0.70,0.16,1.33,0.03,-0.03,0.02,-1.17,1.12,2.76,1100,1100,1100,1100,1031,1499,1520,11770,720
186444,0,0.11,1.55,0.09,0.088,-0.017,0.981,0.00,0.00,0.57,-0.77,0.46,-2.33,0.03,-0.03,0.03,0.87,-12.06,-0.19,1100,1100,1100,1100,1031,1499,1520,11766,720
186456,0,0.29,1.75,-1.28,0.024,-0.014,1.009,0.00,0.00,0.54,-0.84,0.25,-2.58,0.03,-0.04,0.05,-0.39,0.36,3.25,1100,1100,1100,1100,1031,1499,1520,11761,720
186468,0,-0.46,3.26,-0.18,0.032,-0.025,1.013,0.00,0.00,0.54,-0.86,1.00,-4.12,0.03,-0.04,0.07,1.50,-9.58,0.51,1100,1100,1100,1100,1031,1499,1522,11782,720
186480,0,-0.84,-0.61,-1.03,0.008,-0.020,1.020,0.00,0.00,0.55,-0.85,1.39,-0.24,0.03,-0.05,0.09,0.35,9.80,2.65,1100,1100,1100,1100,1030,1498,1522,11774,720
186492,0,0.44,1.98,-0.07,0.042,-0.031,1.002,0.00,0.00,0.55,-0.85,0.11,-2.83,0.03,-0.05,0.10,-0.40,-8.44,0.28,1100,1100,1100,1100,1030,1498,1522,11799,720
186504,0,-0.46,-0.65,-0.99,0.030,-0.027,0.987,0.00,0.00,0.56,-0.84,1.02,-0.19,0.03,-0.05,0.12,-0.14,1.72,2.58,1100,1100,1100,1100,1031,1498,1522,11791,720
186516,0,1.42,1.87,-0.19,0.045,-0.013,0.984,0.00,0.00,0.53,-0.88,-0.90,-2.74,0.03,-0.06,0.13,-1.66,-5.81,0.60,1100,1100,1100,1100,1031,1498,1522,11791,802
186528,0,0.07,-3.98,-1.07,0.054,-0.030,0.957,0.00,0.00,0.53,-0.82,0.46,3.16,0.03,-0.05,0.15,-0.52,8.00,2.84,1100,1100,1100,1100,1031,1498,1522,11791,802
186540,0,1.40,0.78,-0.38,0.042,0.001,0.988,0.00,0.00,0.50,-0.83,-0.90,-1.61,0.03,-0.05,0.17,-1.54,-7.50,1.13,1100,1100,1100,1100,1031,1499,1521,11791,802
186552,0,0.64,-0.73,-1.25,0.052,-0.051,0.974,0.00,0.00,0.53,-0.83,-0.12,-0.10,0.03,-0.05,0.19,-2.24,1.74,3.33,1100,1100,1100,1100,1031,1499,1521,11778,802
186564,0,-1.73,-3.58,-0.45,0.082,0.003,0.946,0.00,0.00,0.52,-0.83,2.25,2.75,0.03,-0.05,0.20,4.08,4.10,1.33,1100,1100,1100,1100,1031,1499,1521,11799,802
186576,0,2.07,1.00,-1.42,0.044,-0.048,0.984,0.00,0.00,0.55,-0.82,-1.52,-1.82,0.03,-0.05,0.23,-5.35,-13.32,3.78,1100,1100,1100,1100,1031,1499,1521,11791,802
186588,0,-2.95,2.20,-0.58,0.051,-0.009,0.983,0.00,0.00,0.53,-0.89,3.48,-3.09,0.04,-0.05,0.25,7.00,-7.76,1.70,1100,1100,1100,1100,1031,1499,1521,11791,802
186600,0,2.19,-0.71,-0.61,0.094,-0.040,0.940,0.00,0.00,0.56,-0.98,-1.63,-0.27,0.04,-0.05,0.28,-4.30,3.65,1.80,1100,1100,1100,1100,1032,1499,1521,11791,802
186612,0,-1.75,-3.21,-0.54,0.056,-0.020,0.963,0.00,0.00,0.56,-0.98,2.31,2.23,0.04,-0.05,0.29,3.06,6.99,1.63,1100,1100,1100,1100,1032,1499,1521,11786,802
186624,0,1.53,2.11,-0.58,0.048,-0.033,1.002,0.00,0.00,0.55,-1.03,-0.99,-3.14,0.04,-0.05,0.31,-0.97,-9.77,1.76,1100,1100,1100,1100,1032,1499,1521,11799,711
186636,0,-1.46,0.63,-0.83,0.038,-0.031,0.997,0.00,0.00,0.54,-1.03,2.00,-1.66,0.04,-0.06,0.33,2.05,-1.68,2.40,1100,1100,1100,1100,1032,1499,1521,11807,711
186648,0,1.34,1.49,-0.67,0.026,-0.005,1.006,0.00,0.00,0.51,-1.08,-0.82,-2.57,0.04,-0.07,0.36,-1.40,0.26,2.04,1100,1100,1100,1100,1032,1499,1521,11807,711
186660,0,0.72,1.47,-0.43,0.050,-0.055,0.986,0.00,0.00,0.53,-1.08,-0.19,-2.55,0.04,-0.07,0.37,-3.26,-6.94,1.44,1100,1100,1100,1100,1031,1499,1520,11786,711
186672,0,-1.04,0.44,-0.14,0.029,0.004,1.029,0.00,0.00,0.49,-1.12,1.52,-1.56,0.04,-0.07,0.37,3.77,0.90,0.73,1100,1100,1100,1100,1031,1499,1520,11774,711
186684,0,2.56,-0.76,-0.34,0.070,-0.063,0.980,0.00,0.00,0.53,-1.12,-2.02,-0.36,0.04,-0.07,0.39,-5.64,-1.17,1.22,1100,1100,1100,1100,1031,1499,1520,11795,711
186696,0,-2.14,-5.50,-0.67,0.039,-0.014,0.973,0.00,0.00,0.55,-1.05,2.69,4.45,0.04,-0.07,0.40,5.07,13.32,2.09,1100,1100,1100,1100,1031,1499,1520,11782,711
186708,0,0.65,-0.55,-0.69,0.049,-0.056,0.962,0.00,0.00,0.60,-1.06,-0.05,-0.51,0.04,-0.06,0.42,-0.17,-6.39,2.14,1100,1100,1100,1100,1032,1499,1520,11791,711
186720,0,-2.84,-3.41,-1.04,0.043,-0.039,0.973,0.00,0.00,0.64,-0.98,3.48,2.43,0.04,-0.06,0.45,4.39,2.11,3.04,1100,1100,1100,1100,1032,1499,1520,11791,773
186732,0,-0.41,5.15,-0.62,-0.030,-0.028,1.075,0.00,0.00,0.66,-1.04,1.07,-6.19,0.04,-0.07,0.47,1.07,-11.46,2.02,1100,1100,1100,1100,1032,1499,1520,11778,773
186744,0,1.08,7.38,-1.35,-0.010,-0.046,1.069,0.00,0.00,0.67,-1.08,-0.41,-8.46,0.04,-0.09,0.52,-3.94,-11.88,3.89,1100,1100,1100,1100,1032,1499,1520,11774,773
186756,0,-1.13,5.99,-0.89,-0.048,0.005,1.104,0.00,0.00,0.61,-1.13,1.74,-7.12,0.04,-0.11,0.54,3.82,1.23,2.76,1100,1100,1100,1100,1032,1499,1520,11778,773
186768,0,1.63,-0.68,-0.75,0.055,-0.019,1.021,0.00,0.00,0.58,-1.13,-1.05,-0.44,0.04,-0.11,0.57,-2.34,11.26,2.45,1100,1100,1100,1100,1032,1499,1521,11791,773
186780,0,0.24,-1.98,-1.43,0.038,-0.003,1.007,0.00,0.00,0.54,-1.10,0.30,0.88,0.04,-0.12,0.59,-0.23,7.14,4.16,1100,1100,1100,1100,1032,1499,1521,11807,773
186792,0,0.98,3.86,-0.57,-0.009,-0.015,1.062,0.00,0.00,0.52,-1.11,-0.46,-4.97,0.04,-0.12,0.62,-0.91,-15.82,2.04,1100,1100,1100,1100,1032,1499,1521,11807,773
186804,0,0.49,1.47,-1.91,-0.011,-0.031,1.052,0.00,0.00,0.49,-1.03,0.00,-2.50,0.05,-0.13,0.66,-0.98,-2.65,5.43,1100,1100,1100,1100,1032,1499,1521,11795,773
186816,0,-0.26,1.54,-0.26,-0.024,0.016,1.066,0.00,0.00,0.44,-1.01,0.69,-2.55,0.05,-0.13,0.68,1.58,0.87,1.34,1100,1100,1100,1100,1032,1498,1521,11795,711
186828,0,2.11,2.79,-1.34,0.002,-0.014,1.031,0.00,0.00,0.42,-0.95,-1.69,-3.74,0.05,-0.14,0.73,-3.68,-8.29,4.09,1100,1100,1100,1100,1032,1498,1521,11803,711
186840,0,-1.10,-3.40,-0.41,0.014,-0.034,0.989,0.00,0.00,0.42,-0.86,1.52,2.53,0.05,-0.13,0.73,2.41,9.78,1.76,1100,1100,1100,1100,1031,1498,1522,11803,711
186852,0,0.92,-1.79,-0.63,0.041,-0.024,0.966,0.00,0.00,0.40,-0.84,-0.52,0.94,0.05,-0.13,0.77,-0.33,1.34,2.35,1100,1100,1100,1100,1031,1498,1522,11791,711
186864,0,-0.59,-2.94,-1.40,0.047,-0.056,0.955,0.00,0.00,0.44,-0.80,1.03,2.14,0.05,-0.13,0.78,0.46,4.80,4.28,1100,1100,1100,1100,1031,1498,1522,11778,711
186876,0,-1.24,2.47,0.08,-0.010,-0.005,1.014,0.00,0.00,0.45,-0.80,1.68,-3.27,0.05,-0.14,0.81,2.30,-6.99,0.61,1100,1100,1100,1100,1031,1498,1522,11778,711
186888,0,1.85,9.21,-1.20,-0.045,-0.050,1.048,0.00,0.00,0.51,-0.80,-1.34,-10.00,0.05,-0.15,0.84,-5.69,-26.80,3.85,1100,1100,1100,1100,1031,1498,1522,11757,711
186900,0,-2.49,1.64,-0.61,-0.064,-0.057,1.075,0.00,0.00,0.57,-0.74,3.06,-2.38,0.05,-0.16,0.86,3.52,7.49,2.39,1100,1100,1100,1100,1031,1499,1521,11741,711
186912,0,-0.23,1.09,-0.79,-0.053,-0.053,1.049,0.00,0.00,0.64,-0.69,0.87,-1.78,0.05,-0.17,0.89,0.06,11.18,2.86,1100,1100,1100,1100,1031,1499,1521,11757,711
186924,0,-2.31,-3.42,-0.98,-0.013,-0.063,1.013,0.00,0.00,0.71,-0.50,3.02,2.93,0.06,-0.16,0.90,2.59,7.27,3.34,1100,1100,1100,1100,1032,1499,1521,11757,721
186936,0,0.12,-6.49,0.18,-0.012,-0.041,1.012,0.00,0.00,0.74,-0.36,0.62,6.14,0.06,-0.16,0.90,0.79,18.46,0.45,1100,1100,1100,1100,1032,1499,1521,11761,721
186948,0,3.58,-0.10,-0.26,0.025,-0.080,0.969,0.00,0.00,0.79,-0.23,-2.79,-0.13,0.06,-0.15,0.92,-7.80,-17.01,1.57,1100,1100,1100,1100,1032,1499,1521,11753,721
186960,0,-1.23,-6.15,-0.52,0.013,-0.044,0.971,0.00,0.00,0.86,-0.07,2.09,6.08,0.06,-0.14,0.93,3.65,8.60,2.22,1100,1100,1100,1100,1031,1499,1521,11778,721
186972,0,-1.85,0.35,-0.45,-0.019,-0.085,0.984,0.00,0.00,0.95,-0.01,2.80,-0.35,0.06,-0.13,0.95,4.29,-9.26,2.08,1100,1100,1100,1100,1031,1499,1521,11782,721
186984,0,-3.35,-3.79,-1.35,0.012,-0.058,0.965,0.00,0.00,1.05,0.11,4.40,3.90,0.06,-0.13,0.97,4.36,6.29,4.35,1100,1100,1100,1100,1031,1499,1521,11807,721
186996,0,-0.91,3.75,-0.51,-0.059,-0.079,1.035,0.00,0.00,1.15,0.12,2.07,-3.62,0.06,-0.14,0.99,0.55,-4.83,2.26,1100,1100,1100,1100,1031,1499,1521,11791,721
187008,0,1.61,1.46,-0.54,-0.028,-0.087,0.993,0.00,0.00,1.25,0.22,-0.36,-1.23,0.07,-0.14,1.02,-6.48,-1.47,2.38,1100,1100,1100,1100,1032,1499,1521,11774,721
187020,0,1.67,6.78,-1.52,-0.138,-0.042,1.098,0.00,0.00,1.28,0.34,-0.39,-6.44,0.07,-0.15,1.04,-3.54,-16.49,4.85,1100,1100,1100,1100,1032,1499,1521,11795,710
187032,0,1.22,4.46,-0.34,-0.108,-0.031,1.085,0.00,0.00,1.28,0.46,0.06,-4.00,0.07,-0.16,1.06,-1.92,-4.68,1.90,1100,1100,1100,1100,1032,1499,1521,11795,710
187044,0,-1.06,1.38,-1.60,-0.106,-0.011,1.053,0.00,0.00,1.27,0.64,2.34,-0.74,0.07,-0.16,1.09,3.80,5.00,5.10,1100,1100,1100,1100,1032,1499,1521,11811,710
187056,0,1.11,-2.18,0.23,-0.076,-0.024,1.048,0.00,0.00,1.24,0.83,0.13,3.01,0.07,-0.16,1.10,-0.07,8.90,0.52,1100,1100,1100,1100,1032,1499,1521,11791,710
187068,0,0.72,-8.64,-0.73,0.011,-0.018,0.991,0.00,0.00,1.22,1.05,0.50,9.69,0.07,-0.14,1.14,-0.23,20.85,2.97,1100,1100,1100,1100,1032,1499,1521,11778,710
187080,0,-0.54,-6.30,-1.14,0.013,-0.027,0.977,0.00,0.00,1.21,1.20,1.75,7.50,0.07,-0.12,1.15,1.90,6.59,4.01,1100,1100,1100,1100,1032,1499,1521,11791,710
187092,0,-0.46,-7.99,0.19,0.101,-0.053,0.906,0.00,0.00,1.25,1.28,1.72,9.28,0.08,-0.10,1.17,1.09,7.33,0.69,1100,1100,1100,1100,1032,1499,1521,11799,710
187104,0,-0.96,-9.22,-0.32,0.106,-0.058,0.865,0.00,0.00,1.29,1.35,2.26,10.56,0.08,-0.08,1.18,0.51,4.75,1.99,1100,1100,1100,1100,1032,1499,1521,11786,710
187116,0,-1.60,-3.51,-0.06,0.117,-0.026,0.882,0.00,0.00,1.36,1.27,2.96,4.78,0.08,-0.06,1.19,1.69,-5.95,1.33,1100,1100,1100,1100,1032,1499,1521,11803,717
187128,0,1.26,1.71,-1.07,0.111,-0.061,0.914,0.00,0.00,1.43,1.14,0.17,-0.57,0.08,-0.06,1.20,-4.00,-20.45,3.87,1100,1100,1100,1100,1032,1499,1521,11795,717
187140,0,-1.40,-1.96,-0.41,0.112,-0.037,0.867,0.00,0.00,1.50,0.97,2.90,2.93,0.09,-0.05,1.20,2.03,6.93,2.22,1100,1100,1100,1100,1025,1499,1527,11816,717
187152,0,0.16,-2.31,0.26,0.144,-0.048,0.903,0.00,0.00,1.52,0.76,1.36,3.07,0.09,-0.05,1.21,2.50,8.34,0.56,1100,1100,1100,1100,1025,1499,1527,11807,717
187164,0,0.25,-1.61,-0.26,0.170,-0.066,0.873,0.00,0.00,1.55,0.50,1.31,2.11,0.09,-0.05,1.22,0.19,10.82,1.87,1100,1100,1100,1100,1025,1499,1527,11803,717
187176,0,-0.89,-4.61,-0.24,0.151,-0.039,0.857,0.00,0.00,1.57,0.33,2.45,4.95,0.09,-0.04,1.23,4.21,6.95,1.84,1100,1100,1100,1100,1025,1498,1527,11782,717
187188,0,2.02,-4.54,0.11,0.196,-0.075,0.849,0.00,0.00,1.64,0.12,-0.38,4.67,0.09,-0.03,1.22,-3.77,1.15,0.96,1100,1100,1100,1100,1032,1498,1521,11774,717
187200,0,-0.34,-3.11,-0.56,0.132,-0.028,0.904,0.00,0.00,1.66,-0.03,2.00,3.08,0.09,-0.02,1.23,1.03,0.73,2.62,1100,1100,1100,1100,1032,1498,1521,11774,717
187212,0,1.85,-0.82,-0.50,0.117,-0.022,0.952,0.00,0.00,1.65,-0.22,-0.20,0.60,0.09,-0.02,1.24,-1.63,-1.58,2.50,1100,1100,1100,1100,1032,1498,1521,11791,717
187224,0,0.15,5.48,-0.24,0.113,-0.022,0.969,0.00,0.00,1.62,-0.36,1.47,-5.84,0.10,-0.02,1.26,0.76,-23.23,1.86,1100,1100,1100,1100,1032,1498,1521,11791,710
187236,0,-0.48,4.57,-0.84,0.043,0.030,0.993,0.00,0.00,1.52,-0.56,2.00,-5.14,0.10,-0.04,1.28,3.09,-3.48,3.37,1100,1100,1100,1100,1032,1499,1521,11791,710
187248,0,1.32,7.49,-0.50,0.059,0.018,1.030,0.00,0.00,1.43,-0.72,0.11,-8.21,0.10,-0.05,1.30,-1.73,-15.23,2.54,1100,1100,1100,1100,1032,1499,1521,11778,710
187260,0,-1.24,1.11,-0.92,0.016,0.033,1.024,0.00,0.00,1.32,-0.82,2.56,-1.93,0.10,-0.06,1.32,3.36,17.02,3.62,1100,1100,1100,1100,1032,1499,1521,11786,710
187272,0,0.51,3.53,-0.70,-0.008,0.035,1.039,0.00,0.00,1.21,-0.86,0.69,-4.39,0.10,-0.07,1.34,0.16,-2.47,3.09,1100,1100,1100,1100,1032,1499,1521,11778,710
187284,0,1.22,-6.49,-0.48,0.053,0.011,0.978,0.00,0.00,1.13,-0.72,-0.09,5.77,0.10,-0.06,1.36,-2.89,17.76,2.56,1100,1100,1100,1100,1032,1499,1521,11774,710
187296,0,-1.88,-2.39,-0.83,-0.024,0.016,0.985,0.00,0.00,1.10,-0.62,2.97,1.76,0.10,-0.06,1.39,2.83,1.40,3.46,1100,1100,1100,1100,1032,1499,1521,11782,710
187308,0,-0.47,4.31,-0.88,0.002,-0.010,1.013,0.00,0.00,1.08,-0.56,1.54,-4.87,0.11,-0.06,1.42,0.74,-23.04,3.62,1100,1100,1100,1100,1038,1499,1520,11770,710
187320,0,-0.45,-0.44,-1.11,-0.008,-0.035,0.989,0.00,0.00,1.07,-0.49,1.53,-0.05,0.11,-0.06,1.45,-1.01,3.65,4.22,1100,1100,1100,1100,1038,1499,1520,11761,711
187332,0,-2.68,-3.01,-0.91,0.026,0.003,0.982,0.00,0.00,1.05,-0.46,3.73,2.55,0.11,-0.06,1.47,6.65,10.43,3.75,1100,1100,1100,1100,1038,1499,1520,11761,711
187344,0,1.78,-5.74,-0.99,0.096,-0.028,0.939,0.00,0.00,1.06,-0.43,-0.72,5.31,0.11,-0.05,1.50,-2.76,11.87,3.97,1100,1100,1100,1100,1043,1499,1521,11761,711
187356,0,-1.66,-2.69,-0.70,0.058,-0.036,0.953,0.00,0.00,1.08,-0.43,2.75,2.26,0.11,-0.05,1.52,2.80,0.64,3.27,1100,1100,1100,1100,1043,1499,1521,11761,711
187368,0,0.77,0.22,-0.62,0.072,-0.035,0.976,0.00,0.00,1.09,-0.50,0.32,-0.72,0.11,-0.05,1.54,-0.04,-3.54,3.09,1100,1100,1100,1100,1045,1499,1521,11757,711
187380,0,0.93,2.91,-0.62,0.046,-0.073,1.023,0.00,0.00,1.14,-0.54,0.21,-3.46,0.12,-0.05,1.56,-3.06,-11.18,3.11,1100,1100,1100,1100,1048,1499,1521,11745,711
187392,0,-2.52,-2.39,-0.83,0.041,-0.028,0.995,0.00,0.00,1.15,-0.57,3.67,1.82,0.12,-0.05,1.59,5.71,9.07,3.65,1100,1100,1100,1100,1048,1499,1521,11761,711
187404,0,1.20,-0.55,-0.30,0.071,-0.049,0.996,0.00,0.00,1.19,-0.58,-0.01,-0.03,0.12,-0.05,1.60,-2.49,-4.47,2.34,1100,1100,1100,1100,1057,1499,1521,11766,711
187416,0,-1.40,2.87,-0.54,0.011,-0.025,1.052,0.00,0.00,1.22,-0.59,2.62,-3.47,0.12,-0.06,1.62,1.68,-7.71,2.98,1100,1100,1100,1100,1057,1499,1521,11770,708
187428,0,2.44,6.35,-0.70,-0.002,0.002,1.079,0.00,0.00,1.17,-0.66,-1.26,-7.01,0.12,-0.07,1.64,-2.72,-12.96,3.39,1100,1100,1100,1100,1060,1499,1521,11786,708
187440,0,2.95,1.30,-0.26,0.005,-0.041,1.044,0.00,0.00,1.15,-0.64,-1.80,-1.94,0.12,-0.07,1.65,-4.91,4.79,2.30,1100,1100,1100,1100,1061,1498,1521,11786,708
187452,0,-0.37,4.16,-1.08,-0.066,0.008,1.117,0.00,0.00,1.07,-0.65,1.45,-4.81,0.12,-0.09,1.68,3.45,-1.68,4.39,1100,1100,1100,1100,1061,1498,1521,11782,708
187464,0,-0.12,7.77,-0.90,-0.022,-0.021,1.081,0.00,0.00,1.04,-0.66,1.16,-8.44,0.12,-0.10,1.70,2.27,-16.55,3.95,1100,1100,1100,1100,1067,1498,1521,11774,708
187476,0,-1.18,-1.43,-0.91,-0.015,-0.017,1.062,0.00,0.00,1.02,-0.60,2.19,0.82,0.12,-0.11,1.73,2.54,18.42,4.01,1100,1100,1100,1100,1067,1498,1521,11774,708
187488,0,-0.07,2.77,-0.68,-0.009,-0.006,1.045,0.00,0.00,0.99,-0.64,1.06,-3.41,0.12,-0.12,1.75,0.43,-0.26,3.46,1100,1100,1100,1100,1075,1498,1521,11799,708
187500,0,2.34,-4.59,-0.83,0.103,-0.021,0.968,0.00,0.00,0.99,-0.59,-1.35,3.99,0.13,-0.11,1.78,-5.00,12.53,3.85,1100,1100,1100,1100,1076,1498,1522,11778,708
187512,0,-2.61,-1.64,-1.14,0.030,-0.050,0.978,0.00,0.00,1.03,-0.60,3.64,1.04,0.13,-0.11,1.81,4.80,-0.98,4.64,1100,1100,1100,1100,1076,1498,1522,11774,708
187524,0,-1.32,-3.55,-1.04,0.049,-0.029,0.956,0.00,0.00,1.05,-0.57,2.36,2.98,0.13,-0.10,1.84,2.99,6.46,4.43,1100,1100,1100,1100,1080,1498,1522,11774,744
187536,0,1.95,3.68,-1.32,-0.039,-0.049,1.043,0.00,0.00,1.04,-0.48,-0.91,-4.15,0.13,-0.10,1.87,-4.64,-19.12,5.18,1100,1100,1100,1100,1080,1498,1522,11766,744
187548,0,0.16,-3.30,0.01,0.019,0.012,0.996,0.00,0.00,1.01,-0.42,0.85,2.88,0.13,-0.10,1.89,0.31,10.45,1.85,1100,1100,1100,1100,1094,1498,1522,11757,744
187560,0,0.87,-3.80,-1.05,0.034,-0.026,0.957,0.00,0.00,1.03,-0.30,0.16,3.50,0.13,-0.09,1.92,-0.62,4.12,4.53,1100,1100,1100,1100,1102,1499,1520,11745,744
187572,0,-1.88,-4.44,-0.71,0.021,-0.050,0.962,0.00,0.00,1.08,-0.18,2.96,4.27,0.14,-0.08,1.93,2.48,0.93,3.70,1100,1100,1100,1100,1102,1499,1520,11761,744
187584,0,-2.92,-0.91,-0.75,0.022,-0.059,0.953,0.00,0.00,1.17,-0.13,4.09,0.78,0.14,-0.08,1.96,5.39,-4.54,3.84,1100,1100,1100,1100,1102,1499,1520,11761,744
187596,0,0.24,-4.37,-0.58,0.053,-0.105,0.911,0.00,0.00,1.29,-0.08,1.05,4.29,0.14,-0.07,1.97,-3.13,6.93,3.43,1100,1100,1100,1100,1102,1499,1520,11774,744
187608,0,-2.36,0.07,-0.34,0.029,-0.049,0.962,0.00,0.00,1.37,-0.07,3.73,-0.14,0.14,-0.07,2.00,3.54,-5.56,2.84,1100,1100,1100,1100,1103,1499,1521,11782,744
187620,0,0.44,1.76,-1.60,0.031,-0.064,0.978,0.00,0.00,1.46,-0.06,1.02,-1.83,0.15,-0.07,2.03,-0.66,-14.47,6.04,1100,1100,1100,1100,1116,1499,1521,11786,708
187632,0,1.02,-0.05,-1.99,0.020,-0.054,0.979,0.00,0.00,1.51,-0.09,0.49,-0.04,0.15,-0.08,2.08,-2.80,8.77,7.06,1100,1100,1100,1100,1116,1499,1521,11761,708
187644,0,1.59,7.80,-1.87,-0.060,-0.047,1.068,0.00,0.00,1.53,-0.09,-0.05,-7.89,0.15,-0.08,2.12,-1.36,-22.06,6.80,1100,1100,1100,1100,1117,1499,1521,11761,708
187656,0,1.16,0.48,-1.36,-0.001,-0.066,1.010,0.00,0.00,1.56,-0.06,0.40,-0.54,0.15,-0.09,2.17,-0.47,11.00,5.57,1100,1100,1100,1100,1117,1499,1521,11761,708
187668,0,-1.27,-3.08,-1.37,-0.023,-0.026,1.021,0.00,0.00,1.55,0.02,2.83,3.11,0.15,-0.09,2.22,4.60,14.36,5.64,1100,1100,1100,1100,1121,1499,1521,11782,708
187680,0,-0.07,-3.06,-1.59,0.049,-0.027,0.964,0.00,0.00,1.55,0.11,1.62,3.17,0.15,-0.08,2.27,2.22,-0.19,6.23,1100,1100,1100,1100,1129,1499,1521,11774,708
187692,0,-0.93,-7.12,-1.80,0.059,-0.037,0.964,0.00,0.00,1.57,0.24,2.50,7.36,0.15,-0.06,2.31,1.85,8.91,6.80,1100,1100,1100,1100,1129,1499,1521,11774,708
187704,0,0.06,-4.44,-0.32,0.096,-0.023,0.943,0.00,0.00,1.57,0.19,1.51,4.63,0.16,-0.05,2.34,0.58,3.60,3.13,1100,1100,1100,1100,1130,1499,1521,11778,708
187716,0,2.13,-2.37,-0.73,0.154,-0.026,0.904,0.00,0.00,1.55,0.11,-0.58,2.48,0.16,-0.05,2.37,-3.05,-3.82,4.19,1100,1100,1100,1100,1130,1499,1521,11761,746
187728,0,-0.06,-4.85,-0.99,0.124,-0.041,0.901,0.00,0.00,1.55,-0.01,1.61,4.84,0.16,-0.03,2.39,1.23,3.54,4.88,1100,1100,1100,1100,1134,1499,1521,11774,746
187740,0,-1.03,-4.22,-0.96,0.149,-0.018,0.870,0.00,0.00,1.52,-0.18,2.55,4.04,0.16,-0.03,2.42,3.64,8.20,4.81,1100,1100,1100,1100,1141,1499,1521,11770,746
187752,0,0.86,0.06,-2.33,0.093,-0.026,0.944,0.00,0.00,1.53,-0.27,0.67,-0.33,0.16,-0.03,2.46,-2.38,-9.41,8.28,1100,1100,1100,1100,1141,1499,1521,11791,746
187764,0,-2.02,-0.11,-0.36,0.079,-0.011,0.953,0.00,0.00,1.54,-0.37,3.56,-0.26,0.17,-0.03,2.48,3.47,-2.49,3.39,1100,1100,1100,1100,1144,1499,1521,11774,746
187776,0,1.49,-4.71,-0.56,0.073,-0.038,0.935,0.00,0.00,1.57,-0.34,0.09,4.37,0.17,-0.02,2.52,-3.16,5.30,3.91,1100,1100,1100,1100,1144,1499,1521,11774,746
187788,0,-1.82,-1.75,-0.98,0.002,-0.054,0.996,0.00,0.00,1.62,-0.31,3.44,1.44,0.17,-0.02,2.54,2.73,3.61,4.99,1100,1100,1100,1100,1148,1499,1521,11774,746
187800,0,-1.43,-1.39,-0.36,-0.012,-0.044,1.010,0.00,0.00,1.66,-0.21,3.08,1.18,0.17,-0.01,2.56,4.26,-0.98,3.45,1100,1100,1100,1100,1148,1498,1521,11774,746
187812,0,-0.45,-0.70,-0.77,-0.002,-0.097,0.976,0.00,0.00,1.73,-0.13,2.18,0.57,0.18,-0.01,2.57,0.59,1.24,4.50,1100,1100,1100,1100,1148,1498,1521,11761,746
187824,0,-1.05,4.85,-0.60,0.007,-0.029,1.005,0.00,0.00,1.75,-0.13,2.80,-4.98,0.18,-0.02,2.58,1.12,-19.05,4.09,1100,1100,1100,1100,1153,1498,1522,11774,710
187836,0,0.89,-0.73,0.19,0.059,-0.006,0.969,0.00,0.00,1.75,-0.18,0.85,0.55,0.18,-0.02,2.59,-1.13,8.14,2.11,1100,1100,1100,1100,1153,1498,1522,11770,710
187848,0,-1.29,2.93,-0.51,0.033,-0.006,1.006,0.00,0.00,1.73,-0.24,3.01,-3.17,0.18,-0.02,2.60,2.06,-6.67,3.88,1100,1100,1100,1100,1159,1498,1522,11745,710
187860,0,0.38,5.37,-0.34,-0.049,0.008,1.090,0.00,0.00,1.68,-0.26,1.30,-5.63,0.18,-0.03,2.60,0.03,-11.33,3.46,1100,1100,1100,1100,1161,1498,1522,11757,710
187872,0,1.99,2.84,0.08,-0.040,-0.033,1.055,0.00,0.00,1.67,-0.22,-0.32,-3.07,0.19,-0.04,2.62,-4.66,2.39,2.41,1100,1100,1100,1100,1161,1498,1522,11720,710
187884,0,-1.38,0.69,-1.25,-0.096,-0.002,1.103,0.00,0.00,1.62,-0.08,3.01,-0.77,0.19,-0.05,2.63,3.81,6.74,5.75,1100,1100,1100,1100,1163,1498,1521,11724,710
187896,0,0.26,-2.23,0.41,-0.054,-0.019,1.050,0.00,0.00,1.59,0.07,1.33,2.30,0.19,-0.05,2.64,1.71,14.07,1.62,1100,1100,1100,1100,1163,1499,1521,11741,710
187908,0,1.17,1.34,-0.74,-0.029,-0.038,1.041,0.00,0.00,1.54,0.26,0.37,-1.08,0.19,-0.04,2.67,-0.25,-17.12,4.53,1100,1100,1100,1100,1163,1499,1521,11732,710
187920,0,0.04,1.69,-2.24,0.044,-0.011,1.024,0.00,0.00,1.50,0.20,1.46,-1.49,0.19,-0.05,2.70,1.97,-1.16,8.30,1158,1164,1166,1164,1180,1499,1521,11691,711
187932,0,0.38,4.19,-0.55,0.038,-0.003,1.023,0.00,0.00,1.48,0.15,1.10,-4.04,0.19,-0.04,2.72,0.28,-21.90,4.10,1158,1164,1166,1164,1180,1499,1521,11691,711
187944,0,0.90,4.63,-1.43,0.047,-0.026,0.996,0.00,0.00,1.46,0.03,0.56,-4.60,0.20,-0.05,2.78,-1.85,-6.58,6.36,1158,1164,1166,1164,1185,1499,1521,11736,711
187956,0,-0.80,-9.57,-1.85,0.084,-0.025,0.950,0.00,0.00,1.48,0.05,2.28,9.62,0.20,-0.04,2.81,-0.18,32.25,7.44,1158,1164,1166,1164,1185,1499,1521,11703,711
187968,0,0.64,5.14,-0.69,0.005,0.014,1.065,0.00,0.00,1.47,0.02,0.83,-5.12,0.20,-0.04,2.84,-2.19,-27.20,4.57,1158,1164,1166,1164,1187,1499,1521,11662,711
187980,0,1.17,4.39,-1.37,0.045,-0.013,1.004,0.00,0.00,1.47,-0.08,0.29,-4.46,0.21,-0.06,2.91,-2.91,0.77,6.33,1158,1164,1166,1164,1190,1499,1520,11657,711
187992,0,-2.88,-10.12,-2.48,0.110,-0.057,0.924,0.00,0.00,1.50,-0.05,4.38,10.07,0.21,-0.05,2.96,5.28,35.32,9.15,1158,1164,1166,1164,1190,1499,1520,11632,711
188004,0,-4.05,-2.46,-2.40,0.067,-0.008,1.013,0.00,0.00,1.48,-0.07,5.53,2.38,0.21,-0.03,3.00,9.72,-9.47,9.00,1158,1164,1166,1164,1190,1499,1520,11637,711
188016,0,2.60,6.65,-1.51,0.030,0.006,1.030,0.00,0.00,1.39,-0.15,-1.20,-6.81,0.21,-0.04,3.06,-2.69,-32.10,6.84,1154,1230,1162,1214,1190,1499,1520,11620,711
188028,0,5.49,-0.81,-2.37,0.089,0.025,0.966,0.00,0.00,1.30,-0.27,-4.19,0.54,0.21,-0.05,3.16,-10.70,17.61,9.08,1154,1230,1162,1214,1199,1499,1521,11603,711
188040,0,-2.45,2.20,-3.86,0.052,0.021,1.055,0.00,0.00,1.25,-0.40,3.70,-2.60,0.21,-0.06,3.25,4.16,12.57,12.89,1154,1230,1162,1214,1199,1499,1521,11620,711
188052,0,-6.19,8.42,-3.83,0.020,0.012,1.107,0.00,0.00,1.17,-0.50,7.36,-8.92,0.21,-0.07,3.33,15.03,-30.00,12.90,1154,1230,1162,1214,1199,1499,1521,11649,711
188064,0,3.90,-3.13,-1.58,0.084,0.011,0.975,0.00,0.00,1.09,-0.57,-2.81,2.56,0.21,-0.06,3.40,-6.67,9.00,7.34,1154,1230,1162,1214,1207,1499,1521,11632,711
188076,0,2.42,0.07,-1.91,0.083,-0.022,0.957,0.00,0.00,1.15,-0.70,-1.27,-0.77,0.22,-0.08,3.49,-8.66,14.13,8.28,1154,1230,1162,1214,1207,1499,1521,11632,711
188088,0,-3.92,11.74,-3.70,-0.083,-0.030,1.105,0.00,0.00,1.11,-0.75,5.02,-12.49,0.22,-0.10,3.59,7.35,-23.80,12.84,1154,1230,1162,1214,1214,1499,1520,11566,711
188100,0,-0.40,2.33,-3.43,-0.105,0.024,1.138,0.00,0.00,1.00,-0.66,1.40,-2.99,0.22,-0.10,3.66,3.61,-1.29,12.25,1154,1230,1162,1214,1215,1499,1520,11582,711
188112,0,-1.51,-4.84,-1.44,-0.022,0.038,1.008,0.00,0.00,0.99,-0.56,2.50,4.28,0.22,-0.11,3.73,5.65,35.29,7.33,1154,1230,1162,1214,1215,1499,1520,11562,711
188124,0,8.49,9.64,-2.82,-0.058,-0.092,1.020,0.00,0.00,0.94,-0.46,-7.55,-10.10,0.22,-0.12,3.81,-13.27,-35.16,10.86,1229,1193,1255,1183,1220,1499,1520,11591,711
188136,0,8.65,2.80,-1.30,0.049,-0.138,0.994,0.00,0.00,1.06,-0.34,-7.59,-3.14,0.22,-0.11,3.86,-21.16,-28.14,7.12,1229,1193,1255,1183,1220,1499,1520,11591,711
188148,0,-8.84,-12.83,-1.48,0.138,-0.120,0.906,0.00,0.00,1.20,-0.32,10.05,12.51,0.23,-0.10,3.94,14.77,42.23,7.64,1229,1193,1255,1183,1220,1499,1520,11557,711
188160,0,-8.88,0.64,-2.87,0.043,-0.045,1.024,0.00,0.00,1.16,-0.44,10.04,-1.08,0.22,-0.12,3.99,21.08,11.97,11.16,1229,1193,1255,1183,1221,1498,1521,11541,711
188172,0,-9.26,-3.48,-1.85,-0.038,0.004,1.066,0.00,0.00,1.17,-0.35,10.43,3.13,0.22,-0.10,4.02,24.72,-1.51,8.65,1229,1193,1255,1183,1221,1498,1521,11545,711
188184,0,4.77,-3.95,-0.73,0.078,-0.010,0.909,0.00,0.00,1.10,-0.58,-3.66,3.37,0.22,-0.13,4.06,-5.46,53.71,5.89,1229,1193,1255,1183,1225,1498,1520,11566,711
188196,0,11.76,17.65,-0.07,-0.091,0.005,1.116,0.00,0.00,1.14,-0.38,-10.62,-18.03,0.23,-0.11,4.06,-29.41,-105.04,4.24,1229,1193,1255,1183,1225,1498,1520,11570,711
188208,0,-1.46,-4.43,1.23,0.132,-0.092,0.893,0.00,0.00,1.24,-0.62,2.70,3.81,0.23,-0.14,4.08,-2.05,51.80,1.01,1229,1193,1255,1183,1229,1498,1521,11591,711
188220,0,-6.34,-8.45,0.37,0.040,-0.030,1.039,0.00,0.00,1.31,-0.36,7.64,8.10,0.24,-0.10,4.06,7.45,-9.12,3.14,1258,1168,1298,1192,1230,1499,1521,11582,711
188232,0,-7.90,5.09,-1.00,0.001,-0.029,1.075,0.00,0.00,1.26,-0.60,9.16,-5.69,0.24,-0.14,4.09,17.06,14.31,6.59,1258,1168,1298,1192,1230,1499,1521,11591,711
188244,0,-6.85,-19.93,0.39,0.066,-0.031,0.915,0.00,0.00,1.32,-0.37,8.17,19.56,0.24,-0.10,4.06,15.33,47.73,3.08,1258,1168,1298,1192,1236,1499,1521,11566,711
188256,0,-1.65,16.10,-0.96,-0.117,-0.000,1.142,0.00,0.00,1.27,-0.39,2.92,-16.49,0.24,-0.11,4.05,7.91,-62.91,6.47,1258,1168,1298,1192,1236,1499,1521,11578,711
188268,0,0.26,-20.09,1.27,0.167,-0.049,0.839,0.00,0.00,1.32,-0.39,1.05,19.69,0.24,-0.11,4.03,0.96,87.27,0.85,1258,1168,1298,1192,1236,1499,1521,11566,711
188280,0,8.24,-6.07,1.47,0.017,0.016,0.964,0.00,0.00,1.34,-0.06,-6.89,6.01,0.25,-0.06,3.98,-20.02,-37.24,0.31,1258,1168,1298,1192,1239,1499,1521,11553,711
188292,0,10.03,11.39,0.35,-0.002,-0.031,1.066,0.00,0.00,1.24,-0.32,-8.78,-11.71,0.25,-0.11,4.00,-19.35,-12.52,3.12,1258,1168,1298,1192,1239,1499,1521,11562,711
188304,0,-0.86,-18.86,1.32,0.102,-0.073,0.831,0.00,0.00,1.44,-0.20,2.30,18.66,0.25,-0.07,3.99,-4.67,51.58,0.68,1258,1168,1298,1192,1247,1499,1521,11557,711
188316,0,-0.03,7.78,-1.16,-0.081,0.014,1.109,0.00,0.00,1.41,-0.19,1.44,-7.97,0.26,-0.07,4.01,-3.28,-49.75,6.91,1195,1305,1201,1287,1247,1499,1521,11549,711
188328,0,-8.78,14.33,-2.48,-0.057,-0.039,1.138,0.00,0.00,1.33,-0.48,10.11,-14.81,0.25,-0.11,4.07,21.72,-8.31,10.26,1195,1305,1201,1287,1250,1499,1521,11520,711
188340,0,-12.64,-1.05,-0.95,0.043,-0.054,0.943,0.00,0.00,1.48,-0.53,14.11,0.52,0.26,-0.12,4.10,23.17,23.92,6.47,1195,1305,1201,1287,1252,1499,1523,11520,711
188352,0,-2.46,11.50,-1.56,-0.002,0.030,1.008,0.00,0.00,1.45,-0.51,3.91,-12.02,0.26,-0.12,4.11,4.79,-49.18,8.00,1195,1305,1201,1287,1252,1499,1523,11516,711
188364,0,5.40,9.97,-2.75,0.086,0.019,1.011,0.00,0.00,1.22,-0.69,-4.18,-10.66,0.26,-0.13,4.15,-0.76,-25.71,11.02,1195,1305,1201,1287,1256,1499,1523,11516,711
188376,0,4.19,0.86,-2.85,0.112,-0.062,0.948,0.00,0.00,1.22,-0.71,-2.97,-1.57,0.26,-0.12,4.21,-1.91,-21.35,11.34,1195,1305,1201,1287,1256,1499,1523,11516,711
188388,0,5.98,16.91,-2.95,-0.036,-0.053,1.048,0.00,0.00,1.30,-0.74,-4.68,-17.65,0.26,-0.13,4.28,-13.09,-68.90,11.65,1195,1305,1201,1287,1260,1499,1521,11532,711
188400,0,7.10,15.73,-2.18,0.027,-0.049,1.042,0.00,0.00,1.28,-0.87,-5.81,-16.60,0.26,-0.16,4.36,-15.48,-26.25,9.80,1195,1305,1201,1287,1263,1499,1521,11532,711
188412,0,5.50,-14.33,-0.77,0.212,-0.086,0.930,0.00,0.00,1.27,-0.79,-4.24,13.54,0.26,-0.15,4.41,-11.08,54.97,6.33,1195,1305,1201,1287,1263,1499,1521,11524,711
188424,0,1.61,-30.75,-0.84,0.227,-0.088,0.896,0.00,0.00,1.31,-0.58,-0.30,30.18,0.26,-0.11,4.46,-4.22,73.13,6.57,1239,1303,1243,1267,1263,1499,1521,11499,710
188436,0,-0.37,-13.88,-1.76,-0.005,-0.048,1.067,0.00,0.00,1.34,-0.53,1.72,13.36,0.27,-0.12,4.55,-2.57,41.63,8.95,1239,1303,1243,1267,1263,1499,1521,11528,710
188448,0,-0.12,-7.32,-2.06,-0.151,-0.023,1.136,0.00,0.00,1.32,-0.56,1.44,6.76,0.27,-0.14,4.64,-4.05,62.02,9.79,1239,1303,1243,1267,1264,1499,1521,11516,710
188460,0,-0.58,-8.48,-1.42,-0.174,-0.043,1.113,0.00,0.00,1.30,-0.42,1.89,8.07,0.27,-0.15,4.70,-3.87,56.46,8.25,1239,1303,1243,1267,1264,1499,1521,11508,710
188472,0,-5.76,-8.91,-1.09,-0.070,-0.081,1.030,0.00,0.00,1.34,-0.35,7.10,8.56,0.27,-0.16,4.74,7.25,53.58,7.47,1239,1303,1243,1267,1264,1499,1521,11508,710
188484,0,-10.30,-7.53,-2.91,0.021,-0.094,0.982,0.00,0.00,1.42,-0.16,11.72,7.37,0.28,-0.13,4.80,18.84,-4.16,12.08,1239,1303,1243,1267,1274,1499,1521,11495,710
188496,0,-10.72,0.08,-3.77,0.018,-0.125,0.976,0.00,0.00,1.64,-0.12,12.36,-0.20,0.29,-0.11,4.92,13.18,-22.25,14.34,1239,1303,1243,1267,1274,1498,1521,11453,710
188508,0,-13.22,7.96,-4.89,0.030,-0.129,0.974,0.00,0.00,1.80,-0.19,15.03,-8.15,0.29,-0.12,5.05,22.90,-36.40,17.26,1239,1303,1243,1267,1274,1498,1521,11466,710
188520,0,-17.04,15.94,-5.93,0.035,-0.085,0.989,0.00,0.00,1.93,-0.31,18.97,-16.25,0.30,-0.12,5.19,33.75,-61.57,20.01,1279,1301,1281,1235,1274,1498,1521,11508,710
188532,0,-15.42,27.07,-6.96,-0.035,-0.041,1.102,0.00,0.00,1.94,-0.51,17.36,-27.59,0.30,-0.15,5.36,33.46,-91.42,22.75,1279,1301,1281,1235,1274,1498,1521,11508,710
188544,0,-17.02,25.04,-7.00,0.017,-0.038,1.027,0.00,0.00,1.97,-0.88,18.98,-25.92,0.31,-0.19,5.53,36.33,-52.76,23.02,1279,1301,1281,1235,1275,1498,1521,11553,710
188556,0,-13.09,16.29,-6.52,0.069,0.016,1.013,0.00,0.00,1.98,-1.14,15.07,-17.43,0.31,-0.21,5.69,27.18,-30.21,21.99,1279,1301,1281,1235,1275,1499,1521,11541,710
188568,0,-13.35,16.09,-7.12,0.015,0.019,1.027,0.00,0.00,2.03,-1.30,15.38,-17.39,0.32,-0.22,5.85,25.99,-49.23,23.65,1279,1301,1281,1235,1277,1499,1521,11512,710
188580,0,-8.20,13.94,-7.15,0.031,0.057,1.005,0.00,0.00,2.01,-1.48,10.21,-15.42,0.32,-0.25,6.01,16.50,-29.18,23.89,1279,1301,1281,1235,1282,1499,1520,11553,710
188592,0,-4.23,12.20,-7.08,0.049,0.094,0.970,0.00,0.00,1.96,-1.50,6.19,-13.70,0.33,-0.25,6.17,9.36,-46.04,23.87,1279,1301,1281,1235,1282,1499,1520,11512,710
188604,0,-1.49,1.31,-6.70,0.129,0.116,0.878,0.00,0.00,1.84,-1.45,3.33,-2.77,0.33,-0.24,6.33,6.15,-25.72,23.08,1279,1301,1281,1235,1283,1499,1520,11520,710
188616,0,2.20,-6.22,-6.41,0.222,0.113,0.803,0.00,0.00,1.70,-1.36,-0.49,4.86,0.33,-0.21,6.50,0.57,-23.13,22.53,1238,1328,1282,1284,1283,1499,1520,11499,708
188628,0,2.80,-12.91,-6.39,0.235,0.097,0.821,0.00,0.00,1.58,-1.21,-1.22,11.71,0.33,-0.17,6.66,2.34,-10.47,22.63,1238,1328,1282,1284,1283,1499,1520,11428,708
188640,0,10.57,-8.77,-6.07,0.218,0.087,0.822,0.00,0.00,1.51,-1.10,-9.06,7.67,0.32,-0.14,6.82,-12.91,-27.32,21.99,1238,1328,1282,1284,1284,1499,1520,11449,708
188652,0,12.81,-13.65,-5.06,0.189,0.077,0.812,0.00,0.00,1.46,-1.01,-11.34,12.64,0.32,-0.12,6.97,-17.25,8.89,19.61,1238,1328,1282,1284,1284,1499,1520,11433,708
188664,0,13.57,-5.61,-4.80,0.128,0.076,0.813,0.00,0.00,1.42,-0.97,-12.16,4.65,0.32,-0.11,7.11,-19.32,1.32,19.11,1238,1328,1282,1284,1284,1499,1521,11458,708
188676,0,12.76,3.58,-5.03,0.038,0.039,0.922,0.00,0.00,1.36,-0.89,-11.40,-4.46,0.32,-0.11,7.24,-16.65,-23.10,19.82,1238,1328,1282,1284,1284,1499,1521,11441,708
188688,0,14.45,7.09,-4.66,-0.045,0.042,0.993,0.00,0.00,1.25,-0.83,-13.20,-7.92,0.31,-0.13,7.36,-18.95,-18.72,19.01,1238,1328,1282,1284,1286,1499,1520,11424,708
188700,0,16.52,15.84,-4.41,-0.069,0.044,1.076,0.00,0.00,1.09,-0.97,-15.43,-16.81,0.30,-0.17,7.49,-21.69,-19.01,18.52,1238,1328,1282,1284,1288,1499,1520,11445,708
188712,0,18.30,16.72,-4.22,-0.038,0.039,1.104,0.00,0.00,0.87,-1.09,-17.43,-17.81,0.30,-0.21,7.62,-22.94,-20.08,18.16,1238,1328,1282,1284,1288,1499,1520,11445,708
188724,0,14.47,14.78,-3.87,0.002,0.025,1.088,0.00,0.00,0.66,-1.26,-13.81,-16.04,0.29,-0.25,7.75,-12.89,-12.79,17.43,1216,1324,1292,1320,1289,1499,1520,11458,708
188736,0,13.72,16.49,-4.62,-0.028,0.009,1.142,0.00,0.00,0.47,-1.38,-13.25,-17.88,0.28,-0.28,7.88,-11.75,-27.01,19.44,1216,1324,1292,1320,1289,1499,1520,11458,708
188748,0,18.26,10.83,-3.85,0.069,0.030,1.109,0.00,0.00,0.32,-1.58,-17.93,-12.40,0.27,-0.32,8.01,-25.47,0.30,17.63,1216,1324,1292,1320,1289,1499,1520,11449,708
188760,0,17.64,-3.79,-2.83,0.216,-0.019,0.991,0.00,0.00,0.26,-1.64,-17.38,2.15,0.27,-0.32,8.12,-29.13,20.46,15.19,1216,1324,1292,1320,1293,1499,1520,11478,708
188772,0,22.68,-17.49,-2.98,0.319,-0.054,0.916,0.00,0.00,0.18,-1.62,-22.50,15.88,0.26,-0.29,8.23,-37.98,28.94,15.69,1216,1324,1292,1320,1293,1499,1520,11466,708
188784,0,25.34,-18.63,-3.39,0.400,-0.044,0.903,0.00,0.00,0.12,-1.75,-25.22,16.88,0.25,-0.26,8.35,-43.43,18.96,16.82,1216,1324,1292,1320,1296,1499,1521,11491,708
188796,0,29.22,-13.33,-3.50,0.495,-0.026,0.866,0.00,0.00,-0.05,-2.13,-29.27,11.19,0.24,-0.24,8.49,-48.04,15.57,17.23,1216,1324,1292,1320,1296,1499,1521,11503,708
188808,0,33.52,-38.07,-3.74,0.730,-0.021,0.716,0.00,0.00,-0.23,-2.52,-33.76,35.55,0.23,-0.18,8.62,-56.53,67.78,17.95,1216,1324,1292,1320,1297,1499,1521,11483,708
188820,0,33.25,-42.24,-3.55,0.796,-0.053,0.613,0.00,0.00,-0.40,-3.07,-33.65,39.17,0.22,-0.11,8.76,-53.55,59.18,17.65,1278,1278,1354,1278,1296,1499,1522,11462,712
188832,0,34.92,-29.80,-4.41,0.745,-0.088,0.627,0.00,0.00,-0.48,-3.79,-35.40,26.00,0.20,-0.05,8.92,-57.20,17.14,19.95,1278,1278,1354,1278,1296,1499,1522,11466,712
188844,0,36.08,-24.62,-4.43,0.753,-0.108,0.577,0.00,0.00,-0.45,-4.75,-36.53,19.87,0.19,-0.02,9.09,-59.77,28.69,20.17,1278,1278,1354,1278,1298,1498,1522,11449,712
188856,0,32.94,-16.11,-4.89,0.744,-0.110,0.558,0.00,0.00,-0.42,-5.88,-33.37,10.22,0.18,-0.02,9.26,-52.03,24.46,21.47,1278,1278,1354,1278,1298,1498,1522,11445,712
188868,0,27.93,-4.77,-5.81,0.707,-0.098,0.597,0.00,0.00,-0.36,-7.07,-28.29,-2.29,0.17,-0.02,9.42,-41.50,-16.31,23.96,1278,1278,1354,1278,1298,1498,1522,11445,712
188880,0,24.32,7.35,-6.42,0.651,-0.051,0.681,0.00,0.00,-0.30,-8.33,-24.62,-15.68,0.16,-0.04,9.60,-35.81,-37.31,25.66,1278,1278,1354,1278,1299,1499,1520,11437,712
188892,0,13.22,7.42,-7.10,0.643,-0.018,0.720,0.00,0.00,-0.23,-9.61,-13.44,-17.03,0.15,-0.08,9.80,-16.95,-15.09,27.54,1278,1278,1354,1278,1299,1499,1520,11395,712
188904,0,7.85,21.47,-7.78,0.427,0.021,0.841,0.00,0.00,-0.16,-10.71,-8.00,-32.18,0.15,-0.15,10.01,-10.84,-45.96,29.47,1278,1278,1354,1278,1300,1499,1520,11370,712
188916,0,2.87,25.84,-8.71,0.258,0.027,0.949,0.00,0.00,-0.05,-11.63,-2.92,-37.47,0.15,-0.24,10.24,-6.76,-21.62,32.02,1253,1359,1305,1283,1300,1499,1520,11395,711
188928,0,0.01,26.86,-9.11,0.117,0.005,0.995,0.00,0.00,0.10,-12.20,0.10,-39.06,0.16,-0.33,10.47,-4.55,-35.26,33.24,1253,1359,1305,1283,1301,1499,1520,11358,711
188940,0,2.31,11.57,-8.92,0.136,0.009,0.883,0.00,0.00,0.29,-12.58,-2.03,-24.15,0.16,-0.39,10.69,-10.45,12.07,33.00,1253,1359,1305,1283,1301,1499,1521,11358,711
188952,0,1.98,20.93,-9.92,0.045,-0.006,0.944,0.00,0.00,0.51,-12.85,-1.46,-33.77,0.17,-0.45,10.92,-10.06,-48.41,35.70,1253,1359,1305,1283,1301,1499,1521,11374,711
188964,0,3.41,25.29,-10.36,-0.066,0.018,1.024,0.00,0.00,0.66,-13.05,-2.75,-38.33,0.17,-0.52,11.17,-8.78,-63.34,37.06,1253,1359,1305,1283,1301,1499,1521,11383,711
188976,0,-0.12,14.24,-9.75,-0.034,0.009,1.094,0.00,0.00,0.77,-13.22,0.89,-27.46,0.18,-0.60,11.45,-0.77,9.26,35.83,1253,1359,1305,1283,1301,1499,1521,11391,711
188988,0,5.95,-1.97,-9.63,-0.000,0.044,1.022,0.00,0.00,0.69,-12.97,-5.26,-11.01,0.17,-0.63,11.72,-5.52,19.32,35.79,1253,1359,1305,1283,1301,1499,1521,11383,711
189000,0,7.22,0.78,-9.06,0.011,0.060,1.133,0.00,0.00,0.77,-12.73,-6.45,-13.51,0.17,-0.67,12.01,-13.91,-7.39,34.66,1253,1359,1305,1283,1302,1499,1521,11354,711
189012,0,8.06,-6.00,-8.92,0.061,0.078,1.031,0.00,0.00,0.81,-12.48,-7.26,-6.48,0.18,-0.69,12.31,-15.48,9.61,34.62,1253,1359,1305,1283,1302,1499,1521,11391,711
189024,0,13.16,-2.54,-9.14,0.047,0.126,1.058,0.00,0.00,0.79,-12.37,-12.37,-9.83,0.18,-0.73,12.63,-24.21,14.62,35.48,1153,1365,1319,1371,1302,1499,1521,11412,711
189036,0,21.12,14.14,-10.31,-0.078,0.187,1.237,0.00,0.00,0.64,-12.31,-20.48,-26.45,0.17,-0.79,12.97,-34.37,-40.43,38.74,1153,1365,1319,1371,1302,1499,1521,11428,711
189048,0,23.10,7.67,-10.77,-0.100,0.235,1.256,0.00,0.00,0.41,-12.26,-22.69,-19.93,0.17,-0.84,13.33,-33.68,3.17,40.25,1153,1365,1319,1371,1302,1499,1521,11412,711
189060,0,23.69,7.88,-10.40,-0.280,0.269,1.355,0.00,0.00,0.07,-11.93,-23.62,-19.81,0.16,-0.89,13.68,-27.66,-9.49,39.68,1153,1365,1319,1371,1302,1499,1521,11391,711
189072,0,21.97,-18.69,-10.04,-0.235,0.278,1.287,0.00,0.00,-0.23,-11.12,-22.20,7.57,0.14,-0.89,14.01,-22.74,46.99,39.11,1153,1365,1319,1371,1302,1499,1521,11349,711
189084,0,20.36,-31.02,-10.33,-0.167,0.246,1.186,0.00,0.00,-0.48,-10.05,-20.84,20.96,0.13,-0.86,14.33,-20.97,44.44,40.14,1153,1365,1319,1371,1302,1499,1521,11358,711
189096,0,20.82,-41.91,-10.61,-0.042,0.223,1.106,0.00,0.00,-0.72,-8.87,-21.54,33.04,0.12,-0.79,14.66,-23.37,46.33,41.19,1153,1365,1319,1371,1302,1499,1521,11374,711
189108,0,21.24,-39.40,-11.13,-0.017,0.184,1.107,0.00,0.00,-0.96,-7.79,-22.20,31.61,0.11,-0.73,15.01,-24.20,30.77,42.85,1153,1365,1319,1371,1302,1499,1521,11374,711
189120,0,23.04,-28.10,-11.16,-0.046,0.187,1.221,0.00,0.00,-1.27,-6.79,-24.31,21.32,0.10,-0.67,15.37,-25.07,-13.34,43.27,1291,1361,1331,1225,1303,1498,1522,11362,711
189132,0,23.84,-33.33,-9.57,-0.023,0.189,1.148,0.00,0.00,-1.64,-5.83,-25.47,27.51,0.08,-0.61,15.69,-25.43,13.68,39.62,1291,1361,1331,1225,1303,1498,1522,11370,711
189144,0,24.57,-15.50,-9.76,-0.156,0.204,1.262,0.00,0.00,-1.98,-4.97,-26.55,10.53,0.07,-0.57,15.99,-30.16,-38.42,40.38,1291,1361,1331,1225,1303,1498,1522,11370,711
189156,0,33.56,-22.93,-9.33,-0.182,0.189,1.304,0.00,0.00,-2.49,-4.02,-36.05,18.91,0.04,-0.52,16.29,-37.87,-0.83,39.60,1291,1361,1331,1225,1303,1498,1522,11370,711
189168,0,15.82,-9.75,-9.72,-0.372,0.297,1.402,0.00,0.00,-2.86,-3.17,-18.68,6.58,0.03,-0.49,16.58,-6.80,-29.80,40.86,1291,1361,1331,1225,1308,1498,1522,11354,711
189180,0,14.69,-37.55,-9.20,-0.186,0.272,1.212,0.00,0.00,-3.08,-1.94,-17.77,35.60,0.01,-0.41,16.86,-10.35,37.57,39.85,1291,1361,1331,1225,1310,1498,1522,11354,711
189192,0,7.19,-41.80,-10.30,-0.058,0.223,1.134,0.00,0.00,-3.11,-0.73,-10.30,41.07,0.01,-0.31,17.15,0.23,27.79,42.91,1291,1361,1331,1225,1310,1498,1522,11358,711
189204,0,3.61,-39.54,-9.86,-0.029,0.197,1.123,0.00,0.00,-3.04,0.38,-6.66,39.93,0.00,-0.22,17.43,5.75,12.49,42.09,1291,1361,1331,1225,1310,1498,1522,11374,711
189216,0,4.36,-40.85,-8.97,0.000,0.181,1.085,0.00,0.00,-3.05,1.35,-7.41,42.20,-0.01,-0.13,17.69,8.86,32.55,40.10,1294,1310,1390,1246,1310,1499,1522,11387,711
189228,0,4.08,-31.84,-6.48,-0.033,0.133,1.054,0.00,0.00,-3.03,2.23,-7.11,34.07,-0.02,-0.05,17.89,10.88,6.55,34.09,1294,1310,1390,1246,1311,1499,1522,11370,711
189240,0,3.59,-18.80,-5.99,-0.078,0.072,1.110,0.00,0.00,-3.01,2.82,-6.59,21.62,-0.03,-0.01,18.09,12.96,-2.24,33.06,1294,1310,1390,1246,1312,1499,1521,11358,711
189252,0,7.85,-2.86,-6.29,-0.190,0.041,1.247,0.00,0.00,-3.03,3.28,-10.88,6.14,-0.04,0.02,18.27,5.85,-31.44,34.01,1294,1310,1390,1246,1312,1499,1521,11383,711
189264,0,13.86,0.80,-4.94,-0.258,0.031,1.290,0.00,0.00,-3.14,3.77,-17.00,2.97,-0.06,0.04,18.42,-3.32,-31.49,30.77,1294,1310,1390,1246,1315,1499,1521,11374,711
189276,0,18.25,14.77,-4.96,-0.390,0.037,1.346,0.00,0.00,-3.28,4.22,-21.53,-10.56,-0.08,0.05,18.53,-10.64,-74.91,30.93,1294,1310,1390,1246,1315,1499,1521,11391,711
189288,0,14.39,9.85,-4.93,-0.400,0.040,1.332,0.00,0.00,-3.37,4.73,-17.76,-5.12,-0.10,0.07,18.63,-3.58,-57.99,30.95,1294,1310,1390,1246,1315,1499,1521,11416,711
189300,0,8.79,3.78,-5.35,-0.418,0.023,1.312,0.00,0.00,-3.48,5.05,-12.27,1.27,-0.12,0.06,18.74,7.96,4.77,32.12,1294,1310,1390,1246,1316,1499,1521,11408,711
189312,0,8.85,10.74,-6.71,-0.544,0.013,1.458,0.00,0.00,-3.62,5.39,-12.47,-5.34,-0.13,0.05,18.86,7.00,-5.31,35.64,1294,1310,1390,1246,1316,1499,1521,11424,711
189324,0,11.65,1.19,-6.28,-0.530,0.003,1.403,0.00,0.00,-3.77,6.10,-15.42,4.92,-0.15,0.07,18.96,1.91,-0.86,34.67,1323,1265,1417,1259,1316,1499,1521,11428,710
189336,0,11.90,0.34,-4.96,-0.512,0.001,1.347,0.00,0.00,-3.88,7.12,-15.78,6.78,-0.17,0.13,19.02,0.81,-51.50,31.41,1323,1265,1417,1259,1316,1499,1521,11428,710
189348,0,8.28,-18.40,-2.86,-0.303,0.016,1.157,0.00,0.00,-3.88,8.16,-12.16,26.56,-0.19,0.21,19.05,3.85,0.25,26.20,1323,1265,1417,1259,1299,1499,1538,11412,710
189360,0,3.14,-16.98,-2.58,-0.227,-0.009,1.120,0.00,0.00,-3.84,9.15,-6.98,26.13,-0.20,0.30,19.08,13.63,-29.60,25.54,1323,1265,1417,1259,1299,1499,1538,11391,710
189372,0,1.97,-32.39,-1.96,0.012,-0.016,0.971,0.00,0.00,-3.79,9.90,-5.76,42.30,-0.22,0.39,19.13,14.95,38.12,24.03,1323,1265,1417,1259,1299,1499,1538,11370,710
189384,0,2.28,-25.76,-1.67,0.128,-0.026,0.930,0.00,0.00,-3.80,10.41,-6.08,36.17,-0.23,0.48,19.16,15.98,9.75,23.34,1323,1265,1417,1259,1316,1499,1521,11374,710
189396,0,5.08,-18.71,-2.18,0.214,-0.030,0.892,0.00,0.00,-3.82,10.63,-8.90,29.34,-0.25,0.56,19.19,10.84,-9.74,24.64,1323,1265,1417,1259,1316,1499,1521,11354,710
189408,0,7.12,-16.75,-2.75,0.310,-0.023,0.833,0.00,0.00,-3.86,10.53,-10.98,27.28,-0.27,0.63,19.23,7.00,-1.31,26.10,1323,1265,1417,1259,1316,1499,1521,11341,710
189420,0,5.27,-1.83,-4.61,0.332,0.001,0.894,0.00,0.00,-3.92,10.09,-9.19,11.92,-0.28,0.69,19.30,9.39,-38.86,30.82,1289,1383,1287,1305,1316,1499,1521,11345,711
189432,0,0.96,9.54,-6.42,0.279,-0.005,0.990,0.00,0.00,-3.98,9.35,-4.95,-0.18,-0.30,0.70,19.39,15.54,-41.72,35.45,1289,1383,1287,1305,1316,1499,1521,11341,711
189444,0,1.43,23.61,-7.83,0.090,-0.000,1.101,0.00,0.00,-4.12,8.45,-5.55,-15.17,-0.31,0.67,19.53,12.29,-25.92,39.10,1289,1383,1287,1305,1317,1499,1521,11374,711
189456,0,2.58,28.96,-7.21,-0.203,-0.044,1.217,0.00,0.00,-4.25,7.69,-6.83,-21.27,-0.33,0.60,19.67,6.75,5.73,37.68,1289,1383,1287,1305,1317,1499,1521,11366,711
189468,0,4.34,21.83,-6.63,-0.400,-0.132,1.274,0.00,0.00,-4.34,7.28,-8.68,-14.55,-0.34,0.53,19.83,0.96,45.34,36.39,1289,1383,1287,1305,1317,1499,1521,11312,711
189480,0,6.49,-2.90,-5.76,-0.370,-0.234,1.216,0.00,0.00,-4.38,7.40,-10.87,10.29,-0.36,0.51,19.99,-5.03,97.22,34.39,1289,1383,1287,1305,1317,1499,1521,11320,711
189492,0,11.91,-19.28,-4.83,-0.218,-0.267,1.148,0.00,0.00,-4.46,7.82,-16.37,27.11,-0.38,0.53,20.15,-15.09,103.86,32.22,1289,1383,1287,1305,1317,1499,1521,11308,711
189504,0,18.89,-8.64,-4.24,-0.173,-0.237,1.164,0.00,0.00,-4.64,8.25,-23.53,16.89,-0.40,0.57,20.30,-26.89,24.39,30.89,1289,1383,1287,1305,1317,1498,1521,11308,711
189516,0,21.23,-9.30,-2.04,-0.160,-0.172,1.136,0.00,0.00,-4.85,8.64,-26.08,17.94,-0.42,0.61,20.39,-33.25,19.53,25.49,1344,1356,1328,1240,1317,1498,1521,11324,711
189528,0,18.97,-13.47,-1.15,-0.125,-0.117,1.110,0.00,0.00,-5.05,9.01,-24.02,22.49,-0.43,0.65,20.47,-32.91,32.56,23.35,1344,1356,1328,1240,1317,1498,1521,11349,711
189540,0,17.82,-26.37,-1.75,-0.019,-0.083,1.037,0.00,0.00,-5.22,9.37,-23.04,35.75,-0.45,0.70,20.58,-34.75,75.42,24.95,1344,1356,1328,1240,1317,1499,1521,11349,711
189552,0,17.37,-25.17,-1.98,0.027,-0.068,0.984,0.00,0.00,-5.32,9.69,-22.69,34.86,-0.46,0.75,20.70,-38.42,66.71,25.64,1344,1356,1328,1240,1317,1499,1521,11337,711
189564,0,15.09,-25.65,-1.62,0.137,-0.073,0.864,0.00,0.00,-5.33,9.90,-20.42,35.55,-0.46,0.81,20.82,-36.98,64.84,24.87,1344,1356,1328,1240,1316,1499,1521,11324,711
189576,0,14.49,-21.18,-3.13,0.232,-0.077,0.861,0.00,0.00,-5.25,9.88,-19.74,31.06,-0.47,0.86,20.95,-40.09,51.38,28.77,1344,1356,1328,1240,1316,1499,1521,11329,711
189588,0,14.02,-25.36,-3.35,0.377,-0.092,0.792,0.00,0.00,-5.05,9.59,-19.07,34.95,-0.47,0.90,21.10,-41.22,80.10,29.47,1344,1356,1328,1240,1316,1499,1521,11304,711
189600,0,16.19,-17.70,-3.17,0.485,-0.087,0.717,0.00,0.00,-4.88,9.01,-21.07,26.71,-0.47,0.94,21.24,-44.26,50.38,29.16,1344,1356,1328,1240,1317,1499,1521,11337,711
189612,0,16.37,-3.76,-3.76,0.555,-0.080,0.709,0.00,0.00,-4.69,8.07,-21.06,11.83,-0.47,0.96,21.38,-44.05,4.06,30.78,1344,1356,1328,1240,1317,1499,1521,11349,711
189624,0,16.98,12.24,-4.45,0.540,-0.052,0.775,0.00,0.00,-4.51,6.82,-21.49,-5.42,-0.48,0.95,21.53,-45.45,-20.97,32.66,1208,1398,1310,1352,1318,1499,1521,11333,711
189636,0,17.74,22.19,-5.35,0.499,0.016,0.850,0.00,0.00,-4.41,5.42,-22.15,-16.77,-0.48,0.91,21.70,-47.00,-24.00,35.08,1208,1398,1310,1352,1318,1499,1521,11324,711
189648,0,13.86,30.73,-6.24,0.419,0.079,0.899,0.00,0.00,-4.34,3.96,-18.20,-26.77,-0.48,0.85,21.88,-39.62,-23.50,37.49,1208,1398,1310,1352,1318,1499,1521,11341,711
189660,0,6.10,50.35,-8.22,0.145,0.129,1.021,0.00,0.00,-4.23,2.56,-10.34,-47.78,-0.47,0.74,22.07,-27.09,-54.82,42.63,1208,1398,1310,1352,1318,1499,1521,11333,711
189672,0,-4.86,56.48,-10.15,-0.151,0.122,1.136,0.00,0.00,-4.01,1.34,0.86,-55.14,-0.46,0.61,22.29,-10.02,-28.54,47.66,1208,1398,1310,1352,1318,1499,1521,11333,711
189684,0,-11.56,47.55,-12.03,-0.366,0.090,1.254,0.00,0.00,-3.64,0.55,7.92,-47.00,-0.45,0.48,22.55,-2.77,7.59,52.64,1208,1398,1310,1352,1318,1499,1521,11324,711
189696,0,-14.72,35.15,-11.99,-0.427,0.066,1.261,0.00,0.00,-3.21,0.33,11.51,-34.82,-0.43,0.40,22.81,1.49,3.83,52.79,1208,1398,1310,1352,1318,1499,1521,11312,711
189708,0,-17.70,22.85,-9.64,-0.348,0.077,1.177,0.00,0.00,-2.72,0.49,14.98,-22.36,-0.41,0.36,23.01,6.52,-8.71,47.11,1208,1398,1310,1352,1318,1499,1521,11354,711
189720,0,-24.03,7.26,-6.25,-0.108,0.073,1.016,0.00,0.00,-2.18,0.86,21.85,-6.40,-0.39,0.36,23.15,18.90,-14.59,38.78,1375,1309,1395,1193,1318,1499,1521,11349,711
189732,0,-28.94,12.07,-5.31,0.102,0.045,0.945,0.00,0.00,-1.58,0.87,27.36,-11.20,-0.37,0.37,23.29,29.01,-62.24,36.55,1375,1309,1395,1193,1318,1499,1521,11320,711
189744,0,-25.73,32.74,-6.56,0.025,0.050,1.078,0.00,0.00,-1.09,0.38,24.64,-32.37,-0.35,0.33,23.48,25.09,-90.58,39.88,1375,1309,1395,1193,1318,1499,1521,11320,711
189756,0,-23.16,40.89,-7.40,-0.177,0.032,1.222,0.00,0.00,-0.63,-0.09,22.53,-40.98,-0.33,0.26,23.71,21.03,-81.76,42.20,1375,1309,1395,1193,1318,1499,1521,11320,711
189768,0,-18.95,27.53,-8.27,-0.216,0.019,1.212,0.00,0.00,-0.19,-0.27,18.76,-27.80,-0.31,0.21,23.94,13.57,-34.35,44.61,1375,1309,1395,1193,1318,1499,1521,11291,711
189780,0,-18.14,28.31,-9.23,-0.274,0.018,1.236,0.00,0.00,0.24,-0.18,18.38,-28.49,-0.29,0.18,24.18,15.91,-77.93,47.26,1375,1309,1395,1193,1318,1498,1521,11262,711
189792,0,-20.06,13.79,-8.77,-0.150,0.026,1.104,0.00,0.00,0.66,-0.15,20.71,-13.94,-0.28,0.16,24.40,23.27,-22.58,46.33,1375,1309,1395,1193,1318,1498,1521,11279,711
189804,0,-19.25,13.70,-9.39,-0.048,0.046,1.086,0.00,0.00,1.07,-0.18,20.31,-13.88,-0.26,0.14,24.60,24.07,-36.91,48.07,1375,1309,1395,1193,1318,1498,1521,11274,711
189816,0,-16.40,9.61,-9.36,0.109,0.071,0.975,0.00,0.00,1.44,-0.35,17.83,-9.96,-0.24,0.13,24.81,21.77,-29.60,48.20,1220,1374,1358,1320,1318,1498,1521,11291,720
189828,0,-15.09,11.26,-8.76,0.203,0.088,0.911,0.00,0.00,1.76,-0.70,16.85,-11.95,-0.23,0.13,25.01,23.84,-46.98,46.90,1220,1374,1358,1320,1318,1498,1522,11299,720
189840,0,-22.88,26.05,-8.93,0.141,0.135,1.036,0.00,0.00,1.88,-1.47,24.75,-27.51,-0.22,0.07,25.25,44.63,-42.82,47.58,1220,1374,1358,1320,1318,1498,1522,11312,720
189852,0,-25.50,19.24,-7.77,0.144,0.161,1.031,0.00,0.00,1.98,-2.24,27.48,-21.48,-0.21,0.00,25.51,46.43,16.75,44.93,1220,1374,1358,1320,1318,1498,1522,11324,720
189864,0,-26.71,17.99,-6.53,0.133,0.172,1.002,0.00,0.00,2.01,-2.88,28.72,-20.87,-0.20,-0.06,25.74,48.07,17.15,42.06,1220,1374,1358,1320,1318,1498,1521,11308,720
189876,0,-26.82,14.64,-6.61,0.179,0.138,0.925,0.00,0.00,2.07,-3.54,28.90,-18.18,-0.19,-0.12,25.95,45.61,25.31,42.48,1220,1374,1358,1320,1318,1499,1521,11295,720
189888,0,-27.35,22.52,-8.11,0.206,0.106,0.927,0.00,0.00,2.25,-4.34,29.60,-26.86,-0.17,-0.19,26.18,41.53,4.29,46.45,1220,1374,1358,1320,1318,1499,1521,11287,720
189900,0,-29.36,30.01,-9.52,0.230,0.069,0.922,0.00,0.00,2.48,-5.32,31.83,-35.32,-0.15,-0.27,26.43,43.19,-20.83,50.22,1220,1374,1358,1320,1318,1499,1521,11320,720
189912,0,-29.65,46.52,-11.02,0.077,0.042,1.029,0.00,0.00,2.72,-6.55,32.37,-53.06,-0.13,-0.40,26.71,41.96,-38.49,54.26,1220,1374,1358,1320,1318,1499,1521,11316,720
189924,0,-31.26,43.06,-10.79,-0.134,0.037,1.097,0.00,0.00,2.98,-7.56,34.24,-50.62,-0.12,-0.54,27.00,43.27,11.56,53.97,1256,1428,1302,1286,1318,1499,1521,11341,721
189936,0,-34.91,39.66,-10.79,-0.211,0.026,1.124,0.00,0.00,3.29,-8.26,38.21,-47.92,-0.09,-0.67,27.28,46.60,22.39,54.27,1256,1428,1302,1286,1318,1499,1521,11337,721
189948,0,-39.91,36.02,-9.61,-0.268,0.008,1.192,0.00,0.00,3.73,-8.57,43.64,-44.59,-0.06,-0.77,27.54,49.32,-10.35,51.57,1256,1428,1302,1286,1318,1499,1521,11324,721
189960,0,-48.23,26.20,-7.59,-0.212,-0.017,1.133,0.00,0.00,4.24,-8.73,52.47,-34.92,-0.03,-0.85,27.79,61.72,-2.69,46.77,1256,1428,1302,1286,1318,1499,1521,11316,721
189972,0,-50.95,10.75,-6.24,-0.100,-0.037,0.988,0.00,0.00,4.70,-8.69,55.65,-19.44,0.00,-0.89,28.02,67.59,10.99,43.61,1256,1428,1302,1286,1318,1499,1521,11341,721
189984,0,-48.66,18.81,-7.25,-0.122,-0.059,0.956,0.00,0.00,5.16,-8.64,53.82,-27.45,0.03,-0.93,28.24,62.42,-39.58,46.38,1256,1428,1302,1286,1318,1499,1521,11349,721
189996,0,-47.78,32.07,-9.75,-0.220,-0.106,1.068,0.00,0.00,5.69,-8.56,53.48,-40.64,0.07,-0.98,28.50,58.94,-101.32,52.87,1256,1428,1302,1286,1318,1499,1521,11345,721
190008,0,-45.90,21.06,-9.95,-0.211,-0.080,1.076,0.00,0.00,6.20,-8.58,52.10,-29.64,0.10,-1.04,28.77,54.43,-29.80,53.65,1256,1428,1302,1286,1317,1499,1520,11366,721
190020,0,-44.38,15.54,-10.92,-0.222,-0.012,1.084,0.00,0.00,6.65,-8.44,51.02,-23.98,0.14,-1.10,29.03,52.39,-12.42,56.34,1280,1384,1336,1268,1317,1499,1520,11374,711
190032,0,-44.12,11.19,-11.73,-0.086,0.033,1.076,0.00,0.00,7.14,-8.18,51.26,-19.37,0.18,-1.12,29.28,49.25,-37.05,58.60,1280,1384,1336,1268,1317,1499,1520,11354,711
190044,0,-47.07,5.94,-11.24,0.065,0.068,1.036,0.00,0.00,7.62,-8.16,54.69,-14.10,0.22,-1.12,29.53,55.88,-44.78,57.63,1280,1384,1336,1268,1317,1499,1520,11362,711
190056,0,-53.61,-10.40,-8.47,0.260,0.106,0.818,0.00,0.00,8.00,-8.41,61.62,1.99,0.27,-1.12,29.73,69.85,16.08,50.91,1280,1384,1336,1268,1317,1499,1520,11349,711
190068,0,-61.48,-0.26,-8.16,0.340,0.108,0.751,0.00,0.00,8.38,-8.92,69.86,-8.67,0.31,-1.13,29.92,83.19,-25.96,50.33,1280,1384,1336,1268,1318,1499,1521,11320,711
190080,0,-61.67,18.50,-8.85,0.295,0.107,0.803,0.00,0.00,8.85,-9.69,70.51,-28.19,0.37,-1.17,30.15,77.32,-67.77,52.27,1280,1384,1336,1268,1318,1499,1521,11316,711
190092,0,-58.56,28.90,-8.71,0.191,0.097,0.831,0.00,0.00,9.33,-10.43,67.89,-39.33,0.42,-1.22,30.40,67.58,-88.47,52.17,1280,1384,1336,1268,1318,1499,1521,11291,711
190104,0,-56.78,35.96,-9.91,0.131,0.101,0.879,0.00,0.00,9.80,-11.18,66.57,-47.13,0.47,-1.30,30.66,64.45,-87.59,55.43,1280,1384,1336,1268,1318,1499,1521,11316,711
190116,0,-56.28,49.68,-11.75,-0.024,0.141,1.010,0.00,0.00,10.25,-11.94,66.53,-61.63,0.52,-1.40,30.94,65.68,-105.16,60.32,1100,1418,1338,1428,1318,1499,1521,11308,710
190128,0,-57.58,61.33,-13.29,-0.232,0.149,1.182,0.00,0.00,10.75,-12.79,68.33,-74.12,0.57,-1.55,31.26,67.71,-96.01,64.49,1100,1418,1338,1428,1318,1499,1521,11266,710
190140,0,-56.12,42.39,-12.05,-0.318,0.148,1.178,0.00,0.00,11.27,-13.35,67.39,-55.73,0.62,-1.70,31.56,64.38,-4.26,61.69,1100,1418,1338,1428,1318,1499,1520,11266,710
190152,0,-53.22,32.00,-10.23,-0.226,0.148,1.084,0.00,0.00,11.79,-13.40,65.01,-45.40,0.68,-1.79,31.80,57.52,-21.00,57.38,1100,1418,1338,1428,1318,1499,1520,11262,710
190164,0,-47.13,36.58,-8.84,-0.139,0.132,1.074,0.00,0.00,12.42,-13.47,59.55,-50.05,0.74,-1.87,32.01,39.51,-83.63,54.11,1100,1418,1338,1428,1317,1498,1520,11274,710
190176,0,-40.96,36.45,-7.22,-0.119,0.089,1.084,0.00,0.00,13.12,-13.77,54.08,-50.22,0.80,-1.96,32.24,22.57,-74.61,50.30,1100,1418,1338,1428,1317,1499,1520,11274,710
190188,0,-34.57,29.00,-5.74,-0.088,0.043,1.062,0.00,0.00,13.86,-14.17,48.44,-43.18,0.86,-2.07,32.50,7.63,-17.74,46.86,1100,1418,1338,1428,1317,1499,1521,11299,710
190200,0,-28.10,41.76,-6.99,-0.321,0.005,1.287,0.00,0.00,14.62,-14.58,42.72,-56.34,0.92,-2.20,32.79,-7.74,-39.32,50.27,1100,1418,1338,1428,1317,1499,1521,11324,710
190212,0,-26.46,16.18,-6.41,-0.335,-0.023,1.226,0.00,0.00,15.34,-14.53,41.81,-30.71,0.99,-2.30,33.03,-11.02,36.27,49.06,1100,1418,1338,1428,1317,1499,1521,11304,710
190224,0,-31.05,-1.87,-6.65,-0.188,-0.094,1.053,0.00,0.00,16.11,-14.18,47.16,-12.32,1.05,-2.35,33.23,-2.65,41.25,49.86,1225,1363,1383,1297,1317,1499,1521,11283,708
190236,0,-35.86,-8.07,-8.63,-0.177,-0.119,0.976,0.00,0.00,16.92,-14.02,52.78,-5.95,1.12,-2.41,33.46,3.87,73.30,55.02,1225,1363,1383,1297,1317,1499,1521,11299,708
190248,0,-35.14,21.39,-11.25,-0.320,-0.110,1.165,0.00,0.00,17.59,-14.20,52.74,-35.58,1.19,-2.53,33.72,5.46,11.20,61.85,1225,1363,1383,1297,1318,1499,1521,11320,708
190260,0,-31.69,48.45,-12.67,-0.467,-0.095,1.418,0.00,0.00,18.21,-14.59,49.90,-63.04,1.25,-2.67,34.02,1.11,-54.58,65.68,1225,1363,1383,1297,1318,1499,1520,11345,708
190272,0,-27.77,44.34,-9.06,-0.602,-0.019,1.479,0.00,0.00,18.68,-14.82,46.45,-59.17,1.31,-2.81,34.28,1.69,-32.68,56.93,1225,1363,1383,1297,1318,1499,1520,11308,708
190284,0,-32.37,25.08,-6.28,-0.528,0.043,1.377,0.00,0.00,19.02,-14.70,51.39,-39.78,1.36,-2.91,34.48,23.00,9.61,50.17,1225,1363,1383,1297,1318,1499,1520,11304,708
190296,0,-31.59,39.90,-6.60,-0.473,0.119,1.446,0.00,0.00,19.28,-14.72,50.87,-54.62,1.41,-3.02,34.68,29.05,-53.79,51.16,1225,1363,1383,1297,1318,1499,1520,11287,708
190308,0,-26.48,51.24,-6.71,-0.413,0.146,1.430,0.00,0.00,19.45,-15.04,45.93,-66.29,1.46,-3.16,34.89,26.31,-63.15,51.66,1225,1363,1383,1297,1318,1499,1520,11254,708
190320,0,-20.32,33.66,-8.14,-0.356,0.131,1.365,0.00,0.00,19.71,-14.93,40.02,-48.59,1.51,-3.26,35.11,12.38,-43.87,55.46,1343,1311,1421,1197,1318,1499,1520,11279,708
190332,0,-12.87,27.81,-9.13,-0.367,0.097,1.419,0.00,0.00,19.99,-14.81,32.86,-42.61,1.56,-3.35,35.37,-4.61,-36.60,58.19,1343,1311,1421,1197,1318,1499,1520,11274,708
190344,0,-9.02,10.78,-8.28,-0.223,0.019,1.315,0.00,0.00,20.24,-14.68,29.26,-25.46,1.61,-3.44,35.61,-10.70,26.44,56.31,1343,1311,1421,1197,1325,1499,1521,11287,708
190356,0,-5.71,5.11,-7.36,0.017,-0.078,1.144,0.00,0.00,20.48,-14.59,26.20,-19.70,1.65,-3.50,35.83,-15.11,21.89,54.24,1343,1311,1421,1197,1325,1499,1521,11279,708
190368,0,-4.60,5.79,-6.12,0.069,-0.146,1.057,0.00,0.00,20.82,-14.53,25.41,-20.32,1.70,-3.53,36.03,-17.82,-35.46,51.32,1343,1311,1421,1197,1331,1499,1522,11291,708
190380,0,-10.08,6.82,-4.62,-0.000,-0.137,1.029,0.00,0.00,21.19,-14.71,31.27,-21.53,1.74,-3.57,36.22,-8.41,-27.76,47.77,1343,1311,1421,1197,1331,1499,1521,11266,708
190392,0,-18.83,9.50,-6.87,0.041,-0.164,1.069,0.00,0.00,21.54,-14.96,40.37,-24.46,1.79,-3.63,36.45,11.40,-19.32,53.62,1343,1311,1421,1197,1331,1499,1521,11274,708
190404,0,-19.30,8.59,-7.80,0.030,-0.130,1.119,0.00,0.00,21.86,-15.16,41.16,-23.75,1.84,-3.68,36.72,16.63,-9.76,56.21,1343,1311,1421,1197,1331,1499,1522,11237,708
190416,0,-19.81,-7.40,-7.88,0.114,-0.102,0.997,0.00,0.00,22.08,-15.13,41.88,-7.73,1.88,-3.71,36.97,25.53,20.61,56.67,1270,1342,1432,1280,1331,1499,1522,11249,711
190428,0,-22.82,-13.39,-8.92,0.312,-0.082,0.864,0.00,0.00,22.27,-15.10,45.10,-1.71,1.92,-3.70,37.20,36.37,-7.65,59.50,1270,1342,1432,1280,1331,1499,1521,11249,711
190440,0,-23.73,-2.09,-9.84,0.340,-0.063,0.829,0.00,0.00,22.40,-15.33,46.12,-13.24,1.96,-3.71,37.42,41.67,-65.99,62.02,1270,1342,1432,1280,1330,1498,1521,11254,711
190452,0,-22.17,-3.54,-9.75,0.323,-0.040,0.801,0.00,0.00,22.43,-15.79,44.61,-12.25,1.99,-3.74,37.69,41.01,-17.57,62.05,1270,1342,1432,1280,1330,1498,1521,11295,711
190464,0,-18.41,-0.74,-10.76,0.307,0.029,0.841,0.00,0.00,22.44,-16.17,40.85,-15.42,2.03,-3.79,37.97,34.29,-1.93,64.88,1270,1342,1432,1280,1330,1498,1521,11295,711
190476,0,-16.33,5.68,-11.10,0.240,0.105,0.975,0.00,0.00,22.45,-16.34,38.78,-22.02,2.07,-3.82,38.26,31.06,-46.80,66.01,1270,1342,1432,1280,1330,1498,1521,11274,711
190488,0,-18.14,-22.00,-9.19,0.454,0.131,0.817,0.00,0.00,22.48,-16.45,40.62,5.55,2.11,-3.81,38.55,35.77,23.34,61.52,1270,1342,1432,1280,1330,1498,1521,11249,711
190500,0,-18.14,-31.44,-9.04,0.614,0.128,0.729,0.00,0.00,22.54,-16.71,40.67,14.73,2.14,-3.79,38.85,37.72,36.44,61.44,1270,1342,1432,1280,1330,1499,1521,11224,711
190512,0,-29.38,11.87,-11.30,0.267,0.046,0.979,0.00,0.00,22.70,-17.09,52.08,-28.96,2.19,-3.82,39.17,55.63,-100.93,67.40,1270,1342,1432,1280,1330,1499,1521,11224,711
190524,0,-18.46,6.66,-12.01,0.143,0.040,1.124,0.00,0.00,22.75,-17.21,41.21,-23.87,2.22,-3.86,39.53,33.65,-43.79,69.56,1221,1433,1373,1293,1330,1499,1521,11233,711
190536,0,-12.32,11.41,-12.80,-0.022,0.033,1.269,0.00,0.00,22.73,-17.18,35.05,-28.59,2.25,-3.92,39.91,25.30,-44.51,71.91,1221,1433,1373,1293,1330,1499,1521,11224,711
190548,0,-6.02,10.56,-12.15,-0.191,0.074,1.365,0.00,0.00,22.66,-17.05,28.68,-27.62,2.29,-3.98,40.28,13.09,-20.77,70.66,1221,1433,1373,1293,1330,1499,1521,11224,711
190560,0,1.43,3.36,-13.51,-0.307,0.127,1.510,0.00,0.00,22.54,-16.61,21.12,-19.98,2.32,-4.03,40.67,-2.89,-2.71,74.44,1221,1433,1373,1293,1330,1499,1521,11208,711
190572,0,3.84,-3.43,-11.26,-0.343,0.149,1.546,0.00,0.00,22.41,-15.85,18.57,-12.42,2.35,-4.05,40.99,-9.65,-14.87,69.15,1221,1433,1373,1293,1330,1499,1521,11237,711
190584,0,2.12,-22.77,-8.01,-0.258,0.076,1.413,0.00,0.00,22.37,-14.98,20.25,7.79,2.39,-4.05,41.30,-12.30,38.12,61.32,1221,1433,1373,1293,1330,1499,1521,11233,711
190596,0,0.53,-3.03,-9.54,-0.374,-0.004,1.554,0.00,0.00,22.42,-14.36,21.89,-11.33,2.43,-4.09,41.64,-15.36,-16.69,65.50,1221,1433,1373,1293,1330,1499,1521,11274,711
190608,0,0.10,-19.39,-10.06,-0.510,-0.085,1.580,0.00,0.00,22.57,-13.44,22.47,5.94,2.48,-4.09,42.00,-19.96,38.28,67.15,1221,1433,1373,1293,1330,1499,1521,11237,711
190620,0,-4.21,-42.16,-8.85,-0.464,-0.154,1.398,0.00,0.00,22.78,-12.13,26.99,30.03,2.53,-4.06,42.34,-15.15,81.60,64.46,1279,1295,1499,1247,1330,1499,1521,11241,711
190632,0,-6.61,-45.97,-11.94,-0.380,-0.200,1.339,0.00,0.00,23.05,-10.72,29.65,35.25,2.57,-4.01,42.69,-13.19,70.73,72.54,1279,1295,1499,1247,1330,1499,1521,11245,711
190644,0,-7.32,-24.00,-11.77,-0.394,-0.186,1.368,0.00,0.00,23.32,-9.31,30.64,14.69,2.62,-3.94,42.99,-14.16,-48.56,72.41,1279,1295,1499,1247,1330,1499,1521,11241,711
190656,0,-15.38,-40.13,-8.14,-0.311,-0.200,1.195,0.00,0.00,23.62,-8.10,39.00,32.02,2.68,-3.89,43.27,2.47,43.71,63.61,1279,1295,1499,1247,1330,1499,1521,11229,711
190668,0,-17.58,-30.16,-9.76,-0.171,-0.210,1.191,0.00,0.00,23.87,-7.12,41.45,23.04,2.72,-3.85,43.56,10.23,21.77,67.97,1279,1295,1499,1247,1330,1499,1521,11204,711
190680,0,-23.11,-26.58,-9.04,-0.083,-0.206,1.128,0.00,0.00,24.12,-6.30,47.23,20.28,2.77,-3.80,43.86,23.30,6.70,66.46,1279,1295,1499,1247,1330,1499,1521,11216,711
190692,0,-24.82,-26.01,-10.65,0.073,-0.221,1.140,0.00,0.00,24.24,-5.73,49.07,20.28,2.82,-3.75,44.16,30.96,7.23,70.78,1279,1295,1499,1247,1330,1499,1521,11212,711
190704,0,-24.02,-28.05,-9.65,0.113,-0.217,1.039,0.00,0.00,24.30,-5.29,48.32,22.76,2.86,-3.70,44.44,31.36,12.79,68.56,1279,1295,1499,1247,1330,1499,1521,11270,711
190716,0,-22.28,-34.76,-10.57,0.276,-0.192,0.901,0.00,0.00,24.28,-4.88,46.56,29.88,2.90,-3.64,44.71,31.79,25.72,71.14,1253,1345,1457,1265,1330,1499,1521,11270,711
190728,0,-20.43,-22.85,-11.46,0.341,-0.135,0.859,0.00,0.00,24.27,-4.65,44.70,18.20,2.94,-3.56,44.98,29.57,-43.05,73.62,1253,1345,1457,1265,1330,1499,1521,11245,711
190740,0,-23.18,-22.32,-11.38,0.422,-0.106,0.818,0.00,0.00,24.22,-4.82,47.40,17.50,2.98,-3.50,45.26,40.60,-27.20,73.71,1253,1345,1457,1265,1330,1498,1521,11233,711
190752,0,-22.99,-9.35,-10.64,0.331,-0.080,0.852,0.00,0.00,24.08,-5.25,47.07,4.10,3.01,-3.48,45.54,45.28,-29.95,72.13,1253,1345,1457,1265,1330,1498,1521,11237,711
190764,0,-26.56,-5.04,-9.83,0.239,-0.056,0.844,0.00,0.00,23.92,-5.57,50.48,-0.53,3.05,-3.48,45.83,57.04,-17.10,70.41,1253,1345,1457,1265,1331,1499,1521,11220,711
190776,0,-25.79,7.34,-11.01,0.124,-0.032,0.921,0.00,0.00,23.72,-5.90,49.52,-13.23,3.08,-3.49,46.13,60.63,-40.50,73.67,1253,1345,1457,1265,1331,1499,1521,11224,711
190788,0,-27.14,12.88,-12.45,0.013,-0.052,0.981,0.00,0.00,23.54,-6.12,50.68,-19.00,3.10,-3.52,46.48,67.75,-43.98,77.59,1253,1345,1457,1265,1331,1499,1521,11220,711
190800,0,-23.33,27.96,-13.69,-0.140,-0.050,1.093,0.00,0.00,23.31,-6.43,46.63,-34.39,3.13,-3.58,46.84,62.91,-66.40,81.08,1253,1345,1457,1265,1331,1499,1521,11233,711
190812,0,-22.30,40.92,-14.04,-0.354,-0.058,1.249,0.00,0.00,23.09,-6.75,45.38,-47.67,3.15,-3.68,47.20,61.58,-67.30,82.31,1253,1345,1457,1265,1331,1499,1521,11241,711
190824,0,-17.77,27.44,-12.65,-0.317,-0.007,1.246,0.00,0.00,22.85,-6.80,40.61,-34.25,3.18,-3.75,47.54,54.38,-25.07,79.17,1288,1412,1398,1226,1331,1498,1522,11229,711
190836,0,-18.48,26.83,-10.63,-0.268,0.072,1.292,0.00,0.00,22.64,-6.89,41.12,-33.72,3.20,-3.82,47.84,57.30,-33.89,74.42,1288,1412,1398,1226,1331,1498,1522,11229,711
190848,0,-19.65,27.28,-8.21,-0.156,0.085,1.277,0.00,0.00,22.45,-7.17,42.09,-34.45,3.23,-3.90,48.12,60.43,-24.11,68.64,1288,1412,1398,1226,1332,1498,1522,11262,711
190860,0,-15.84,11.13,-7.33,0.050,0.042,1.151,0.00,0.00,22.35,-7.29,38.20,-18.42,3.25,-3.94,48.36,48.24,3.15,66.69,1288,1412,1398,1226,1332,1499,1521,11237,711
190872,0,-5.34,-6.46,-6.17,0.250,0.002,0.956,0.00,0.00,22.34,-7.38,27.68,-0.92,3.28,-3.95,48.58,21.60,18.61,64.01,1288,1412,1398,1226,1332,1499,1521,11237,711
190884,0,4.15,0.01,-6.51,0.261,0.010,0.971,0.00,0.00,22.39,-7.69,18.23,-7.70,3.31,-3.97,48.81,-4.06,-4.83,65.09,1288,1412,1398,1226,1332,1499,1521,11212,711
190896,0,5.68,-17.54,-5.58,0.313,0.055,0.895,0.00,0.00,22.43,-7.80,16.75,9.74,3.34,-3.96,49.03,-8.45,35.40,62.98,1288,1412,1398,1226,1332,1499,1521,11204,711
190908,0,7.44,-29.32,-3.32,0.435,0.083,0.760,0.00,0.00,22.29,-7.97,14.86,21.34,3.37,-3.93,49.21,-6.79,52.42,57.52,1288,1412,1398,1226,1332,1499,1521,11220,711
190920,0,4.11,-25.32,-4.70,0.410,0.025,0.776,0.00,0.00,22.09,-8.27,17.98,17.06,3.40,-3.91,49.41,3.83,34.79,61.17,1250,1422,1378,1278,1332,1499,1521,11224,711
190932,0,8.05,-14.81,-5.39,0.273,-0.029,0.835,0.00,0.00,21.75,-8.41,13.71,6.40,3.42,-3.89,49.60,-1.71,-15.51,63.06,1250,1422,1378,1278,1332,1499,1521,11220,711
190944,0,9.90,-0.16,-7.37,0.131,-0.063,0.933,0.00,0.00,21.34,-8.66,11.44,-8.50,3.43,-3.91,49.83,-2.03,-22.23,68.25,1250,1422,1378,1278,1332,1499,1521,11224,711
190956,0,12.25,19.58,-9.09,-0.050,-0.055,1.125,0.00,0.00,20.87,-9.02,8.62,-28.60,3.45,-3.97,50.09,-1.17,-42.63,72.82,1250,1422,1378,1278,1332,1499,1521,11224,711
190968,0,11.72,19.22,-8.56,-0.056,-0.050,1.119,0.00,0.00,20.39,-9.39,8.67,-28.61,3.45,-4.04,50.35,5.69,-13.99,71.74,1250,1422,1378,1278,1332,1499,1521,11220,711
190980,0,10.03,18.69,-7.92,-0.006,-0.086,1.093,0.00,0.00,19.90,-9.75,9.87,-28.43,3.46,-4.11,50.58,13.92,-11.99,70.38,1250,1422,1378,1278,1332,1499,1520,11220,711
190992,0,8.54,8.96,-6.78,0.100,-0.118,0.973,0.00,0.00,19.45,-10.07,10.91,-19.03,3.46,-4.16,50.80,19.89,4.88,67.75,1250,1422,1378,1278,1332,1499,1520,11249,711
191004,0,5.94,4.96,-6.47,0.187,-0.136,0.851,0.00,0.00,19.00,-10.46,13.06,-15.42,3.46,-4.20,51.00,28.29,3.73,67.18,1250,1422,1378,1278,1332,1499,1521,11254,711
191016,0,9.30,-1.97,-7.91,0.183,-0.106,0.829,0.00,0.00,18.56,-10.71,9.26,-8.75,3.46,-4.22,51.22,23.83,-7.02,70.98,1232,1386,1418,1292,1332,1499,1521,11279,720
191028,0,12.96,0.68,-9.30,0.108,-0.032,0.902,0.00,0.00,18.00,-10.76,5.05,-11.43,3.46,-4.23,51.43,20.97,-34.57,74.68,1232,1386,1418,1292,1332,1499,1521,11279,720
191040,0,12.51,3.59,-8.83,0.118,0.048,0.941,0.00,0.00,17.32,-10.74,4.81,-14.33,3.45,-4.24,51.63,28.52,-50.60,73.71,1232,1386,1418,1292,1332,1499,1521,11254,720
191052,0,10.66,6.38,-8.13,0.128,0.059,1.023,0.00,0.00,16.60,-10.79,5.94,-17.16,3.44,-4.26,51.83,36.33,-49.45,72.15,1232,1386,1418,1292,1332,1499,1521,11229,720
191064,0,15.04,16.43,-6.68,0.105,0.058,1.066,0.00,0.00,15.86,-11.02,0.83,-27.45,3.43,-4.30,52.03,29.06,-63.88,68.72,1232,1386,1418,1292,1332,1499,1521,11249,720
191076,0,19.52,22.38,-7.46,0.118,0.012,1.088,0.00,0.00,15.21,-11.39,-4.31,-33.77,3.42,-4.36,52.23,19.04,-60.18,70.86,1232,1386,1418,1292,1332,1499,1521,11241,720
191088,0,22.34,25.95,-8.19,0.133,0.004,1.067,0.00,0.00,14.67,-11.93,-7.66,-37.88,3.41,-4.44,52.44,8.84,-50.14,72.91,1232,1386,1418,1292,1331,1499,1521,11224,720
191100,0,26.84,25.96,-9.40,0.020,0.020,1.142,0.00,0.00,14.20,-12.40,-12.64,-38.36,3.40,-4.53,52.67,-4.46,-30.16,76.17,1232,1386,1418,1292,1331,1499,1522,11220,720
191112,0,27.67,9.94,-6.82,-0.004,0.049,1.091,0.00,0.00,13.70,-12.58,-13.97,-22.52,3.38,-4.60,52.86,-5.95,19.41,69.92,1232,1386,1418,1292,1331,1499,1522,11200,720
191124,0,34.52,2.61,-4.89,-0.008,0.054,1.078,0.00,0.00,13.16,-12.56,-21.36,-15.17,3.37,-4.65,53.04,-21.89,20.85,65.28,1234,1374,1424,1292,1331,1498,1521,11183,720
191136,0,43.10,-11.66,-3.16,0.006,0.062,1.036,0.00,0.00,12.53,-12.25,-30.57,-0.58,3.36,-4.67,53.19,-41.41,41.04,61.08,1234,1374,1424,1292,1331,1498,1521,11175,720
191148,0,52.19,-37.77,-2.15,0.235,0.073,0.877,0.00,0.00,11.79,-11.71,-40.40,26.06,3.34,-4.64,53.31,-59.01,77.65,58.68,1234,1374,1424,1292,1332,1498,1522,11200,720
191160,0,54.49,-32.93,-2.25,0.312,0.079,0.851,0.00,0.00,11.02,-11.39,-43.46,21.55,3.32,-4.61,53.40,-62.61,37.45,59.02,1234,1374,1424,1292,1332,1498,1521,11204,720
191172,0,49.23,-23.24,-3.03,0.288,0.008,0.938,0.00,0.00,10.35,-11.34,-38.89,11.90,3.30,-4.59,53.51,-52.21,16.16,61.07,1234,1374,1424,1292,1332,1498,1521,11204,720
191184,0,53.01,-4.60,-2.26,0.204,-0.025,1.027,0.00,0.00,9.67,-11.46,-43.34,-6.86,3.28,-4.61,53.62,-53.79,-15.74,59.27,1234,1374,1424,1292,1332,1499,1521,11220,720
191196,0,53.73,-9.99,-1.82,0.091,-0.075,1.052,0.00,0.00,9.00,-11.52,-44.73,-1.53,3.26,-4.64,53.73,-56.80,33.65,58.27,1234,1374,1424,1292,1332,1499,1521,11241,720
191208,0,56.14,-15.75,-1.97,0.027,-0.123,1.077,0.00,0.00,8.31,-11.27,-47.84,4.48,3.23,-4.66,53.85,-61.12,39.37,58.77,1234,1374,1424,1292,1332,1499,1521,11254,720
191220,0,55.07,-5.09,-2.34,-0.037,-0.171,1.092,0.00,0.00,7.68,-11.07,-47.39,-5.99,3.20,-4.68,53.96,-59.23,4.70,59.81,1210,1380,1404,1334,1332,1499,1521,11254,711
191232,0,50.35,-2.66,-2.48,0.013,-0.208,1.095,0.00,0.00,7.17,-11.03,-43.18,-8.37,3.18,-4.72,54.06,-51.16,13.84,60.27,1210,1380,1404,1334,1332,1499,1521,11274,711
191244,0,45.63,-9.55,-0.05,0.162,-0.239,0.978,0.00,0.00,6.68,-11.03,-38.95,-1.48,3.15,-4.74,54.11,-40.98,26.87,54.24,1210,1380,1404,1334,1332,1499,1521,11262,711
191256,0,39.82,-3.30,1.86,0.257,-0.277,0.845,0.00,0.00,6.28,-11.31,-33.54,-8.01,3.12,-4.76,54.13,-30.45,-4.66,49.49,1210,1380,1404,1334,1332,1499,1521,11287,711
191268,0,33.50,7.25,1.95,0.221,-0.280,0.852,0.00,0.00,5.90,-11.87,-27.60,-19.12,3.10,-4.81,54.15,-20.83,-22.86,49.28,1210,1380,1404,1334,1332,1499,1521,11258,711
191280,0,34.05,7.60,0.75,0.179,-0.264,0.881,0.00,0.00,5.43,-12.37,-28.62,-19.98,3.08,-4.85,54.18,-21.98,-17.12,52.32,1210,1380,1404,1334,1332,1499,1521,11220,711
191292,0,32.78,4.25,0.25,0.097,-0.217,0.837,0.00,0.00,4.89,-12.68,-27.89,-16.93,3.05,-4.90,54.19,-17.42,-3.77,53.56,1210,1380,1404,1334,1332,1499,1521,11220,711
191304,0,25.35,8.52,-1.34,-0.030,-0.172,0.932,0.00,0.00,4.37,-12.81,-20.98,-21.33,3.02,-4.94,54.21,-3.53,-23.40,57.57,1210,1380,1404,1334,1332,1499,1521,11220,711
191316,0,16.66,11.19,-1.31,-0.207,-0.133,1.103,0.00,0.00,3.79,-12.79,-12.87,-23.99,3.00,-5.00,54.24,15.33,-13.46,57.52,1247,1387,1391,1303,1332,1499,1521,11270,711
191328,0,14.10,15.10,-1.09,-0.288,-0.166,1.242,0.00,0.00,3.19,-12.69,-10.91,-27.78,2.97,-5.07,54.29,21.12,-15.47,57.00,1247,1387,1391,1303,1332,1499,1521,11270,711
191340,0,17.77,5.73,1.11,-0.310,-0.172,1.214,0.00,0.00,2.61,-12.39,-15.16,-18.12,2.94,-5.12,54.29,11.20,10.20,51.52,1247,1387,1391,1303,1332,1499,1521,11241,711
191352,0,16.46,-4.67,1.16,-0.198,-0.170,1.179,0.00,0.00,2.07,-11.92,-14.39,-7.25,2.91,-5.14,54.27,10.17,12.74,51.37,1247,1387,1391,1303,1332,1499,1521,11233,711
191364,0,14.40,-2.64,0.03,-0.121,-0.105,1.223,0.00,0.00,1.58,-11.61,-12.82,-8.97,2.88,-5.17,54.26,11.84,6.21,54.18,1247,1387,1391,1303,1332,1499,1521,11233,711
191376,0,12.52,-9.30,0.40,0.020,-0.043,1.174,0.00,0.00,1.17,-11.29,-11.35,-1.99,2.86,-5.17,54.21,14.57,7.72,53.22,1247,1387,1391,1303,1332,1499,1521,11237,711
191388,0,7.45,-35.09,2.37,0.195,-0.029,0.943,0.00,0.00,0.87,-10.87,-6.58,24.22,2.84,-5.14,54.14,24.43,63.98,48.20,1247,1387,1391,1303,1332,1499,1521,11241,711
191400,0,4.85,-40.23,2.16,0.287,-0.013,0.800,0.00,0.00,0.59,-10.37,-4.26,29.85,2.82,-5.07,54.05,29.70,33.90,48.64,1247,1387,1391,1303,1332,1499,1521,11254,711
191412,0,7.37,-28.81,0.76,0.260,-0.005,0.832,0.00,0.00,0.26,-9.96,-7.11,18.85,2.80,-5.01,53.97,24.29,-24.78,52.08,1247,1387,1391,1303,1332,1499,1521,11266,711
191424,0,14.70,-32.26,0.90,0.239,0.037,0.831,0.00,0.00,-0.22,-9.57,-14.93,22.69,2.77,-4.96,53.90,11.62,-3.66,51.64,1265,1409,1351,1303,1332,1499,1521,11254,711
191436,0,20.37,-38.77,1.10,0.238,0.074,0.800,0.00,0.00,-0.84,-9.04,-21.21,29.73,2.74,-4.89,53.83,4.66,8.84,51.09,1265,1409,1351,1303,1332,1499,1521,11245,711
191448,0,22.17,-26.16,0.24,0.212,0.115,0.873,0.00,0.00,-1.50,-8.54,-23.67,17.62,2.71,-4.82,53.76,5.08,-42.03,53.16,1265,1409,1351,1303,1332,1499,1521,11229,711
191460,0,20.43,-12.80,-0.76,0.150,0.156,0.983,0.00,0.00,-2.18,-8.30,-22.61,4.50,2.68,-4.79,53.72,12.35,-55.97,55.62,1265,1409,1351,1303,1332,1498,1522,11229,711
191472,0,18.03,-8.06,-1.10,0.088,0.146,1.069,0.00,0.00,-2.81,-8.12,-20.84,-0.07,2.64,-4.77,53.71,19.73,-40.75,56.46,1265,1409,1351,1303,1332,1498,1522,11195,711
191484,0,14.07,-15.84,0.04,0.127,0.096,1.019,0.00,0.00,-3.42,-7.86,-17.49,7.98,2.61,-4.75,53.68,30.48,-7.71,53.58,1265,1409,1351,1303,1332,1498,1522,11216,711
191496,0,13.14,-9.86,-0.80,0.130,0.058,1.034,0.00,0.00,-3.99,-7.63,-17.13,2.23,2.57,-4.73,53.66,30.79,-33.81,55.66,1265,1409,1351,1303,1332,1499,1522,11187,711
191508,0,17.91,-0.60,-2.00,0.034,0.031,1.122,0.00,0.00,-4.56,-7.43,-22.47,-6.83,2.53,-4.72,53.66,19.71,-57.90,58.66,1265,1409,1351,1303,1332,1499,1521,11224,711
191520,0,23.78,-3.29,-2.10,-0.005,0.016,1.136,0.00,0.00,-5.17,-7.17,-28.95,-3.89,2.49,-4.71,53.68,8.29,-32.98,58.93,1329,1395,1367,1237,1332,1499,1521,11274,711
191532,0,26.03,-8.95,-2.57,0.012,0.022,1.092,0.00,0.00,-5.78,-6.81,-31.81,2.14,2.45,-4.70,53.69,4.75,-18.31,60.11,1329,1395,1367,1237,1332,1499,1521,11258,711
191544,0,25.04,-9.96,-3.57,0.044,0.052,1.102,0.00,0.00,-6.36,-6.45,-31.40,3.51,2.40,-4.68,53.71,8.18,-21.84,62.63,1329,1395,1367,1237,1332,1499,1521,11274,711
191556,0,20.78,-11.13,-3.61,0.043,0.062,1.159,0.00,0.00,-6.89,-6.14,-27.67,4.99,2.36,-4.65,53.75,17.64,-16.11,62.78,1329,1395,1367,1237,1332,1499,1521,11245,711
191568,0,16.71,-15.34,-2.62,0.032,0.050,1.148,0.00,0.00,-7.43,-5.76,-24.14,9.58,2.31,-4.63,53.79,27.46,-4.04,60.34,1329,1395,1367,1237,1332,1499,1521,11274,711
191580,0,13.79,-14.07,-2.97,0.055,-0.007,1.113,0.00,0.00,-7.94,-5.37,-21.72,8.70,2.27,-4.60,53.83,31.36,-12.46,61.24,1329,1395,1367,1237,1332,1499,1521,11283,711
191592,0,16.91,-4.86,-4.00,-0.047,-0.054,1.212,0.00,0.00,-8.45,-4.98,-25.36,-0.13,2.22,-4.57,53.88,22.55,-43.96,63.87,1329,1395,1367,1237,1332,1499,1521,11274,711
191604,0,25.43,-6.90,-3.44,-0.148,-0.063,1.274,0.00,0.00,-9.05,-4.55,-34.47,2.36,2.17,-4.56,53.93,4.92,-20.68,62.54,1329,1395,1367,1237,1332,1499,1521,11283,711
191616,0,31.54,-8.03,-3.33,-0.176,-0.053,1.274,0.00,0.00,-9.69,-4.10,-41.23,3.93,2.12,-4.55,53.98,-6.32,-0.92,62.30,1276,1400,1388,1264,1332,1499,1521,11262,711
191628,0,32.74,-2.20,-4.19,-0.234,-0.058,1.346,0.00,0.00,-10.30,-3.73,-43.03,-1.54,2.07,-4.55,54.04,-8.23,-8.21,64.50,1276,1400,1388,1264,1332,1499,1521,11229,711
191640,0,32.25,-8.79,-3.07,-0.339,-0.045,1.408,0.00,0.00,-10.92,-3.30,-43.17,5.49,2.01,-4.56,54.09,-4.48,30.26,61.76,1276,1400,1388,1264,1332,1499,1521,11220,711
191652,0,30.19,-21.42,-1.44,-0.301,-0.079,1.339,0.00,0.00,-11.53,-2.63,-41.71,18.78,1.96,-4.53,54.11,1.56,57.44,57.72,1276,1400,1388,1264,1332,1499,1521,11220,711
191664,0,27.91,-24.51,-1.26,-0.178,-0.145,1.225,0.00,0.00,-12.07,-1.92,-39.98,22.59,1.90,-4.50,54.12,5.42,43.62,57.28,1276,1400,1388,1264,1332,1499,1521,11237,711
191676,0,28.71,-20.06,-1.56,-0.162,-0.204,1.211,0.00,0.00,-12.59,-1.30,-41.30,18.76,1.84,-4.46,54.13,1.94,22.68,58.04,1276,1400,1388,1264,1332,1499,1521,11229,711
191688,0,32.60,-24.10,-1.77,-0.112,-0.222,1.169,0.00,0.00,-13.10,-0.68,-45.70,23.43,1.78,-4.42,54.14,-6.20,36.86,58.56,1276,1400,1388,1264,1326,1499,1527,11233,711
191700,0,34.12,-26.75,-1.39,-0.021,-0.228,1.097,0.00,0.00,-13.57,-0.03,-47.69,26.72,1.72,-4.36,54.14,-9.07,20.12,57.62,1276,1400,1388,1264,1326,1499,1527,11220,711
191712,0,31.87,-29.33,-0.00,-0.041,-0.248,1.077,0.00,0.00,-14.00,0.56,-45.87,29.90,1.66,-4.30,54.12,-3.52,27.97,54.12,1276,1400,1388,1264,1326,1499,1527,11220,711
191724,0,29.53,-33.84,-0.49,-0.021,-0.295,1.073,0.00,0.00,-14.40,1.15,-43.93,35.00,1.60,-4.24,54.13,2.45,52.50,55.36,1321,1413,1335,1235,1331,1499,1522,11220,711
191736,0,28.03,-33.76,0.56,0.025,-0.329,1.011,0.00,0.00,-14.82,1.74,-42.85,35.50,1.53,-4.17,54.12,9.50,36.36,52.71,1321,1413,1335,1235,1331,1498,1522,11224,711
191748,0,26.41,-27.41,0.57,0.089,-0.364,0.961,0.00,0.00,-15.29,2.09,-41.70,29.50,1.46,-4.10,54.10,15.57,15.52,52.68,1321,1413,1335,1235,1332,1498,1521,11224,711
191760,0,29.44,-30.40,0.91,0.121,-0.353,0.901,0.00,0.00,-15.88,2.39,-45.33,32.79,1.39,-4.03,54.06,11.69,29.27,51.78,1321,1413,1335,1235,1332,1498,1521,11258,711
191772,0,35.77,-29.40,1.56,0.225,-0.310,0.859,0.00,0.00,-16.70,2.76,-52.48,32.16,1.31,-3.94,53.99,4.40,-6.66,50.10,1321,1413,1335,1235,1332,1498,1521,11266,711
191784,0,41.27,-21.68,4.91,0.304,-0.218,0.771,0.00,0.00,-17.70,2.81,-58.98,24.50,1.23,-3.85,53.87,-1.24,-47.17,41.58,1321,1413,1335,1235,1333,1498,1521,11266,711
191796,0,43.80,-15.90,6.79,0.396,-0.119,0.725,0.00,0.00,-18.84,2.43,-62.64,18.32,1.15,-3.79,53.74,-4.57,-31.05,36.77,1321,1413,1335,1235,1333,1498,1521,11254,711
191808,0,48.56,-8.60,6.14,0.410,-0.049,0.757,0.00,0.00,-20.00,1.79,-68.57,10.39,1.06,-3.76,53.66,-15.23,-12.19,38.32,1321,1413,1335,1235,1332,1498,1521,11279,711
191820,0,51.23,-5.14,7.12,0.331,-0.028,0.757,0.00,0.00,-21.11,1.22,-72.34,6.36,0.98,-3.75,53.55,-22.09,-1.73,35.75,1271,1397,1359,1301,1332,1499,1521,11262,711
191832,0,53.01,-24.39,7.35,0.468,-0.034,0.634,0.00,0.00,-22.12,0.73,-75.14,25.12,0.89,-3.71,53.41,-27.95,52.80,35.04,1271,1397,1359,1301,1332,1499,1521,11283,711
191844,0,56.61,-24.69,6.54,0.641,-0.033,0.554,0.00,0.00,-23.10,-0.01,-79.71,24.68,0.80,-3.67,53.29,-34.20,26.03,36.94,1271,1397,1359,1301,1332,1499,1521,11254,711
191856,0,52.57,5.03,2.97,0.558,0.067,0.607,0.00,0.00,-24.17,-1.15,-76.74,-6.18,0.72,-3.65,53.17,-25.03,-70.97,45.74,1271,1397,1359,1301,1332,1499,1521,11279,711
191868,0,48.75,20.54,3.45,0.414,0.064,0.690,0.00,0.00,-25.06,-2.45,-73.82,-22.99,0.63,-3.69,53.05,-21.64,-63.08,44.43,1271,1397,1359,1301,1332,1499,1521,11254,711
191880,0,43.45,17.69,4.73,0.362,0.085,0.704,0.00,0.00,-25.86,-3.55,-69.31,-21.23,0.55,-3.73,52.92,-12.11,-32.27,41.11,1271,1397,1359,1301,1332,1499,1521,11249,711
191892,0,37.03,10.66,5.26,0.324,0.070,0.730,0.00,0.00,-26.53,-4.39,-63.56,-15.04,0.47,-3.76,52.78,-1.22,-15.70,39.64,1271,1397,1359,1301,1332,1499,1521,11220,711
191904,0,33.32,-6.98,5.02,0.411,0.075,0.672,0.00,0.00,-27.12,-4.94,-60.45,2.04,0.39,-3.75,52.61,4.00,3.01,40.06,1271,1397,1359,1301,1332,1499,1521,11220,711
191916,0,30.96,-9.76,4.58,0.515,0.095,0.633,0.00,0.00,-27.65,-5.62,-58.62,4.14,0.31,-3.72,52.41,5.73,-15.92,40.96,1272,1382,1362,1312,1332,1499,1521,11204,711
191928,0,30.95,-12.79,4.43,0.610,0.125,0.630,0.00,0.00,-28.16,-6.42,-59.11,6.37,0.23,-3.70,52.19,3.41,-18.88,41.10,1272,1382,1362,1312,1332,1499,1521,11200,711
191940,0,26.61,1.16,5.70,0.576,0.163,0.688,0.00,0.00,-28.68,-7.49,-55.29,-8.65,0.16,-3.69,51.94,10.32,-54.22,37.70,1272,1382,1362,1312,1332,1499,1521,11212,711
191952,0,17.78,6.18,6.82,0.518,0.179,0.766,0.00,0.00,-29.14,-8.70,-46.91,-14.87,0.09,-3.73,51.69,21.39,-21.76,34.65,1272,1382,1362,1312,1332,1499,1521,11216,711
191964,0,12.53,20.79,5.77,0.266,0.127,0.959,0.00,0.00,-29.45,-9.75,-41.98,-30.54,0.02,-3.80,51.49,20.61,-31.17,37.06,1272,1382,1362,1312,1332,1499,1521,11216,711
191976,0,12.63,16.05,6.37,0.039,0.061,1.039,0.00,0.00,-29.73,-10.29,-42.37,-26.34,-0.04,-3.87,51.30,12.38,-4.02,35.36,1272,1382,1362,1312,1332,1499,1521,11216,711
191988,0,13.24,-1.74,6.95,0.021,0.011,0.973,0.00,0.00,-29.98,-10.37,-43.23,-8.62,-0.10,-3.91,51.09,6.06,27.46,33.70,1272,1382,1362,1312,1332,1499,1521,11241,711
192000,0,13.77,-12.56,6.96,0.099,-0.007,0.857,0.00,0.00,-30.13,-10.31,-43.90,2.25,-0.16,-3.92,50.87,-0.74,38.91,33.46,1272,1382,1362,1312,1332,1499,1520,11208,711
192012,0,10.76,-11.72,6.85,0.098,-0.028,0.849,0.00,0.00,-30.11,-10.18,-40.87,1.54,-0.21,-3.91,50.63,-1.23,4.44,33.50,1272,1382,1362,1312,1332,1499,1520,11224,711
192024,0,5.24,-21.46,7.05,0.078,-0.076,0.840,0.00,0.00,-29.96,-9.98,-35.21,11.49,-0.26,-3.91,50.41,5.39,44.99,32.78,1322,1378,1334,1294,1332,1499,1521,11220,711
192036,0,3.72,-23.77,6.73,0.091,-0.121,0.878,0.00,0.00,-29.74,-9.68,-33.46,14.09,-0.31,-3.90,50.22,7.04,45.70,33.40,1322,1378,1334,1294,1332,1499,1521,11254,711
192048,0,5.08,-18.49,8.11,0.029,-0.139,0.916,0.00,0.00,-29.52,-9.40,-34.60,9.09,-0.37,-3.89,50.02,4.66,27.43,29.73,1322,1378,1334,1294,1332,1499,1521,11266,711
192060,0,4.19,-17.21,8.71,0.025,-0.162,0.925,0.00,0.00,-29.33,-9.11,-33.52,8.10,-0.41,-3.89,49.79,5.07,21.42,28.01,1322,1378,1334,1294,1332,1499,1521,11241,711
192072,0,6.31,-9.25,8.02,-0.014,-0.162,1.018,0.00,0.00,-29.22,-8.94,-35.53,0.31,-0.46,-3.90,49.59,-1.54,8.93,29.54,1322,1378,1334,1294,1332,1499,1521,11241,711
192084,0,11.45,-6.46,7.67,-0.027,-0.132,1.090,0.00,0.00,-29.17,-8.77,-40.62,-2.32,-0.51,-3.92,49.38,-14.08,15.52,30.19,1322,1378,1334,1294,1331,1499,1522,11237,711
192096,0,16.20,9.76,7.44,-0.091,-0.098,1.218,0.00,0.00,-29.15,-8.67,-45.35,-18.42,-0.56,-3.95,49.17,-26.36,-40.32,30.56,1322,1378,1334,1294,1331,1498,1522,11241,711
192108,0,18.95,18.81,8.79,-0.364,-0.036,1.379,0.00,0.00,-29.10,-8.57,-48.05,-27.38,-0.60,-4.01,48.96,-35.83,-44.84,26.98,1322,1378,1334,1294,1331,1498,1522,11254,711
192120,0,16.68,-20.87,11.84,-0.331,-0.025,1.235,0.00,0.00,-28.96,-7.93,-45.64,12.94,-0.64,-4.02,48.75,-36.84,86.92,19.14,1345,1285,1453,1241,1332,1498,1521,11266,711
192132,0,14.46,-38.43,12.35,-0.135,-0.011,1.118,0.00,0.00,-28.71,-6.98,-43.17,31.45,-0.68,-3.99,48.54,-38.10,97.69,17.66,1345,1285,1453,1241,1332,1498,1521,11279,711
192144,0,13.21,-50.52,12.71,0.116,0.026,0.975,0.00,0.00,-28.43,-5.92,-41.64,44.60,-0.71,-3.92,48.28,-37.17,85.12,16.51,1345,1285,1453,1241,1332,1498,1521,11291,711
192156,0,7.92,-47.79,11.45,0.448,0.061,0.757,0.00,0.00,-28.16,-5.23,-36.07,42.56,-0.75,-3.81,47.99,-26.57,23.17,19.35,1345,1285,1453,1241,1332,1499,1521,11254,711
192168,0,-3.17,-13.86,8.19,0.489,0.064,0.743,0.00,0.00,-27.83,-5.46,-24.67,8.40,-0.77,-3.76,47.71,-6.05,-73.91,27.24,1345,1285,1453,1241,1332,1499,1521,11241,711
192180,0,-13.30,16.15,4.02,0.189,0.038,0.911,0.00,0.00,-27.40,-6.06,-14.11,-22.21,-0.80,-3.79,47.51,9.00,-90.96,37.46,1345,1285,1453,1241,1332,1499,1520,11258,711
192192,0,-17.14,22.18,1.37,-0.144,-0.028,1.076,0.00,0.00,-26.87,-6.34,-9.72,-28.52,-0.82,-3.84,47.38,11.92,-49.98,43.96,1345,1285,1453,1241,1332,1499,1520,11258,711
192204,0,-18.44,11.97,1.04,-0.207,-0.074,1.141,0.00,0.00,-26.31,-6.08,-7.86,-18.05,-0.83,-3.86,47.24,15.08,-37.74,44.64,1345,1285,1453,1241,1332,1499,1520,11220,711
192216,0,-21.34,21.44,1.68,-0.223,-0.044,1.279,0.00,0.00,-25.77,-5.83,-4.42,-27.26,-0.85,-3.88,47.10,20.24,-90.93,42.89,1180,1444,1304,1400,1332,1499,1520,11237,708
192228,0,-25.36,21.02,3.82,-0.356,-0.018,1.381,0.00,0.00,-25.26,-5.64,0.09,-26.66,-0.87,-3.91,46.96,25.07,-66.62,37.41,1180,1444,1304,1400,1332,1499,1520,11224,708
192240,0,-28.97,-8.46,7.51,-0.318,-0.065,1.210,0.00,0.00,-24.73,-5.06,4.24,3.40,-0.88,-3.91,46.76,27.19,25.84,27.97,1180,1444,1304,1400,1332,1499,1521,11237,708
192252,0,-31.16,-22.71,8.67,-0.106,-0.118,1.026,0.00,0.00,-24.15,-4.28,7.02,18.43,-0.89,-3.87,46.53,27.12,29.90,24.86,1180,1444,1304,1400,1332,1499,1521,11220,708
192264,0,-34.57,-16.36,7.12,0.037,-0.153,0.990,0.00,0.00,-23.39,-3.79,11.18,12.56,-0.89,-3.82,46.32,25.77,-11.65,28.51,1180,1444,1304,1400,1332,1499,1521,11216,708
192276,0,-34.69,-13.97,6.08,0.077,-0.169,1.039,0.00,0.00,-22.64,-3.57,12.05,10.39,-0.89,-3.80,46.13,21.61,-4.04,30.93,1180,1444,1304,1400,1332,1499,1521,11220,708
192288,0,-32.15,-14.86,7.18,0.101,-0.164,1.009,0.00,0.00,-21.96,-3.42,10.18,11.44,-0.89,-3.77,45.93,14.60,5.27,27.97,1180,1444,1304,1400,1332,1499,1521,11254,708
192300,0,-28.36,-12.34,8.17,0.049,-0.149,0.986,0.00,0.00,-21.29,-3.31,7.06,9.03,-0.89,-3.75,45.71,2.63,4.63,25.28,1180,1444,1304,1400,1332,1499,1521,11274,708
192312,0,-25.16,-15.44,8.23,0.054,-0.158,0.968,0.00,0.00,-20.54,-3.22,4.62,12.21,-0.88,-3.75,45.49,-10.31,33.67,24.92,1180,1444,1304,1400,1332,1499,1521,11254,708
192324,0,-20.31,-16.23,7.65,0.111,-0.156,0.962,0.00,0.00,-19.67,-3.11,0.64,13.12,-0.87,-3.74,45.28,-26.47,38.62,26.15,1278,1408,1312,1330,1332,1499,1521,11254,708
192336,0,-15.45,-8.62,7.95,0.133,-0.143,0.980,0.00,0.00,-18.75,-3.03,-3.30,5.58,-0.85,-3.73,45.06,-38.17,1.66,25.19,1278,1408,1312,1330,1332,1499,1521,11241,708
192348,0,-13.75,-3.41,9.21,0.118,-0.094,1.024,0.00,0.00,-17.77,-3.05,-4.02,0.36,-0.84,-3.73,44.80,-42.03,-13.56,21.78,1278,1408,1312,1330,1332,1499,1521,11224,708
192360,0,-15.18,-9.42,11.35,0.166,-0.031,0.980,0.00,0.00,-16.80,-3.09,-1.62,6.33,-0.82,-3.72,44.52,-39.19,9.95,16.14,1278,1408,1312,1330,1331,1499,1521,11229,708
192372,0,-20.83,-16.13,11.99,0.321,0.015,0.845,0.00,0.00,-15.80,-3.27,5.03,12.86,-0.79,-3.70,44.22,-28.94,25.39,14.24,1278,1408,1312,1330,1331,1499,1521,11237,708
192384,0,-26.05,-2.34,10.66,0.325,0.078,0.841,0.00,0.00,-14.84,-3.76,11.21,-1.42,-0.77,-3.71,43.93,-18.41,-8.54,17.27,1278,1408,1312,1330,1332,1499,1521,11237,708
192396,0,-31.11,17.44,8.27,0.086,0.107,0.958,0.00,0.00,-13.90,-4.32,17.21,-21.77,-0.74,-3.76,43.66,-7.11,-30.23,23.00,1278,1408,1312,1330,1332,1499,1521,11233,708
192408,0,-36.16,20.79,6.04,-0.150,0.090,1.053,0.00,0.00,-12.88,-4.50,23.28,-25.30,-0.70,-3.82,43.41,3.40,-26.42,28.31,1278,1408,1312,1330,1332,1499,1521,11200,708
192420,0,-39.60,3.76,5.38,-0.090,0.064,1.036,0.00,0.00,-11.76,-4.24,27.84,-8.00,-0.67,-3.83,43.15,9.60,-5.90,29.71,1404,1326,1360,1238,1332,1498,1521,11212,711
192432,0,-39.60,-6.23,6.98,0.153,0.080,1.013,0.00,0.00,-10.63,-3.97,28.96,2.26,-0.63,-3.79,42.85,10.68,-34.61,25.41,1404,1326,1360,1238,1332,1498,1521,11191,711
192444,0,-42.62,-0.52,9.93,0.293,0.118,0.930,0.00,0.00,-9.61,-4.21,33.01,-3.69,-0.60,-3.77,42.48,19.51,-63.34,17.65,1404,1326,1360,1238,1332,1498,1522,11204,711
192456,0,-50.53,12.33,10.56,0.212,0.124,0.915,0.00,0.00,-8.66,-4.91,41.87,-17.24,-0.56,-3.80,42.09,35.75,-47.41,15.69,1404,1326,1360,1238,1332,1498,1522,11175,711
192468,0,-57.72,20.98,9.53,-0.017,0.094,1.031,0.00,0.00,-7.68,-5.56,50.04,-26.54,-0.52,-3.88,41.75,46.27,-11.57,17.91,1404,1326,1360,1238,1332,1498,1522,11195,711
192480,0,-59.13,18.92,9.77,-0.184,0.059,1.154,0.00,0.00,-6.70,-5.83,52.43,-24.75,-0.48,-3.95,41.43,45.53,10.91,17.00,1404,1326,1360,1238,1332,1499,1521,11220,711
192492,0,-55.17,3.16,12.49,-0.151,0.001,1.094,0.00,0.00,-5.73,-5.60,49.44,-8.75,-0.43,-3.97,41.09,35.98,18.19,9.87,1404,1326,1360,1238,1332,1499,1521,11204,711
192504,0,-50.21,-3.46,14.47,-0.003,-0.071,0.920,0.00,0.00,-4.76,-5.26,45.45,-1.81,-0.39,-3.96,40.68,26.05,-17.30,4.50,1404,1326,1360,1238,1331,1499,1520,11220,711
192516,0,-46.70,2.66,14.18,0.087,-0.144,0.834,0.00,0.00,-3.72,-5.33,42.98,-7.99,-0.35,-3.94,40.27,19.23,-56.41,4.82,1252,1372,1298,1402,1331,1499,1520,11187,711
192528,0,-41.44,9.37,12.38,0.087,-0.161,0.890,0.00,0.00,-2.71,-5.82,38.72,-15.19,-0.30,-3.96,39.91,9.28,-39.71,8.95,1252,1372,1298,1402,1331,1499,1520,11162,711
192540,0,-30.40,-13.69,12.73,0.131,-0.108,0.894,0.00,0.00,-1.77,-6.17,28.64,7.52,-0.26,-4.00,39.57,-13.89,95.47,7.75,1252,1372,1298,1402,1304,1499,1520,11170,711
192552,0,-25.09,-18.21,14.40,0.255,-0.046,0.805,0.00,0.00,-0.91,-6.37,24.18,11.84,-0.22,-4.02,39.20,-17.21,79.66,3.21,1252,1372,1298,1402,1304,1499,1520,11137,711
192564,0,-23.69,-1.99,15.25,0.369,0.003,0.748,0.00,0.00,-0.10,-6.96,23.59,-4.97,-0.18,-4.04,38.82,-13.91,4.92,0.70,1252,1372,1298,1402,1302,1499,1520,11162,711
192576,0,-23.11,23.15,14.07,0.263,0.051,0.858,0.00,0.00,0.71,-7.98,23.81,-31.13,-0.14,-4.11,38.48,-11.30,-41.50,3.31,1252,1372,1298,1402,1302,1499,1520,11170,711
192588,0,-25.00,30.30,12.95,0.078,0.109,1.032,0.00,0.00,1.45,-8.92,26.45,-39.21,-0.10,-4.22,38.18,-3.44,-10.48,5.81,1252,1372,1298,1402,1300,1499,1521,11233,711
192600,0,-28.74,9.55,13.98,0.118,0.171,1.017,0.00,0.00,2.04,-9.44,30.79,-18.99,-0.06,-4.31,37.86,8.99,58.67,2.90,1252,1372,1298,1402,1300,1499,1521,11270,711
192612,0,-34.08,12.82,13.41,0.236,0.160,0.912,0.00,0.00,2.56,-9.85,36.63,-22.68,-0.02,-4.36,37.48,23.20,-2.60,3.95,1252,1372,1298,1402,1300,1499,1521,11254,711
192624,0,-38.62,40.29,9.55,0.154,0.079,0.938,0.00,0.00,3.13,-10.63,41.76,-50.93,0.01,-4.45,37.14,32.66,-97.44,13.26,1269,1307,1317,1307,1299,1499,1522,11262,711
192636,0,-39.68,45.91,6.34,-0.017,0.023,1.035,0.00,0.00,3.78,-11.40,43.47,-57.31,0.05,-4.55,36.87,34.04,-89.53,21.03,1269,1307,1317,1307,1299,1499,1522,11254,711
192648,0,-38.00,28.93,6.55,0.020,0.028,0.983,0.00,0.00,4.40,-11.88,42.40,-40.81,0.09,-4.64,36.60,30.67,-35.32,20.23,1269,1307,1317,1307,1299,1499,1522,11287,711
192660,0,-37.31,24.44,6.90,0.157,0.014,0.858,0.00,0.00,5.01,-12.41,42.33,-36.84,0.13,-4.71,36.31,29.83,-44.16,19.07,1269,1307,1317,1307,1300,1499,1521,11295,711
192672,0,-36.56,38.33,5.84,0.132,-0.021,0.874,0.00,0.00,5.66,-13.20,42.23,-51.53,0.17,-4.81,36.05,29.15,-82.51,21.45,1269,1307,1317,1307,1300,1499,1521,11283,711
192684,0,-35.02,44.63,5.30,0.001,-0.057,0.974,0.00,0.00,6.30,-13.96,41.32,-58.59,0.21,-4.93,35.81,28.74,-84.06,22.56,1269,1307,1317,1307,1300,1499,1521,11279,711
192696,0,-31.66,38.64,5.86,-0.061,-0.072,1.044,0.00,0.00,6.88,-14.46,38.54,-53.10,0.25,-5.03,35.58,26.20,-72.60,20.93,1269,1307,1317,1307,1300,1499,1521,11262,711
192708,0,-25.31,20.84,7.53,0.034,-0.054,0.968,0.00,0.00,7.37,-14.76,32.68,-35.60,0.28,-5.10,35.32,17.78,-35.33,16.50,1269,1307,1317,1307,1300,1499,1520,11258,711
192720,0,-20.58,16.41,8.39,0.130,-0.032,0.891,0.00,0.00,7.84,-15.17,28.41,-31.58,0.31,-5.17,35.06,11.44,-27.96,14.08,1373,1263,1355,1209,1301,1499,1520,11254,711
192732,0,-16.46,16.39,9.15,0.181,-0.003,0.836,0.00,0.00,8.28,-15.72,24.74,-32.11,0.34,-5.25,34.79,5.92,-22.93,11.90,1373,1263,1355,1209,1301,1499,1520,11249,711
192744,0,-14.49,18.04,9.76,0.214,0.007,0.790,0.00,0.00,8.67,-16.37,23.16,-34.41,0.37,-5.34,34.52,4.72,-16.80,10.12,1373,1263,1355,1209,1301,1499,1520,11241,711
192756,0,-12.20,27.47,9.59,0.163,0.022,0.840,0.00,0.00,9.01,-17.04,21.21,-44.51,0.40,-5.44,34.27,1.95,-42.44,10.29,1373,1263,1355,1209,1301,1498,1520,11254,711
192768,0,-7.27,40.15,8.86,0.079,0.043,0.933,0.00,0.00,9.21,-17.77,16.48,-57.91,0.43,-5.56,34.03,-4.78,-67.75,11.88,1373,1263,1355,1209,1301,1498,1521,11287,711
192780,0,-0.64,49.18,7.52,-0.016,0.031,1.051,0.00,0.00,9.34,-18.48,9.98,-67.65,0.45,-5.69,33.81,-14.86,-83.21,15.02,1373,1263,1355,1209,1301,1498,1521,11287,711
192792,0,8.08,43.81,6.62,-0.066,0.041,1.116,0.00,0.00,9.42,-19.03,1.33,-62.84,0.47,-5.82,33.61,-30.27,-62.40,17.06,1373,1263,1355,1209,1301,1498,1521,11304,711
192804,0,19.22,30.99,6.42,-0.046,0.105,1.135,0.00,0.00,9.37,-19.42,-9.85,-50.41,0.49,-5.94,33.42,-49.20,-24.03,17.36,1373,1263,1355,1209,1301,1499,1521,11274,711
192816,0,29.53,22.73,5.84,-0.042,0.154,1.159,0.00,0.00,9.22,-19.74,-20.30,-42.47,0.50,-6.05,33.25,-66.77,-0.24,18.65,1349,1385,1253,1217,1301,1499,1521,11266,711
192828,0,35.47,14.68,5.24,-0.036,0.157,1.173,0.00,0.00,9.07,-20.03,-26.40,-34.72,0.51,-6.17,33.12,-78.24,38.17,20.02,1349,1385,1253,1217,1288,1499,1534,11254,711
192840,0,35.52,8.13,4.85,-0.023,0.131,1.189,0.00,0.00,8.95,-20.13,-26.57,-28.26,0.53,-6.26,33.01,-79.27,41.35,20.88,1349,1385,1253,1217,1288,1499,1534,11270,711
192852,0,33.89,-1.50,4.87,0.067,0.095,1.128,0.00,0.00,8.87,-20.03,-25.02,-18.53,0.54,-6.33,32.89,-77.26,36.44,20.73,1349,1385,1253,1217,1288,1499,1534,11274,711
192864,0,31.82,-10.19,5.02,0.176,0.036,1.002,0.00,0.00,8.81,-19.78,-23.00,-9.60,0.55,-6.35,32.76,-72.73,12.81,20.21,1349,1385,1253,1217,1295,1499,1521,11274,711
192876,0,29.23,-10.25,4.54,0.226,-0.025,0.913,0.00,0.00,8.80,-19.62,-20.43,-9.36,0.57,-6.36,32.64,-66.18,-22.68,21.28,1349,1385,1253,1217,1295,1499,1521,11299,711
192888,0,27.20,-6.85,4.27,0.275,-0.056,0.832,0.00,0.00,8.78,-19.68,-18.42,-12.83,0.58,-6.37,32.51,-59.48,-40.82,21.84,1349,1385,1253,1217,1295,1499,1521,11279,711
192900,0,25.56,12.53,3.17,0.201,-0.062,0.885,0.00,0.00,8.70,-20.05,-16.86,-32.58,0.59,-6.41,32.40,-50.61,-88.19,24.48,1349,1385,1253,1217,1295,1499,1521,11308,711
192912,0,25.25,25.78,1.87,0.064,-0.100,0.995,0.00,0.00,8.57,-20.59,-16.68,-46.37,0.60,-6.50,32.33,-43.02,-86.78,27.65,1349,1385,1253,1217,1295,1499,1521,11308,711
192924,0,26.40,33.44,0.85,-0.088,-0.131,1.106,0.00,0.00,8.41,-21.10,-17.99,-54.54,0.60,-6.61,32.30,-40.40,-73.95,30.18,1160,1360,1282,1378,1295,1499,1521,11254,710
192936,0,26.14,37.47,0.51,-0.237,-0.121,1.194,0.00,0.00,8.19,-21.55,-17.95,-59.02,0.59,-6.75,32.30,-34.75,-58.71,31.03,1160,1360,1282,1378,1295,1499,1521,11254,710
192948,0,25.68,27.96,0.88,-0.314,-0.085,1.232,0.00,0.00,7.86,-21.80,-17.82,-49.76,0.59,-6.88,32.30,-27.76,-11.43,30.09,1160,1360,1282,1378,1295,1499,1521,11254,710
192960,0,22.97,13.12,1.38,-0.308,-0.049,1.218,0.00,0.00,7.46,-21.81,-15.51,-34.94,0.58,-6.99,32.29,-18.46,30.86,28.85,1160,1360,1282,1378,1295,1499,1521,11237,710
192972,0,16.81,-3.10,2.03,-0.246,-0.038,1.159,0.00,0.00,7.05,-21.63,-9.76,-18.54,0.57,-7.08,32.28,-4.69,70.34,27.21,1160,1360,1282,1378,1295,1499,1521,11237,710
192984,0,9.79,-12.85,2.28,-0.161,-0.038,1.080,0.00,0.00,6.66,-21.39,-3.14,-8.54,0.56,-7.16,32.26,9.94,94.69,26.57,1160,1360,1282,1378,1293,1499,1521,11254,710
192996,0,4.58,-10.10,1.88,-0.083,-0.046,1.030,0.00,0.00,6.37,-21.13,1.79,-11.03,0.55,-7.22,32.24,17.18,59.29,27.53,1160,1360,1282,1378,1293,1499,1521,11254,710
193008,0,1.52,-4.40,1.72,-0.041,-0.040,1.004,0.00,0.00,6.21,-20.86,4.68,-16.46,0.55,-7.27,32.21,18.50,11.51,27.90,1160,1360,1282,1378,1293,1499,1521,11287,710
193020,0,-1.68,-1.72,1.19,0.019,-0.058,0.933,0.00,0.00,6.19,-20.59,7.87,-18.87,0.54,-7.30,32.17,20.97,-22.92,29.19,1204,1376,1268,1324,1292,1499,1521,11270,711
193032,0,-5.06,-6.24,0.86,0.173,-0.061,0.782,0.00,0.00,6.29,-20.49,11.35,-14.25,0.54,-7.32,32.12,25.11,-20.60,29.98,1204,1376,1268,1324,1292,1499,1521,11274,711
193044,0,-9.80,-4.74,0.47,0.273,-0.052,0.702,0.00,0.00,6.43,-20.70,16.23,-15.96,0.55,-7.35,32.08,33.58,-23.89,30.92,1204,1376,1268,1324,1292,1499,1521,11291,711
193056,0,-12.47,-0.59,0.17,0.355,-0.023,0.657,0.00,0.00,6.47,-21.27,18.95,-20.67,0.55,-7.42,32.05,40.52,-10.34,31.63,1204,1376,1268,1324,1292,1499,1521,11291,711
193068,0,-13.89,-6.23,0.35,0.486,0.005,0.578,0.00,0.00,6.40,-22.10,20.29,-15.87,0.55,-7.48,32.01,46.13,29.52,31.14,1204,1376,1268,1324,1289,1499,1522,11299,711
193080,0,-16.51,-9.87,0.94,0.589,0.004,0.513,0.00,0.00,6.31,-23.10,22.83,-13.22,0.55,-7.55,31.95,51.77,37.25,29.60,1204,1376,1268,1324,1290,1498,1522,11308,711
193092,0,-17.10,-11.34,1.01,0.660,0.020,0.480,0.00,0.00,6.21,-24.17,23.31,-12.83,0.55,-7.60,31.89,52.20,26.12,29.37,1204,1376,1268,1324,1290,1498,1522,11291,711
193104,0,-15.26,-9.91,0.60,0.686,0.051,0.451,0.00,0.00,6.13,-25.29,21.39,-15.38,0.56,-7.65,31.83,45.05,10.02,30.34,1204,1376,1268,1324,1289,1498,1522,11270,711
193116,0,-12.02,-0.28,-0.55,0.589,0.088,0.517,0.00,0.00,6.09,-26.33,18.11,-26.05,0.57,-7.71,31.80,34.25,-32.25,33.17,1190,1320,1324,1322,1289,1498,1522,11270,711
193128,0,-10.03,7.52,-1.44,0.427,0.103,0.615,0.00,0.00,6.17,-27.18,16.20,-34.71,0.58,-7.77,31.80,23.69,-57.76,35.40,1190,1320,1324,1322,1289,1498,1522,11291,711
193140,0,-5.39,19.82,-2.48,0.193,0.133,0.790,0.00,0.00,6.29,-27.69,11.68,-47.51,0.59,-7.85,31.84,8.54,-84.85,38.03,1190,1320,1324,1322,1289,1499,1521,11274,711
193152,0,-1.04,27.92,-2.87,0.017,0.167,0.942,0.00,0.00,6.44,-27.94,7.48,-55.87,0.61,-7.96,31.90,-5.88,-83.15,39.07,1190,1320,1324,1322,1289,1499,1521,11279,711
193164,0,2.99,27.01,-2.65,-0.079,0.194,1.037,0.00,0.00,6.61,-28.03,3.62,-55.04,0.63,-8.08,31.99,-18.72,-63.76,38.62,1190,1320,1324,1322,1289,1499,1521,11266,711
193176,0,6.95,22.11,-2.32,-0.148,0.206,1.093,0.00,0.00,6.76,-27.94,-0.18,-50.06,0.65,-8.19,32.08,-30.33,-48.21,37.88,1190,1320,1324,1322,1289,1499,1521,11291,711
193188,0,-5.48,-8.54,0.45,-0.089,0.210,0.961,0.00,0.00,6.99,-27.61,12.47,-19.06,0.68,-8.27,32.16,-10.98,58.64,31.03,1190,1320,1324,1322,1289,1499,1521,11291,711
193200,0,-2.82,-16.93,2.15,0.055,0.283,0.749,0.00,0.00,7.06,-27.33,9.88,-10.40,0.71,-8.35,32.21,-24.86,69.22,26.85,1190,1320,1324,1322,1289,1499,1520,11291,711
193212,0,1.92,-13.33,1.95,0.071,0.260,0.760,0.00,0.00,6.99,-27.09,5.08,-13.77,0.74,-8.41,32.27,-32.68,39.43,27.41,1190,1320,1324,1322,1289,1499,1520,11291,711
193224,0,-0.91,-1.86,0.66,-0.052,0.212,0.868,0.00,0.00,6.97,-26.86,7.88,-25.00,0.77,-8.48,32.34,-29.74,-2.16,30.68,1172,1326,1332,1326,1289,1499,1520,11270,710
193236,0,-9.70,6.62,-0.60,-0.226,0.166,1.008,0.00,0.00,7.08,-26.57,16.78,-33.19,0.81,-8.56,32.41,-18.00,-28.07,33.90,1172,1326,1332,1326,1289,1499,1520,11283,710
193248,0,-17.44,14.15,-1.71,-0.359,0.152,1.173,0.00,0.00,7.28,-26.33,24.72,-40.47,0.85,-8.67,32.49,-6.61,-27.71,36.76,1172,1326,1332,1326,1289,1499,1520,11304,710
193260,0,-22.08,20.04,-2.59,-0.314,0.141,1.232,0.00,0.00,7.48,-26.29,29.56,-46.33,0.88,-8.79,32.57,2.67,-21.89,39.03,1172,1326,1332,1326,1289,1499,1520,11283,710
193272,0,-26.24,8.52,-2.42,-0.115,0.105,1.090,0.00,0.00,7.76,-26.24,34.00,-34.76,0.92,-8.89,32.63,11.73,10.80,38.67,1172,1326,1332,1326,1289,1499,1520,11304,710
193284,0,-29.63,-5.05,-1.74,0.079,0.091,0.852,0.00,0.00,8.06,-26.08,37.69,-21.03,0.96,-8.95,32.67,20.46,16.49,37.01,1172,1326,1332,1326,1289,1499,1520,11291,710
193296,0,-28.20,1.70,-1.89,0.139,0.160,0.812,0.00,0.00,8.20,-26.01,36.40,-27.71,0.99,-9.00,32.69,23.29,-35.51,37.41,1172,1326,1332,1326,1289,1499,1520,11308,710
193308,0,-22.72,4.17,-1.94,0.214,0.215,0.819,0.00,0.00,8.27,-26.07,30.99,-30.23,1.03,-9.07,32.72,16.76,-36.36,37.57,1172,1326,1332,1326,1289,1499,1521,11274,710
193320,0,-16.88,0.21,-2.41,0.164,0.215,0.816,0.00,0.00,8.46,-25.88,25.34,-26.10,1.06,-9.11,32.77,1.94,-46.75,38.81,1298,1330,1320,1208,1289,1499,1522,11316,711
193332,0,-5.84,22.53,-3.33,-0.092,0.256,1.037,0.00,0.00,8.71,-25.56,14.55,-48.09,1.10,-9.18,32.85,-24.46,-110.00,41.18,1298,1330,1320,1208,1289,1499,1522,11308,711
193344,0,0.66,37.07,-4.22,-0.303,0.230,1.293,0.00,0.00,9.01,-25.40,8.36,-62.47,1.14,-9.28,32.95,-39.21,-110.00,43.50,1298,1330,1320,1208,1289,1499,1522,11316,711
193356,0,-0.14,18.53,-3.08,-0.319,0.144,1.294,0.00,0.00,9.43,-25.25,9.57,-43.78,1.19,-9.39,33.05,-40.73,-24.93,40.74,1298,1330,1320,1208,1289,1499,1522,11291,711
193368,0,-9.70,-1.11,-1.59,-0.275,0.040,1.150,0.00,0.00,10.02,-24.86,19.73,-23.75,1.23,-9.46,33.12,-26.12,15.28,37.10,1298,1330,1320,1208,1290,1499,1521,11270,711
193380,0,-18.90,-5.12,-1.30,-0.257,0.007,1.070,0.00,0.00,10.70,-24.42,29.60,-19.31,1.28,-9.52,33.19,-11.38,0.67,36.43,1298,1330,1320,1208,1290,1498,1521,11270,711
193392,0,-27.00,-8.32,-1.53,-0.184,0.015,1.031,0.00,0.00,11.33,-24.12,38.32,-15.80,1.33,-9.58,33.27,5.95,17.49,37.09,1298,1330,1320,1208,1290,1498,1521,11258,711
193404,0,-33.74,-18.38,-1.94,-0.005,0.006,0.916,0.00,0.00,11.86,-23.87,45.61,-5.48,1.38,-9.63,33.36,24.13,52.39,38.20,1298,1330,1320,1208,1287,1498,1525,11220,711
193416,0,-37.12,-31.45,-2.22,0.178,-0.003,0.735,0.00,0.00,12.41,-23.58,49.53,7.87,1.43,-9.65,33.43,33.94,65.00,38.98,1281,1227,1423,1217,1287,1498,1525,11237,711
193428,0,-36.22,-22.36,-2.98,0.251,0.049,0.704,0.00,0.00,12.77,-23.36,48.99,-1.00,1.47,-9.66,33.50,39.10,8.06,40.94,1281,1227,1423,1217,1287,1498,1525,11229,711
193440,0,-32.72,0.07,-4.58,0.182,0.119,0.841,0.00,0.00,12.93,-23.31,45.65,-23.38,1.51,-9.70,33.60,39.88,-54.35,45.05,1281,1227,1423,1217,1300,1498,1521,11245,711
193452,0,-28.34,8.74,-5.51,0.094,0.157,0.967,0.00,0.00,13.01,-23.32,41.35,-32.06,1.55,-9.76,33.74,36.05,-59.86,47.51,1281,1227,1423,1217,1300,1498,1521,11262,711
193464,0,-22.86,9.91,-5.14,0.060,0.183,1.053,0.00,0.00,13.09,-23.27,35.94,-33.19,1.59,-9.82,33.90,26.65,-60.22,46.75,1281,1227,1423,1217,1301,1499,1521,11291,711
193476,0,-15.46,0.09,-4.08,0.015,0.191,1.025,0.00,0.00,13.20,-23.03,28.66,-23.11,1.62,-9.86,34.05,10.48,-41.59,44.24,1281,1227,1423,1217,1301,1499,1521,11274,711
193488,0,-7.55,3.60,-3.74,-0.097,0.207,1.066,0.00,0.00,13.35,-22.75,20.91,-26.35,1.66,-9.92,34.20,-7.96,-41.32,43.56,1281,1227,1423,1217,1302,1499,1521,11254,711
193500,0,-1.47,10.80,-3.29,-0.208,0.201,1.190,0.00,0.00,13.56,-22.47,15.02,-33.27,1.70,-10.00,34.36,-23.25,-48.07,42.59,1281,1227,1423,1217,1302,1499,1521,11279,711
193512,0,3.42,6.94,-2.96,-0.205,0.146,1.217,0.00,0.00,13.78,-22.22,10.36,-29.16,1.73,-10.00,34.50,-33.31,-13.66,41.91,1281,1227,1423,1217,1302,1499,1521,11258,711
193524,0,2.32,-0.69,-3.08,-0.111,0.016,1.127,0.00,0.00,14.06,-21.96,11.74,-21.27,1.77,-10.00,34.63,-29.49,17.08,42.32,1108,1396,1308,1396,1303,1499,1520,11274,710
193536,0,-4.99,-23.38,-2.13,0.072,-0.122,0.863,0.00,0.00,14.53,-21.58,19.51,1.80,1.81,-10.00,34.71,-15.82,62.69,40.03,1108,1396,1308,1396,1303,1499,1520,11291,710
193548,0,-11.85,-33.22,-1.58,0.151,-0.172,0.683,0.00,0.00,15.14,-21.19,26.99,12.03,1.85,-9.98,34.76,-4.06,42.64,38.70,1108,1396,1308,1396,1303,1499,1520,11291,710
193560,0,-15.96,-19.97,-1.95,0.138,-0.129,0.692,0.00,0.00,15.69,-21.03,31.66,-1.06,1.90,-9.99,34.81,2.34,-9.55,39.67,1108,1396,1308,1396,1303,1499,1520,11266,710
193572,0,-15.07,-14.36,-2.22,0.234,-0.075,0.667,0.00,0.00,16.09,-21.19,31.15,-6.83,1.94,-10.00,34.85,2.58,-14.55,40.39,1108,1396,1308,1396,1303,1499,1520,11270,710
193584,0,-15.44,-15.40,-2.86,0.378,-0.028,0.620,0.00,0.00,16.43,-21.57,31.87,-6.18,1.98,-10.00,34.88,6.85,-28.47,42.04,1108,1396,1308,1396,1303,1499,1520,11245,710
193596,0,-15.10,-3.42,-4.00,0.404,0.010,0.646,0.00,0.00,16.61,-22.17,31.71,-18.75,2.01,-10.00,34.92,10.92,-80.03,44.93,1108,1396,1308,1396,1303,1499,1520,11245,710
193608,0,-14.12,15.57,-4.20,0.266,0.082,0.805,0.00,0.00,16.51,-22.80,30.64,-38.37,2.05,-10.00,34.97,15.32,-110.00,45.47,1108,1396,1308,1396,1303,1499,1520,11266,710
193620,0,-13.76,24.70,-3.63,0.113,0.144,0.936,0.00,0.00,16.24,-23.29,30.00,-47.98,2.07,-10.00,35.04,22.16,-110.00,44.12,1295,1347,1337,1233,1303,1499,1520,11308,712
193632,0,-12.73,18.46,-2.26,0.123,0.140,0.936,0.00,0.00,15.97,-23.70,28.71,-42.16,2.10,-10.00,35.12,25.09,-77.79,40.76,1295,1347,1337,1233,1303,1499,1520,11274,712
193644,0,-14.06,9.91,-2.19,0.230,0.072,0.852,0.00,0.00,15.89,-24.14,29.95,-34.05,2.13,-10.00,35.21,29.53,-38.66,40.70,1295,1347,1337,1233,1309,1499,1521,11245,712
193656,0,-14.58,12.40,-2.93,0.314,0.045,0.821,0.00,0.00,15.94,-24.74,30.52,-37.13,2.16,-10.00,35.31,31.12,-29.46,42.63,1295,1347,1337,1233,1309,1499,1521,11237,712
193668,0,-11.12,25.84,-2.94,0.188,0.060,0.902,0.00,0.00,16.03,-25.35,27.15,-51.19,2.18,-10.00,35.39,23.44,-63.71,42.75,1295,1347,1337,1233,1310,1499,1521,11224,712
193680,0,-1.50,43.70,-3.60,-0.031,0.104,1.068,0.00,0.00,16.07,-25.87,17.57,-69.56,2.21,-10.00,35.47,1.91,-109.57,44.47,1295,1347,1337,1233,1311,1499,1521,11229,712
193692,0,8.69,42.25,-4.19,-0.132,0.129,1.212,0.00,0.00,16.09,-26.22,7.40,-68.47,2.24,-10.00,35.56,-22.20,-97.50,46.03,1295,1347,1337,1233,1311,1499,1521,11237,712
193704,0,11.28,15.22,-2.64,-0.058,0.073,1.194,0.00,0.00,16.06,-26.34,4.78,-41.56,2.26,-10.00,35.65,-27.76,-8.81,42.24,1295,1347,1337,1233,1315,1498,1520,11195,712
193716,0,5.38,-21.20,-0.92,0.143,-0.058,0.966,0.00,0.00,16.08,-26.16,10.69,-4.96,2.29,-10.00,35.71,-15.61,80.47,38.02,1372,1288,1418,1182,1315,1498,1520,11204,710
193728,0,-1.27,-52.06,-0.45,0.373,-0.164,0.674,0.00,0.00,16.24,-25.78,17.52,26.28,2.32,-9.98,35.72,-3.53,110.00,36.84,1372,1288,1418,1182,1327,1498,1520,11233,710
193740,0,-4.81,-24.53,-1.51,0.408,-0.183,0.717,0.00,0.00,16.47,-25.67,21.28,-1.15,2.35,-9.95,35.73,-1.49,-45.50,39.49,1372,1288,1418,1182,1328,1498,1521,11216,710
193752,0,-6.71,-14.19,0.25,0.323,-0.174,0.748,0.00,0.00,16.67,-25.80,23.38,-11.61,2.38,-9.93,35.70,-0.02,-100.28,35.07,1372,1288,1418,1182,1328,1498,1521,11220,710
193764,0,-9.28,-27.45,2.95,0.351,-0.137,0.651,0.00,0.00,16.82,-25.99,26.10,1.46,2.41,-9.90,35.64,5.31,-53.28,28.28,1372,1288,1418,1182,1328,1499,1521,11208,710
193776,0,-13.55,-47.50,2.06,0.555,-0.155,0.504,0.00,0.00,17.09,-26.32,30.64,21.18,2.44,-9.85,35.62,16.56,13.95,30.48,1372,1288,1418,1182,1328,1499,1521,11204,710
193788,0,-13.87,-25.36,-2.78,0.513,-0.142,0.607,0.00,0.00,17.35,-26.81,31.22,-1.45,2.47,-9.85,35.68,21.32,-31.62,42.63,1372,1288,1418,1182,1328,1499,1521,11229,710
193800,0,-12.76,-21.84,-3.80,0.416,-0.109,0.662,0.00,0.00,17.58,-27.14,30.34,-5.30,2.50,-9.85,35.79,23.02,-40.08,45.28,1372,1288,1418,1182,1328,1499,1520,11241,710
193812,0,-14.02,-18.43,-5.04,0.286,-0.097,0.752,0.00,0.00,17.74,-27.27,31.76,-8.84,2.53,-9.86,35.94,28.60,-32.57,48.55,1372,1288,1418,1182,1328,1499,1520,11258,710
193824,0,-14.01,-21.34,-6.72,0.235,-0.119,0.845,0.00,0.00,17.75,-27.15,31.76,-5.81,2.55,-9.88,36.11,33.46,-9.30,52.91,1277,1421,1321,1293,1328,1499,1520,11224,711
193836,0,-7.85,-15.70,-6.50,0.127,-0.150,0.957,0.00,0.00,17.67,-26.83,25.52,-11.13,2.57,-9.89,36.28,23.21,-41.19,52.53,1277,1421,1321,1293,1328,1499,1520,11204,711
193848,0,-4.02,-28.74,-4.54,0.087,-0.180,0.923,0.00,0.00,17.52,-26.22,21.53,2.52,2.58,-9.87,36.44,17.72,-18.19,47.79,1277,1421,1321,1293,1328,1499,1521,11212,711
193860,0,-3.36,-35.10,-6.39,0.221,-0.359,0.825,0.00,0.00,17.53,-25.90,20.89,9.20,2.60,-9.88,36.63,19.67,35.74,52.60,1277,1421,1321,1293,1322,1499,1527,11224,711
193872,0,15.44,-19.46,-7.47,0.148,-0.312,0.861,0.00,0.00,17.48,-25.59,2.04,-6.13,2.60,-9.90,36.84,-12.43,-12.31,55.50,1277,1421,1321,1293,1322,1499,1527,11237,711
193884,0,14.78,-17.14,-7.62,0.098,-0.227,0.945,0.00,0.00,17.34,-25.30,2.55,-8.17,2.61,-9.92,37.07,-9.24,-13.09,56.12,1277,1421,1321,1293,1328,1499,1521,11254,711
193896,0,9.85,-21.72,-8.32,0.087,-0.198,1.028,0.00,0.00,17.11,-24.97,7.26,-3.25,2.62,-9.94,37.33,2.28,18.16,58.14,1277,1421,1321,1293,1328,1499,1521,11229,711
193908,0,13.49,-29.06,-8.55,0.051,-0.186,1.055,0.00,0.00,16.75,-24.48,3.25,4.59,2.62,-9.97,37.62,-2.03,47.68,58.98,1277,1421,1321,1293,1328,1499,1521,11229,711
193920,0,18.19,-26.55,-7.15,-0.043,-0.152,1.063,0.00,0.00,16.29,-23.84,-1.91,2.71,2.62,-9.98,37.92,-8.81,29.17,55.81,1177,1423,1377,1335,1328,1499,1521,11233,711
193932,0,20.09,-23.36,-8.92,-0.154,-0.112,1.226,0.00,0.00,15.76,-23.16,-4.33,0.20,2.63,-10.00,38.27,-13.24,22.40,60.58,1177,1423,1377,1335,1328,1499,1521,11220,711
193944,0,21.38,-30.21,-10.88,-0.229,-0.096,1.301,0.00,0.00,15.19,-22.11,-6.19,8.10,2.63,-9.99,38.62,-15.57,21.24,65.81,1177,1423,1377,1335,1328,1499,1520,11187,711
193956,0,21.43,-51.39,-10.18,-0.169,-0.114,1.131,0.00,0.00,14.67,-20.76,-6.77,30.63,2.63,-9.95,38.98,-17.62,64.27,64.43,1177,1423,1377,1335,1328,1499,1520,11166,711
193968,0,24.32,-56.26,-13.22,-0.144,-0.157,1.084,0.00,0.00,14.20,-19.47,-10.12,36.79,2.63,-9.90,39.41,-24.68,83.06,72.46,1177,1423,1377,1335,1328,1499,1521,11170,711
193980,0,30.74,-33.06,-15.74,-0.237,-0.136,1.276,0.00,0.00,13.70,-18.14,-17.04,14.92,2.62,-9.86,39.86,-35.74,-13.71,79.20,1177,1423,1377,1335,1328,1499,1521,11145,711
193992,0,32.51,-39.55,-11.44,-0.441,-0.082,1.305,0.00,0.00,13.19,-16.42,-19.32,23.12,2.62,-9.78,40.25,-37.38,-28.12,68.85,1177,1423,1377,1335,1328,1499,1521,11187,711
194004,0,27.17,-74.50,-9.22,-0.154,-0.070,1.128,0.00,0.00,12.65,-14.67,-14.53,59.83,2.61,-9.69,40.66,-22.57,108.13,63.70,1177,1423,1377,1335,1328,1499,1521,11200,711
194016,0,33.33,-63.29,-9.18,-0.120,-0.064,1.045,0.00,0.00,12.09,-12.95,-21.24,50.35,2.60,-9.58,41.06,-31.93,47.08,64.00,1343,1375,1407,1187,1328,1499,1521,11204,711
194028,0,38.62,-68.33,-10.12,0.011,-0.056,0.985,0.00,0.00,11.49,-11.13,-27.12,57.20,2.59,-9.46,41.44,-39.36,39.40,66.73,1343,1375,1407,1187,1316,1499,1521,11204,711
194040,128,123.19,88.35,-21.79,-0.051,0.025,1.948,0.00,0.00,9.79,-11.62,-113.40,-99.97,2.50,-9.52,41.98,-110.00,-110.00,96.46,1343,1375,1407,1187,1311,1499,1521,11208,711
194052,128,166.62,3.20,-28.27,0.324,-0.364,1.668,0.00,0.00,6.49,-12.19,-160.13,-15.39,2.33,-9.56,42.91,-105.16,10.56,110.00,1343,1375,1407,1187,1311,1499,1521,11208,711
194064,128,214.15,175.16,-47.68,-0.170,-0.059,2.102,0.00,0.00,2.23,-15.75,-211.91,-190.91,2.11,-9.98,44.30,-110.00,-110.00,110.00,1343,1375,1407,1187,1275,1499,1521,11249,711
194076,0,138.16,224.12,-15.72,-0.166,0.310,2.719,0.00,0.00,-0.78,-20.79,-138.95,-244.91,1.96,-10.00,45.08,-17.82,-110.00,84.39,1343,1375,1407,1187,1275,1498,1521,11233,711
194088,0,43.66,203.60,0.39,0.000,-0.076,1.666,0.00,0.00,-2.15,-27.13,-45.81,-230.73,1.89,-10.00,45.13,68.16,110.00,44.15,1343,1375,1407,1187,1255,1498,1522,11262,711
194100,0,40.75,204.65,14.56,0.117,0.046,1.292,0.00,0.00,-3.26,-32.68,-44.02,-237.32,1.83,-10.00,44.76,20.22,63.12,8.36,1343,1375,1407,1187,1240,1498,1522,11266,711
194112,0,22.12,237.65,13.44,0.058,-0.165,1.584,0.00,0.00,-3.86,-37.92,-25.98,-275.57,1.79,-10.00,44.40,26.86,-110.00,10.80,1343,1375,1407,1187,1240,1498,1522,11291,711
194124,0,25.98,331.87,12.00,-0.693,0.290,2.706,0.00,0.00,-4.60,-43.63,-30.59,-375.50,1.74,-10.00,44.02,9.77,-110.00,14.02,1257,1223,1273,1207,1210,1499,1522,11333,726
194136,0,-75.53,60.52,20.72,0.529,0.205,2.256,0.00,0.00,-2.90,-46.18,72.63,-106.69,1.83,-10.00,43.58,82.02,110.00,-8.22,1257,1223,1273,1207,1210,1499,1522,11333,726
194148,0,-80.02,178.83,21.40,-0.308,0.395,1.756,0.00,0.00,-0.99,-47.16,79.03,-225.98,1.92,-10.00,42.87,34.49,-110.00,-10.62,1257,1223,1273,1207,1195,1499,1522,11354,726
194160,0,-91.10,-20.39,21.18,0.037,0.103,1.702,0.00,0.00,1.39,-46.76,92.49,-26.37,2.05,-9.98,42.16,18.47,92.84,-10.79,1257,1223,1273,1207,1118,1499,1522,11378,726
194172,128,17.47,-17.52,17.66,-0.755,0.352,2.305,0.00,0.00,3.49,-47.47,-13.98,-29.95,2.17,-10.00,41.72,-110.00,110.00,-2.44,1257,1223,1273,1207,1118,1499,1522,11391,726
194184,0,-18.73,-117.19,25.17,-0.267,0.097,1.699,0.00,0.00,4.39,-45.70,23.12,71.50,2.22,-9.94,41.17,-53.92,110.00,-21.76,1257,1223,1273,1207,1101,1499,1537,11387,726
194196,0,8.46,-131.37,25.15,-0.409,0.041,1.228,0.00,0.00,4.86,-41.52,-3.60,89.85,2.25,-9.66,40.44,-64.62,41.88,-22.44,1257,1223,1273,1207,1101,1499,1537,11399,726
194208,0,25.07,-121.47,20.11,-0.103,0.155,1.202,0.00,0.00,5.21,-38.58,-19.86,82.89,2.27,-9.53,39.74,-84.11,110.00,-10.52,1257,1223,1273,1207,1037,1499,1521,11420,726
194220,0,44.37,-60.27,20.16,-0.205,0.075,1.252,0.00,0.00,5.31,-35.48,-39.07,24.79,2.27,-9.35,39.07,-88.82,-110.00,-11.32,1100,1100,1100,1100,1037,1499,1521,11445,718
194232,0,39.67,-17.86,22.68,0.364,-0.271,1.183,0.00,0.00,5.08,-33.84,-34.60,-15.98,2.24,-9.26,38.40,-41.96,-110.00,-18.31,1100,1100,1100,1100,1037,1499,1521,11478,718
194244,0,40.56,44.66,14.38,-0.213,-0.285,1.404,0.00,0.00,4.94,-33.04,-35.62,-77.71,2.21,-9.27,37.77,-29.75,-110.00,1.83,1100,1100,1100,1100,1037,1499,1521,11491,718
194256,0,33.22,26.12,23.79,0.022,-0.159,1.102,0.00,0.00,4.31,-33.01,-28.90,-59.13,2.18,-9.37,37.09,5.62,-110.00,-22.38,1100,1100,1100,1100,1037,1499,1521,11495,718
194268,0,12.02,47.08,32.21,-0.126,-0.116,1.157,0.00,0.00,3.91,-33.44,-8.11,-80.52,2.16,-9.53,36.21,29.27,-110.00,-44.31,1100,1100,1100,1100,1034,1499,1522,11532,718
194280,0,11.76,13.18,32.48,-0.089,-0.061,1.015,0.00,0.00,3.87,-33.69,-7.89,-46.87,2.16,-9.66,35.24,-7.53,13.85,-45.97,1100,1100,1100,1100,1034,1499,1522,11532,718
194292,0,10.30,41.09,30.82,-0.353,0.011,1.020,0.00,0.00,3.67,-33.89,-6.63,-74.98,2.15,-9.83,34.29,-2.90,-84.62,-42.76,1100,1100,1100,1100,1034,1499,1522,11532,718
194304,0,21.65,24.95,29.73,-0.209,0.032,0.990,0.00,0.00,3.13,-34.00,-18.52,-58.95,2.13,-9.97,33.36,-13.12,-22.15,-40.97,1100,1100,1100,1100,1031,1499,1521,11532,718
194316,0,-1.07,44.97,35.56,-0.004,-0.115,0.872,0.00,0.00,3.14,-34.55,4.21,-79.52,2.13,-10.00,32.29,14.62,-83.01,-56.61,1100,1100,1100,1100,1031,1499,1521,11541,728
194328,0,-19.60,12.84,42.22,0.289,0.077,0.562,0.00,0.00,3.19,-35.42,22.79,-48.26,2.15,-10.00,31.10,38.13,21.23,-74.45,1100,1100,1100,1100,1031,1499,1521,11541,728
194340,0,-9.98,16.43,43.76,0.436,0.063,0.488,0.00,0.00,3.48,-36.73,13.46,-53.16,2.16,-10.00,29.88,5.14,-5.98,-79.51,1100,1100,1100,1100,1015,1498,1538,11545,728
194352,0,-14.14,-2.99,44.54,0.629,-0.079,0.305,0.00,0.00,4.41,-38.46,18.54,-35.47,2.19,-10.00,28.58,-4.21,71.53,-82.76,1100,1100,1100,1100,1015,1498,1538,11549,728
194364,0,1.46,85.93,41.38,0.470,-0.125,0.689,0.00,0.00,4.97,-40.85,3.51,-126.77,2.22,-10.00,27.29,-29.87,-110.00,-76.16,1100,1100,1100,1100,1012,1498,1541,11549,728
194376,0,-17.55,61.39,40.90,0.522,0.332,0.949,0.00,0.00,5.20,-43.50,22.75,-104.90,2.23,-10.00,26.08,28.15,-25.32,-76.16,1100,1100,1100,1100,1012,1498,1541,11553,728
194388,0,-10.71,27.14,29.78,0.038,-0.119,2.486,0.00,0.00,5.20,-43.37,15.91,-70.51,2.22,-10.00,25.07,52.52,-95.22,-49.39,1100,1100,1100,1100,1012,1498,1541,11541,728
194400,0,18.28,57.06,35.63,-0.004,0.040,2.244,0.00,0.00,5.39,-44.57,-12.89,-101.63,2.23,-10.00,24.07,-34.13,-72.20,-65.00,1100,1100,1100,1100,1031,1498,1522,11549,728
194412,0,-9.30,-16.78,35.74,0.424,-0.200,1.298,0.00,0.00,6.08,-45.12,15.38,-28.33,2.26,-10.00,22.98,5.89,110.00,-66.38,1100,1100,1100,1100,1031,1498,1522,11553,728
194424,0,-29.12,-42.47,37.40,0.476,-0.129,1.128,0.00,0.00,6.84,-44.92,35.95,-2.45,2.29,-10.00,21.86,40.07,110.00,-71.65,1100,1100,1100,1100,1032,1498,1522,11557,729
194436,0,28.49,9.48,37.11,-0.053,-0.036,1.098,0.00,0.00,7.16,-44.79,-21.33,-54.27,2.30,-10.00,20.77,-68.73,-89.28,-72.01,1100,1100,1100,1100,1032,1498,1522,11549,729
194448,0,34.33,-39.48,35.64,0.182,-0.063,0.688,0.00,0.00,6.95,-44.80,-27.39,-5.33,2.28,-10.00,19.79,-45.40,110.00,-69.31,1100,1100,1100,1100,1032,1498,1521,11562,729
194460,0,-12.86,-25.51,35.87,0.218,-0.139,0.879,0.00,0.00,6.72,-44.71,19.58,-19.20,2.27,-10.00,18.81,71.06,68.32,-70.87,1100,1100,1100,1100,1032,1499,1521,11553,729
194472,0,-9.99,68.54,28.98,-0.047,-0.223,1.611,0.00,0.00,6.83,-45.03,16.82,-113.58,2.27,-10.00,17.96,47.45,-110.00,-54.50,1100,1100,1100,1100,1032,1499,1521,11566,729
194484,0,-3.66,43.47,29.90,-0.194,-0.224,1.517,0.00,0.00,7.14,-45.38,10.79,-88.85,2.29,-10.00,17.01,11.20,-70.69,-57.74,1100,1100,1100,1100,1031,1499,1521,11549,729
194496,0,-7.13,-42.16,33.78,0.124,-0.150,1.044,0.00,0.00,7.43,-44.81,14.56,-2.65,2.29,-10.00,16.04,21.67,110.00,-68.42,1100,1100,1100,1100,1031,1499,1521,11566,729
194508,0,-16.64,-2.87,35.37,0.079,-0.190,1.153,0.00,0.00,7.72,-44.35,24.37,-41.48,2.31,-10.00,14.97,40.68,-29.84,-73.46,1100,1100,1100,1100,1031,1499,1521,11582,729
194520,0,7.11,-9.76,37.18,0.341,-0.238,0.756,0.00,0.00,7.95,-44.33,0.84,-34.57,2.31,-10.00,13.84,-0.83,-6.87,-79.10,1100,1100,1100,1100,1031,1499,1522,11587,732
