time_ms,flags,gyro_x,gyro_y,gyro_z,accel_x,accel_y,accel_z,roll,pitch,rate_sp_roll,rate_sp_pitch,rate_err_roll,rate_err_pitch,rate_i_roll,rate_i_pitch,rate_i_yaw,pid_roll,pid_pitch,pid_yaw,m1,m2,m3,m4,rc_thr,rc_roll,rc_pitch,battery_mv,loop_us
246988,0,-0.04,0.00,-0.01,0.045,-0.029,0.999,0.00,0.00,0.00,-0.02,0.04,-0.02,0.00,-0.00,-0.00,0.04,0.01,0.02,1000,1000,1000,1000,1025,1499,1527,11849,710
247000,0,0.03,-0.05,0.01,0.045,-0.029,1.001,0.00,0.00,0.00,-0.02,-0.03,0.04,0.00,-0.00,0.00,-0.06,0.11,-0.01,1000,1000,1000,1000,1025,1499,1527,11849,710
247012,0,-0.02,-0.00,-0.02,0.045,-0.029,1.000,0.00,0.00,0.00,-0.02,0.02,-0.01,0.00,-0.00,0.00,0.03,-0.06,0.04,1000,1000,1000,1000,1025,1499,1527,11849,710
247024,0,-0.00,0.01,0.01,0.045,-0.029,1.000,0.00,0.00,0.00,-0.02,0.01,-0.03,0.00,-0.00,0.00,-0.02,-0.07,-0.03,1100,1100,1100,1100,1032,1499,1520,11849,710
247036,0,0.04,0.05,-0.00,0.045,-0.028,1.000,0.00,0.00,0.00,-0.02,-0.04,-0.07,0.00,-0.00,0.00,-0.08,-0.12,0.00,1100,1100,1100,1100,1032,1499,1520,11849,710
247048,0,0.04,0.02,0.01,0.044,-0.029,1.000,0.00,0.00,0.00,-0.02,-0.04,-0.04,0.00,-0.00,-0.00,-0.01,0.06,-0.02,1100,1100,1100,1100,1032,1499,1520,11853,710
247060,0,0.04,0.02,-0.03,0.045,-0.029,1.000,0.00,0.00,0.00,-0.02,-0.03,-0.04,-0.00,-0.00,-0.00,-0.00,0.03,0.08,1100,1100,1100,1100,1032,1499,1520,11849,710
247072,0,0.03,0.01,-0.02,0.044,-0.029,1.000,0.00,0.00,0.00,-0.02,-0.03,-0.03,-0.00,-0.00,0.00,-0.00,0.11,0.06,1100,1100,1100,1100,1032,1499,1520,11845,710
247084,0,-0.01,0.03,-0.10,0.043,-0.028,1.000,0.00,0.00,0.00,-0.02,0.02,-0.05,-0.00,-0.00,0.00,0.05,0.15,0.25,1100,1100,1100,1100,1032,1499,1520,11845,710
247096,0,0.02,-0.04,-0.05,0.044,-0.028,1.001,0.00,0.00,0.00,-0.02,-0.02,0.02,-0.00,-0.00,0.00,-0.04,0.27,0.12,1100,1100,1100,1100,1032,1499,1520,11841,710
247108,0,0.02,0.04,0.08,0.045,-0.028,1.002,0.00,0.00,0.00,-0.02,-0.02,-0.06,-0.00,-0.00,0.00,-0.03,-0.16,-0.20,1100,1100,1100,1100,1032,1499,1520,11832,710
247120,0,0.01,0.05,0.02,0.045,-0.029,1.002,0.00,0.00,0.00,-0.02,-0.01,-0.07,-0.00,-0.00,0.00,0.01,-0.13,-0.06,1100,1100,1100,1100,1032,1499,1520,11832,710
247132,0,0.02,0.02,0.00,0.045,-0.029,1.001,0.00,0.00,0.00,-0.02,-0.01,-0.04,-0.00,-0.00,0.00,0.02,-0.12,-0.00,1100,1100,1100,1100,1032,1499,1520,11828,710
247144,0,-0.01,0.12,0.05,0.045,-0.029,0.999,0.00,0.00,0.01,-0.02,0.02,-0.13,-0.00,-0.00,0.00,0.06,-0.38,-0.13,1100,1100,1100,1100,1032,1499,1520,11828,710
247156,0,0.01,0.04,-0.08,0.044,-0.029,0.999,0.00,0.00,0.01,-0.02,-0.00,-0.06,-0.00,-0.00,0.00,-0.01,-0.04,0.19,1100,1100,1100,1100,1032,1499,1520,11828,710
247168,0,0.06,0.11,-0.02,0.045,-0.029,0.999,0.00,0.00,0.01,-0.02,-0.05,-0.12,-0.00,-0.00,0.00,-0.07,-0.32,0.05,1100,1100,1100,1100,1032,1499,1520,11824,710
247180,0,0.03,0.14,0.15,0.044,-0.029,0.999,0.00,0.00,0.01,-0.02,-0.02,-0.16,-0.00,-0.00,-0.00,-0.02,-0.06,-0.37,1100,1100,1100,1100,1032,1499,1521,11824,710
247192,0,0.02,-0.21,-0.16,0.048,-0.030,0.998,0.00,0.00,0.01,-0.02,-0.01,0.19,-0.00,-0.00,-0.00,-0.10,0.61,0.40,1100,1100,1100,1100,1032,1499,1521,11816,710
247204,0,-0.08,-0.66,-0.15,0.050,-0.029,0.993,0.00,0.00,0.02,-0.02,0.09,0.64,0.00,-0.00,0.01,-0.03,2.08,0.39,1100,1100,1100,1100,1032,1499,1520,11807,710
247216,0,-0.02,0.12,0.47,0.046,-0.028,0.994,0.00,0.00,0.02,-0.03,0.05,-0.14,0.00,-0.00,-0.00,-0.12,-1.48,-1.17,1100,1100,1100,1100,1032,1499,1520,11803,710
247228,0,0.17,0.81,-0.17,0.043,-0.031,0.998,0.00,0.00,0.03,-0.04,-0.13,-0.85,0.00,-0.00,-0.01,-0.43,-2.72,0.42,1100,1100,1100,1100,1032,1499,1520,11791,710
247240,0,-0.28,-0.16,-0.64,0.052,-0.030,0.991,0.00,0.00,0.04,-0.05,0.32,0.11,0.00,-0.00,0.01,0.60,1.47,1.63,1100,1100,1100,1100,1032,1499,1520,11786,710
247252,0,0.02,-2.08,0.32,0.071,-0.023,0.980,0.00,0.00,0.04,-0.06,0.03,2.03,0.00,0.00,0.01,-0.17,5.49,-0.79,1100,1100,1100,1100,1032,1499,1520,11782,710
247264,0,0.02,-3.70,0.31,0.075,-0.022,0.979,0.00,0.00,0.03,-0.04,0.01,3.67,0.00,0.01,0.00,0.20,5.28,-0.77,1100,1100,1100,1100,1032,1499,1520,11766,710
247276,0,0.06,-0.98,-0.27,0.068,-0.018,0.981,0.00,0.00,0.02,-0.03,-0.04,0.95,0.00,0.01,0.01,0.04,-5.52,0.67,1100,1100,1100,1100,1032,1499,1520,11766,710
247288,0,0.14,-0.22,0.15,0.071,-0.022,0.984,0.00,0.00,0.00,-0.06,-0.14,0.16,0.00,0.02,0.01,-0.13,-3.33,-0.37,1100,1100,1100,1100,1032,1499,1520,11741,710
247300,0,0.25,0.31,0.13,0.058,-0.017,0.997,0.00,0.00,-0.02,-0.09,-0.28,-0.40,0.00,0.02,0.00,-0.30,-2.07,-0.33,1100,1100,1100,1100,1032,1499,1520,11728,710
247312,0,0.10,0.10,-0.18,0.048,-0.019,0.999,0.00,0.00,-0.04,-0.10,-0.14,-0.20,-0.00,0.01,0.01,-0.21,0.78,0.46,1100,1100,1100,1100,1032,1499,1520,11720,710
247324,0,0.01,-0.35,-0.02,0.048,-0.022,0.998,0.00,0.00,-0.05,-0.11,-0.06,0.25,-0.00,0.01,0.01,-0.07,0.95,0.05,1100,1100,1100,1100,1032,1499,1520,11753,710
247336,0,-0.14,0.12,0.04,0.043,-0.030,1.006,0.00,0.00,-0.06,-0.09,0.08,-0.21,-0.00,0.01,0.01,0.20,-1.51,-0.08,1100,1100,1100,1100,1032,1499,1520,11761,710
247348,0,-0.07,-0.19,-0.04,0.048,-0.025,0.998,0.00,0.00,-0.05,-0.09,0.01,0.10,-0.00,0.01,0.01,0.06,1.65,0.11,1100,1100,1100,1100,1032,1499,1520,11724,710
247360,0,-0.20,-0.43,-0.08,0.061,-0.029,0.990,0.00,0.00,-0.04,-0.11,0.16,0.32,0.00,0.01,0.02,0.03,1.80,0.21,1100,1100,1100,1100,1032,1499,1520,11724,710
247372,0,-0.37,1.09,-0.07,0.046,-0.027,0.999,0.00,0.00,-0.03,-0.14,0.34,-1.24,0.00,0.01,0.02,0.22,-2.86,0.20,1100,1100,1100,1100,1032,1499,1520,11724,710
247384,0,-0.27,1.52,-0.29,0.032,-0.032,1.007,0.00,0.00,-0.01,-0.15,0.26,-1.67,0.00,0.01,0.02,0.03,-3.75,0.76,1100,1100,1100,1100,1032,1499,1520,11724,710
247396,0,0.18,-0.52,-0.16,0.044,-0.033,1.000,0.00,0.00,-0.00,-0.15,-0.18,0.38,0.00,0.01,0.03,-0.32,3.71,0.43,1100,1100,1100,1100,1032,1499,1520,11728,710
247408,0,0.45,-0.91,0.37,0.051,-0.027,0.995,0.00,0.00,-0.01,-0.13,-0.46,0.78,0.00,0.01,0.02,-0.27,0.46,-0.89,1100,1100,1100,1100,1032,1499,1520,11741,710
247420,0,0.23,-1.22,0.07,0.054,-0.025,0.987,0.00,0.00,-0.02,-0.11,-0.25,1.11,-0.00,0.01,0.01,0.30,0.67,-0.17,1100,1100,1100,1100,1032,1499,1520,11728,710
247432,0,-0.02,-0.89,-0.70,0.062,-0.033,0.989,0.00,0.00,-0.02,-0.10,0.01,0.78,-0.00,0.02,0.03,-0.03,-0.80,1.78,1100,1100,1100,1100,1032,1499,1520,11711,710
247444,0,-0.55,0.95,0.13,0.055,-0.024,0.994,0.00,0.00,-0.01,-0.13,0.53,-1.09,0.00,0.02,0.04,0.46,-4.11,-0.29,1100,1100,1100,1100,1032,1499,1520,11678,710
247456,0,-0.05,2.24,0.68,0.029,-0.026,1.017,0.00,0.00,-0.01,-0.17,0.04,-2.41,0.00,0.01,0.02,-0.36,-4.12,-1.68,1100,1100,1100,1100,1032,1499,1520,11687,710
247468,0,0.60,0.92,-0.95,0.013,-0.031,1.027,0.00,0.00,-0.01,-0.15,-0.61,-1.07,0.00,0.01,0.03,-1.20,2.35,2.41,1100,1100,1100,1100,1032,1499,1520,11691,710
247480,0,-0.23,1.66,-0.17,0.005,-0.030,1.033,0.00,0.00,-0.01,-0.12,0.22,-1.78,0.00,0.00,0.05,0.41,-2.42,0.48,1100,1100,1100,1100,1032,1499,1520,11703,710
247492,0,0.67,-0.32,0.63,0.005,-0.028,1.028,0.00,0.00,-0.02,-0.06,-0.68,0.26,0.00,0.00,0.03,-1.07,3.94,-1.55,1100,1100,1100,1100,1032,1499,1520,11711,710
247504,0,-0.06,0.30,-0.67,0.048,-0.025,1.014,0.00,0.00,-0.02,-0.02,0.04,-0.32,-0.00,0.00,0.04,0.95,-1.61,1.72,1100,1100,1100,1100,1032,1499,1520,11707,710
247516,0,-0.12,0.30,0.76,0.043,-0.021,1.018,0.00,0.00,-0.03,-0.03,0.10,-0.33,0.00,0.00,0.04,-0.01,-0.06,-1.86,1100,1100,1100,1100,1032,1499,1520,11699,711
247528,0,0.50,-2.78,-0.35,0.035,-0.025,1.006,0.00,0.00,-0.03,0.02,-0.54,2.80,-0.00,0.00,0.04,-0.93,8.33,0.90,1100,1100,1100,1100,1032,1499,1520,11707,711
247540,0,-0.33,0.42,0.09,0.056,-0.028,1.003,0.00,0.00,-0.03,-0.00,0.30,-0.42,0.00,0.01,0.04,0.14,-2.95,-0.17,1100,1100,1100,1100,1032,1499,1520,11695,711
247552,0,-0.14,-2.19,0.04,0.035,-0.030,1.002,0.00,0.00,-0.04,0.01,0.10,2.20,0.00,0.01,0.04,0.11,8.71,-0.06,1100,1100,1100,1100,1032,1499,1520,11707,711
247564,0,-0.57,1.19,-0.10,0.058,-0.032,0.998,0.00,0.00,-0.03,0.02,0.54,-1.17,0.00,0.01,0.04,0.71,-11.39,0.28,1100,1100,1100,1100,1032,1499,1520,11707,711
247576,0,0.86,1.82,-0.17,0.002,-0.020,1.019,0.00,0.00,-0.05,-0.01,-0.91,-1.82,-0.00,0.01,0.04,-1.70,-2.12,0.46,1100,1100,1100,1100,1032,1499,1520,11695,711
247588,0,-0.08,1.44,-0.50,0.061,-0.032,1.006,0.00,0.00,-0.04,0.01,0.03,-1.43,0.00,0.01,0.06,0.18,-6.25,1.30,1100,1100,1100,1100,1032,1499,1520,11724,711
247600,0,0.68,0.21,-0.58,0.034,-0.022,1.005,0.00,0.00,-0.06,-0.02,-0.74,-0.23,-0.00,0.00,0.07,-0.74,2.21,1.53,1100,1100,1100,1100,1032,1499,1520,11703,711
247612,0,-0.93,-0.23,-0.56,0.084,-0.031,0.990,0.00,0.00,-0.05,-0.02,0.88,0.22,0.00,0.01,0.09,1.34,-2.55,1.49,1100,1100,1100,1100,1032,1499,1520,11711,711
247624,0,0.04,-1.16,-0.67,0.068,-0.020,0.982,0.00,0.00,-0.05,-0.08,-0.09,1.08,-0.00,0.01,0.11,0.10,3.18,1.79,1100,1100,1100,1100,1032,1499,1520,11707,710
247636,0,-1.11,3.55,-0.83,0.074,-0.039,1.012,0.00,0.00,-0.03,-0.14,1.07,-3.68,0.00,0.01,0.13,0.62,-14.12,2.21,1100,1100,1100,1100,1032,1499,1520,11711,710
247648,0,-0.30,0.10,-0.74,0.051,-0.023,0.990,0.00,0.00,-0.03,-0.24,0.27,-0.34,0.00,-0.00,0.16,0.57,9.99,2.02,1100,1100,1100,1100,1032,1499,1520,11724,710
247660,0,1.32,0.11,-0.71,0.060,-0.043,1.000,0.00,0.00,-0.02,-0.20,-1.34,-0.30,0.00,0.00,0.18,-4.54,-6.58,1.97,1100,1100,1100,1100,1032,1499,1520,11716,710
247672,0,0.48,2.30,-0.48,0.027,-0.017,1.030,0.00,0.00,-0.04,-0.23,-0.53,-2.53,0.00,-0.00,0.20,0.04,-5.34,1.39,1100,1100,1100,1100,1032,1499,1520,11724,710
247684,0,3.64,-3.32,-0.31,0.141,-0.033,0.943,0.00,0.00,-0.04,-0.24,-3.69,3.08,0.00,0.01,0.22,-8.47,5.23,0.98,1100,1100,1100,1100,1032,1499,1520,11707,710
247696,0,0.80,-0.75,-0.82,0.065,-0.011,0.989,0.00,0.00,-0.06,-0.27,-0.85,0.48,-0.00,0.01,0.23,-1.31,-8.11,2.29,1100,1100,1100,1100,1032,1499,1520,11720,710
247708,0,2.88,4.99,-0.25,0.074,-0.026,0.981,0.00,0.00,-0.05,-0.33,-2.93,-5.32,-0.00,0.01,0.25,-5.62,-20.97,0.89,1100,1100,1100,1100,1032,1499,1520,11716,710
247720,0,0.68,-1.12,-0.68,0.063,-0.002,0.966,0.00,0.00,-0.07,-0.36,-0.75,0.77,-0.00,0.01,0.26,-1.44,7.73,1.97,1100,1100,1100,1100,1032,1499,1520,11724,710
247732,0,0.29,2.29,-0.34,0.095,-0.021,0.947,0.00,0.00,-0.03,-0.42,-0.32,-2.71,0.00,0.01,0.27,-1.17,-17.22,1.13,1100,1100,1100,1100,1032,1499,1520,11724,710
247744,0,0.04,-0.27,-0.87,0.033,-0.014,0.987,0.00,0.00,-0.02,-0.40,-0.06,-0.13,0.00,0.01,0.29,-1.84,-2.47,2.46,1100,1100,1100,1100,1032,1499,1520,11724,710
247756,0,-0.10,2.32,-0.56,0.008,0.018,1.021,0.00,0.00,-0.05,-0.44,0.05,-2.76,0.00,0.01,0.31,1.13,-6.51,1.72,1100,1100,1100,1100,1032,1499,1520,11703,710
247768,0,1.80,-2.19,-1.03,0.026,-0.019,0.996,0.00,0.00,-0.06,-0.35,-1.86,1.84,0.00,0.01,0.33,-3.22,8.42,2.91,1100,1100,1100,1100,1032,1499,1520,11703,710
247780,0,-3.12,1.08,-0.83,-0.013,-0.008,1.044,0.00,0.00,-0.06,-0.34,3.06,-1.43,0.00,0.01,0.35,7.81,0.76,2.41,1100,1100,1100,1100,1032,1499,1520,11711,710
247792,0,1.79,0.36,0.18,0.050,-0.036,0.986,0.00,0.00,-0.05,-0.32,-1.84,-0.68,0.00,0.00,0.36,-2.91,1.67,-0.09,1100,1100,1100,1100,1032,1499,1520,11703,710
247804,0,-2.35,-2.27,-0.05,0.066,-0.044,0.967,0.00,0.00,-0.01,-0.31,2.34,1.96,0.00,0.00,0.37,3.54,9.21,0.50,1100,1100,1100,1100,1032,1498,1520,11720,710
247816,0,0.14,0.07,0.41,0.087,-0.032,0.950,0.00,0.00,-0.01,-0.35,-0.15,-0.42,0.00,0.01,0.37,1.20,-9.96,-0.67,1100,1100,1100,1100,1032,1498,1520,11724,710
247828,0,0.92,-3.04,-0.05,0.075,-0.047,0.961,0.00,0.00,0.01,-0.36,-0.91,2.68,0.00,0.01,0.37,-3.96,5.74,0.49,1100,1100,1100,1100,1032,1498,1520,11711,710
247840,0,-0.71,1.65,-0.16,0.062,0.011,0.977,0.00,0.00,-0.02,-0.44,0.69,-2.09,0.00,0.01,0.38,1.94,-3.53,0.78,1100,1100,1100,1100,1032,1498,1520,11716,710
247852,0,3.80,2.91,-1.47,0.007,-0.043,1.010,0.00,0.00,0.00,-0.41,-3.79,-3.32,0.00,0.01,0.40,-8.84,-8.89,4.08,1100,1100,1100,1100,1032,1498,1520,11707,710
247864,0,-3.01,4.68,-0.91,-0.061,-0.008,1.073,0.00,0.00,-0.02,-0.39,3.00,-5.06,0.00,-0.00,0.40,6.23,-9.36,2.67,1100,1100,1100,1100,1032,1499,1520,11728,710
247876,0,1.83,4.80,0.13,-0.036,-0.023,1.058,0.00,0.00,-0.02,-0.34,-1.85,-5.14,0.00,-0.02,0.42,-2.45,-2.75,0.10,1100,1100,1100,1100,1032,1499,1520,11724,710
247888,0,-3.21,1.90,0.30,-0.061,-0.044,1.070,0.00,0.00,0.01,-0.23,3.21,-2.13,0.00,-0.02,0.42,4.43,4.61,-0.32,1100,1100,1100,1100,1032,1499,1520,11720,710
247900,0,-0.63,-1.56,0.13,-0.014,0.002,1.060,0.00,0.00,-0.02,-0.11,0.62,1.45,0.00,-0.02,0.43,2.39,8.23,0.11,1100,1100,1100,1100,1032,1499,1520,11732,710
247912,0,-0.55,-3.18,-0.48,0.012,-0.059,1.024,0.00,0.00,0.08,-0.01,0.63,3.16,0.01,-0.02,0.44,-3.91,12.54,1.64,1100,1100,1100,1100,1032,1499,1520,11741,710
247924,0,-6.10,2.19,-0.46,0.004,0.010,1.056,0.00,0.00,0.09,-0.03,6.20,-2.21,0.01,-0.03,0.45,10.09,-0.94,1.59,1100,1100,1100,1100,1032,1499,1520,11736,710
247936,0,0.46,0.57,-0.12,0.070,-0.038,0.994,0.00,0.00,0.16,-0.01,-0.30,-0.58,0.01,-0.03,0.45,-5.48,-2.76,0.76,1100,1100,1100,1100,1032,1499,1520,11724,710
247948,0,-6.57,-2.20,-0.67,0.066,-0.033,0.986,0.00,0.00,0.23,0.01,6.80,2.21,0.02,-0.02,0.46,7.46,4.02,2.14,1100,1100,1100,1100,1032,1499,1520,11724,710
247960,0,2.54,-0.94,-0.28,0.074,-0.022,0.996,0.00,0.00,0.22,-0.04,-2.32,0.91,0.02,-0.02,0.47,-5.80,0.11,1.17,1100,1100,1100,1100,1032,1499,1520,11724,710
247972,0,1.43,0.43,-0.39,0.084,-0.064,0.959,0.00,0.00,0.30,-0.05,-1.13,-0.47,0.02,-0.02,0.49,-7.23,-7.67,1.45,1100,1100,1100,1100,1032,1499,1520,11724,710
247984,0,-0.83,-3.38,-0.55,0.061,-0.021,1.016,0.00,0.00,0.25,-0.05,1.09,3.33,0.02,-0.01,0.49,4.49,5.45,1.87,1100,1100,1100,1100,1032,1499,1520,11741,710
247996,0,5.67,0.93,-0.17,0.088,-0.059,0.971,0.00,0.00,0.28,-0.07,-5.39,-1.00,0.02,-0.01,0.51,-10.78,-14.68,0.94,1100,1100,1100,1100,1032,1499,1520,11745,710
248008,0,-2.07,0.81,-0.66,0.051,-0.013,0.999,0.00,0.00,0.25,-0.08,2.32,-0.89,0.02,-0.01,0.53,6.05,-2.40,2.19,1100,1100,1100,1100,1032,1499,1520,11716,710
248020,0,3.83,4.93,-0.37,0.027,-0.024,1.036,0.00,0.00,0.21,-0.17,-3.62,-5.11,0.01,-0.02,0.55,-3.83,-11.85,1.47,1100,1100,1100,1100,1032,1499,1520,11720,720
248032,0,1.91,-2.73,-1.33,0.109,-0.035,0.948,0.00,0.00,0.24,-0.19,-1.67,2.54,0.01,-0.01,0.58,-5.09,9.41,3.89,1100,1100,1100,1100,1032,1499,1520,11728,720
248044,0,-3.31,-4.65,-0.93,0.107,-0.026,0.962,0.00,0.00,0.25,-0.26,3.56,4.38,0.01,-0.01,0.59,9.23,15.53,2.92,1100,1100,1100,1100,1032,1499,1520,11741,720
248056,0,1.89,0.84,-0.52,0.136,-0.068,0.917,0.00,0.00,0.32,-0.37,-1.57,-1.21,0.01,-0.00,0.62,-4.01,-14.12,1.91,1100,1100,1100,1100,1032,1499,1520,11724,720
248068,0,-0.58,0.53,-1.32,0.088,-0.064,0.949,0.00,0.00,0.36,-0.44,0.94,-0.97,0.01,-0.00,0.65,1.18,-8.59,3.94,1100,1100,1100,1100,1032,1499,1520,11741,720
248080,0,4.88,-0.22,-0.45,0.075,-0.051,0.959,0.00,0.00,0.33,-0.51,-4.54,-0.29,0.01,-0.00,0.68,-6.15,-2.53,1.80,1100,1100,1100,1100,1032,1499,1520,11741,720
248092,0,5.28,2.61,-1.94,0.053,-0.050,0.974,0.00,0.00,0.30,-0.54,-4.98,-3.16,0.01,-0.01,0.72,-7.55,-4.97,5.56,1100,1100,1100,1100,1032,1499,1520,11728,720
248104,0,1.29,4.12,-1.11,0.011,-0.011,1.055,0.00,0.00,0.21,-0.62,-1.08,-4.74,0.01,-0.02,0.74,3.49,-4.69,3.52,1100,1100,1100,1100,1032,1499,1520,11728,720
248116,0,4.04,4.31,-0.48,0.070,-0.023,0.992,0.00,0.00,0.14,-0.72,-3.90,-5.03,0.00,-0.03,0.78,-3.19,-4.27,1.98,1100,1100,1100,1100,1032,1499,1520,11741,720
248128,0,-1.92,2.31,-0.45,0.065,-0.037,0.998,0.00,0.00,0.11,-0.77,2.03,-3.08,0.00,-0.04,0.79,5.82,-0.57,1.91,1100,1100,1100,1100,1032,1499,1520,11745,720
248140,0,-0.03,1.98,-0.21,0.064,-0.012,1.023,0.00,0.00,0.06,-0.89,0.08,-2.87,0.00,-0.05,0.81,2.72,2.97,1.33,1100,1100,1100,1100,1032,1499,1520,11749,720
248152,0,2.92,-0.74,-0.63,0.102,-0.062,0.957,0.00,0.00,0.08,-0.99,-2.84,-0.25,0.00,-0.05,0.82,-7.50,13.04,2.39,1100,1100,1100,1100,1032,1499,1520,11749,720
248164,0,-1.31,3.63,-0.50,0.057,-0.027,1.001,0.00,0.00,0.10,-1.07,1.41,-4.71,0.00,-0.06,0.84,1.56,-8.79,2.10,1100,1100,1100,1100,1031,1499,1521,11741,720
248176,0,1.35,3.93,-0.70,0.051,-0.026,1.017,0.00,0.00,0.12,-1.12,-1.23,-5.05,0.00,-0.07,0.85,-2.42,-14.82,2.59,1100,1100,1100,1100,1031,1499,1521,11745,720
248188,0,-1.89,3.47,-0.65,0.003,-0.021,1.036,0.00,0.00,0.14,-1.09,2.03,-4.57,0.00,-0.07,0.86,1.69,-8.29,2.50,1100,1100,1100,1100,1032,1499,1521,11732,720
248200,0,-2.72,4.03,-1.07,-0.041,0.018,1.103,0.00,0.00,0.09,-1.08,2.81,-5.11,0.00,-0.08,0.88,6.51,-5.30,3.56,1100,1100,1100,1100,1032,1499,1521,11736,720
248212,0,2.72,1.09,-0.15,0.007,-0.019,1.067,0.00,0.00,0.08,-1.04,-2.64,-2.14,0.01,-0.09,0.90,-8.08,8.23,1.29,1100,1100,1100,1100,1032,1499,1521,11724,720
248224,0,-4.71,-3.00,-0.53,0.001,-0.004,1.068,0.00,0.00,0.10,-0.95,4.81,2.05,0.01,-0.10,0.93,6.76,15.62,2.26,1100,1100,1100,1100,1032,1499,1520,11728,710
248236,0,-0.40,-2.09,-0.50,0.071,-0.004,0.997,0.00,0.00,0.11,-0.90,0.51,1.19,0.01,-0.09,0.94,-1.79,-0.04,2.20,1100,1100,1100,1100,1032,1499,1520,11703,710
248248,0,-6.22,-2.57,-0.91,0.061,-0.029,0.972,0.00,0.00,0.18,-0.82,6.40,1.75,0.02,-0.08,0.97,5.62,-3.65,3.23,1100,1100,1100,1100,1032,1499,1520,11695,710
248260,0,-5.00,-4.06,-1.57,0.063,0.025,1.016,0.00,0.00,0.17,-0.81,5.17,3.25,0.02,-0.08,0.99,6.15,8.45,4.91,1100,1100,1100,1100,1032,1499,1520,11707,710
248272,0,1.48,-5.29,-0.26,0.089,-0.003,0.938,0.00,0.00,0.21,-0.72,-1.27,4.58,0.02,-0.07,1.01,-10.19,4.61,1.66,1100,1100,1100,1100,1032,1499,1520,11703,710
248284,0,-4.54,-7.22,-1.05,0.051,0.010,0.976,0.00,0.00,0.21,-0.59,4.75,6.63,0.03,-0.05,1.04,3.33,4.52,3.67,1100,1100,1100,1100,1032,1499,1520,11707,710
248296,0,-1.02,-3.39,-0.62,0.080,0.004,0.946,0.00,0.00,0.24,-0.53,1.26,2.86,0.03,-0.05,1.07,-2.50,-6.44,2.61,1100,1100,1100,1100,1032,1499,1520,11720,710
248308,0,-4.58,-5.25,-1.62,0.040,-0.034,0.941,0.00,0.00,0.31,-0.34,4.90,4.91,0.04,-0.03,1.12,1.85,-6.43,5.16,1100,1100,1100,1100,1032,1499,1520,11736,710
248320,0,-6.84,-7.22,-1.53,0.013,0.024,1.002,0.00,0.00,0.35,-0.22,7.19,7.00,0.04,-0.02,1.15,7.47,13.26,4.98,1100,1100,1100,1100,1030,1499,1522,11745,710
248332,0,-1.92,-0.48,-0.79,0.030,-0.005,0.968,0.00,0.00,0.41,-0.11,2.33,0.37,0.05,-0.01,1.19,-3.48,-11.08,3.18,1100,1100,1100,1100,1030,1499,1522,11724,710
248344,0,-5.28,-5.56,-1.50,0.047,-0.000,0.998,0.00,0.00,0.48,0.01,5.76,5.57,0.05,-0.00,1.23,1.42,9.83,4.99,1100,1100,1100,1100,1032,1499,1520,11728,710
248356,0,-5.50,-3.86,-1.04,0.069,-0.007,0.966,0.00,0.00,0.52,0.07,6.02,3.93,0.06,0.01,1.26,4.76,1.96,3.85,1100,1100,1100,1100,1032,1499,1520,11741,710
248368,0,-1.90,-1.75,-1.32,0.067,-0.053,0.981,0.00,0.00,0.64,0.14,2.53,1.89,0.07,0.02,1.30,-6.16,-11.10,4.60,1100,1100,1100,1100,1032,1499,1520,11741,710
248380,0,-7.96,-5.97,-0.87,0.084,-0.022,0.966,0.00,0.00,0.77,0.17,8.73,6.14,0.08,0.03,1.32,6.28,8.02,3.49,1100,1100,1100,1100,1032,1499,1520,11720,710
248392,0,-3.76,-2.75,-0.66,0.109,-0.046,0.946,0.00,0.00,0.90,0.17,4.66,2.92,0.08,0.04,1.35,0.59,-7.91,3.01,1100,1100,1100,1100,1032,1499,1520,11736,710
248404,0,-6.51,0.84,-1.57,0.061,-0.041,0.973,0.00,0.00,1.07,0.15,7.58,-0.70,0.09,0.05,1.38,1.72,-11.41,5.30,1100,1100,1100,1100,1032,1499,1520,11724,710
248416,0,-6.54,-5.51,-1.11,0.073,-0.021,1.007,0.00,0.00,1.17,0.13,7.72,5.65,0.10,0.05,1.41,7.06,15.49,4.19,1100,1100,1100,1100,1032,1499,1520,11728,711
248428,0,0.52,-2.16,-0.48,0.062,-0.067,1.015,0.00,0.00,1.35,0.17,0.83,2.34,0.10,0.06,1.44,-10.15,0.09,2.65,1100,1100,1100,1100,1032,1499,1520,11720,711
248440,0,-7.37,-10.06,-0.71,0.085,-0.055,0.954,0.00,0.00,1.49,0.28,8.86,10.34,0.11,0.08,1.47,6.13,19.71,3.25,1100,1100,1100,1100,1032,1499,1520,11724,711
248452,0,-3.15,-3.35,-1.06,0.084,-0.034,1.003,0.00,0.00,1.62,0.35,4.77,3.70,0.12,0.09,1.50,0.63,-9.17,4.16,1100,1100,1100,1100,1032,1499,1520,11741,711
248464,0,-4.89,-6.91,-1.78,0.085,-0.080,0.922,0.00,0.00,1.82,0.49,6.71,7.40,0.13,0.12,1.54,-1.13,-4.24,5.98,1100,1100,1100,1100,1032,1499,1520,11724,711
248476,0,-10.74,-8.68,-1.51,0.074,-0.011,0.989,0.00,0.00,1.97,0.56,12.71,9.23,0.14,0.13,1.57,13.19,14.42,5.36,1100,1100,1100,1100,1032,1499,1520,11741,711
248488,0,-3.16,-4.39,-0.63,0.086,-0.072,0.966,0.00,0.00,2.15,0.60,5.31,4.99,0.15,0.15,1.60,-3.88,-4.07,3.19,1100,1100,1100,1100,1033,1499,1520,11732,711
248500,0,-9.11,-6.86,-1.14,0.090,-0.043,0.953,0.00,0.00,2.31,0.68,11.43,7.54,0.16,0.16,1.64,6.12,9.08,4.50,1100,1100,1100,1100,1033,1499,1520,11720,711
248512,0,-4.82,-4.44,-0.74,0.063,-0.034,1.018,0.00,0.00,2.47,0.72,7.29,5.16,0.17,0.17,1.66,1.08,-2.86,3.51,1100,1100,1100,1100,1033,1499,1520,11711,711
248524,0,-3.81,-3.65,-0.87,0.081,-0.064,0.959,0.00,0.00,2.65,0.78,6.46,4.42,0.18,0.19,1.70,-4.00,-2.81,3.87,1100,1100,1100,1100,1033,1499,1520,11703,710
248536,0,-8.64,-0.65,-1.35,0.015,-0.026,1.082,0.00,0.00,2.76,0.79,11.41,1.44,0.19,0.19,1.72,11.10,-1.18,5.09,1100,1100,1100,1100,1033,1499,1520,11711,710
248548,0,-0.51,-1.85,-0.13,0.090,-0.063,1.042,0.00,0.00,2.85,0.76,3.36,2.61,0.19,0.19,1.75,-4.60,7.53,2.08,1100,1100,1100,1100,1043,1499,1520,11707,710
248560,0,-4.15,-1.45,-1.36,0.094,-0.052,0.988,0.00,0.00,2.91,0.70,7.06,2.15,0.20,0.19,1.77,3.74,7.08,5.17,1100,1100,1100,1100,1043,1499,1520,11703,710
248572,0,1.97,1.98,-0.24,0.131,-0.024,0.996,0.00,0.00,2.88,0.51,0.90,-1.47,0.20,0.20,1.77,-2.51,-9.55,2.36,1100,1100,1100,1100,1043,1499,1520,11703,710
248584,0,3.18,-3.15,0.27,0.223,-0.080,0.866,0.00,0.00,2.89,0.30,-0.29,3.44,0.20,0.20,1.78,-3.54,7.45,1.11,1100,1100,1100,1100,1046,1499,1520,11703,710
248596,0,1.72,-6.36,0.04,0.196,-0.058,0.874,0.00,0.00,2.85,0.09,1.13,6.46,0.21,0.21,1.78,1.58,14.76,1.68,1100,1100,1100,1100,1046,1499,1520,11703,710
248608,0,4.85,-3.39,0.31,0.200,-0.074,0.884,0.00,0.00,2.80,-0.12,-2.05,3.27,0.20,0.22,1.78,-1.98,-4.36,1.00,1100,1100,1100,1100,1048,1499,1520,11695,710
248620,0,4.05,-5.07,-0.65,0.212,-0.083,0.833,0.00,0.00,2.77,-0.33,-1.28,4.74,0.20,0.23,1.79,-1.21,8.24,3.43,1100,1100,1100,1100,1053,1499,1520,11670,710
248632,0,2.37,1.91,-0.32,0.166,-0.052,0.924,0.00,0.00,2.71,-0.58,0.34,-2.50,0.20,0.23,1.79,3.19,-14.68,2.60,1100,1100,1100,1100,1053,1499,1520,11678,710
248644,0,3.28,-0.51,0.16,0.190,-0.064,0.878,0.00,0.00,2.71,-0.83,-0.57,-0.32,0.20,0.23,1.80,-1.45,-3.17,1.40,1100,1100,1100,1100,1055,1499,1520,11670,710
248656,0,-1.58,3.18,-0.47,0.123,-0.048,0.937,0.00,0.00,2.70,-1.08,4.27,-4.26,0.20,0.22,1.81,5.62,-3.85,3.00,1100,1100,1100,1100,1055,1499,1520,11682,710
248668,0,-0.82,3.00,-0.61,0.091,-0.030,0.996,0.00,0.00,2.70,-1.23,3.52,-4.23,0.21,0.22,1.82,3.80,-8.87,3.35,1100,1100,1100,1100,1056,1499,1520,11703,710
248680,0,-0.74,-0.91,-0.22,0.062,-0.046,0.924,0.00,0.00,2.77,-1.30,3.51,-0.39,0.21,0.21,1.83,-0.96,14.05,2.37,1100,1100,1100,1100,1061,1499,1520,11707,710
248692,0,-3.60,10.16,-0.49,-0.062,-0.018,1.094,0.00,0.00,2.76,-1.35,6.36,-11.51,0.22,0.19,1.85,6.02,-22.86,3.06,1100,1100,1100,1100,1061,1499,1520,11716,710
248704,0,1.48,6.39,0.02,-0.080,-0.032,1.114,0.00,0.00,2.76,-1.31,1.28,-7.71,0.22,0.17,1.86,-3.99,-2.85,1.80,1100,1100,1100,1100,1061,1499,1520,11707,710
248716,0,-1.92,0.65,-0.71,-0.062,-0.033,1.069,0.00,0.00,2.75,-1.21,4.68,-1.86,0.23,0.15,1.88,2.01,15.41,3.67,1100,1100,1100,1100,1061,1499,1520,11703,710
248728,0,-3.05,0.77,-1.73,-0.039,0.016,1.138,0.00,0.00,2.70,-1.07,5.75,-1.83,0.23,0.15,1.91,6.80,3.42,6.23,1100,1100,1100,1100,1078,1499,1520,11703,710
248740,0,-1.59,-4.57,-0.53,0.036,-0.011,0.988,0.00,0.00,2.72,-0.91,4.30,3.66,0.24,0.16,1.93,-0.17,8.18,3.26,1100,1100,1100,1100,1095,1499,1520,11707,710
248752,0,-7.79,-8.79,-0.22,0.099,-0.017,0.969,0.00,0.00,2.77,-0.80,10.56,7.99,0.25,0.17,1.94,10.95,19.01,2.50,1100,1100,1100,1100,1095,1499,1520,11716,710
248764,0,0.48,-4.29,0.34,0.150,-0.034,0.952,0.00,0.00,2.78,-0.84,2.30,3.46,0.25,0.18,1.94,-4.47,-6.55,1.08,1100,1100,1100,1100,1096,1499,1520,11716,710
248776,0,-1.60,-4.00,-0.72,0.194,-0.060,0.878,0.00,0.00,2.90,-0.97,4.50,3.03,0.26,0.19,1.96,-3.76,-4.65,3.75,1100,1100,1100,1100,1096,1499,1520,11707,710
248788,0,-3.61,-3.69,-0.76,0.199,-0.045,0.881,0.00,0.00,2.94,-1.24,6.55,2.45,0.26,0.19,1.96,6.31,8.45,3.86,1100,1100,1100,1100,1098,1499,1520,11703,710
248800,0,1.62,3.66,0.74,0.200,-0.059,0.903,0.00,0.00,2.98,-1.51,1.36,-5.16,0.27,0.19,1.97,-2.33,-22.35,0.11,1100,1100,1100,1100,1099,1499,1520,11691,710
248812,0,2.16,-1.28,-0.91,0.158,-0.079,0.893,0.00,0.00,2.99,-1.73,0.82,-0.44,0.27,0.19,1.99,-1.12,2.67,4.27,1100,1100,1100,1100,1099,1499,1520,11699,710
248824,0,5.34,1.65,-0.10,0.128,-0.060,0.949,0.00,0.00,2.93,-1.94,-2.41,-3.59,0.27,0.18,1.99,-4.70,-3.57,2.24,1100,1100,1100,1100,1110,1498,1521,11695,720
248836,0,5.49,-0.33,-0.72,0.120,-0.069,0.928,0.00,0.00,2.93,-2.05,-2.56,-1.72,0.27,0.18,2.01,-5.35,0.51,3.81,1100,1100,1100,1100,1110,1498,1521,11682,720
248848,0,1.88,1.09,-0.55,0.088,-0.056,0.986,0.00,0.00,2.91,-2.14,1.03,-3.23,0.27,0.17,2.01,1.64,-5.55,3.39,1100,1100,1100,1100,1113,1498,1521,11703,720
248860,0,0.65,4.03,0.72,0.096,-0.040,0.954,0.00,0.00,2.90,-2.23,2.25,-6.26,0.27,0.16,2.01,3.63,-15.38,0.22,1100,1100,1100,1100,1122,1498,1521,11695,720
248872,0,-0.22,1.42,-0.56,0.049,-0.080,0.974,0.00,0.00,2.92,-2.27,3.14,-3.69,0.27,0.16,2.02,2.16,-4.93,3.41,1100,1100,1100,1100,1122,1498,1521,11687,720
248884,0,-0.95,-3.73,0.41,0.094,-0.029,0.949,0.00,0.00,2.93,-2.31,3.87,1.41,0.28,0.15,2.01,3.12,17.60,0.98,1100,1100,1100,1100,1129,1499,1520,11687,720
248896,0,2.51,-4.28,-0.05,0.096,-0.076,0.919,0.00,0.00,2.99,-2.31,0.48,1.98,0.28,0.16,2.02,-4.45,8.08,2.15,1100,1100,1100,1100,1129,1499,1520,11703,720
248908,0,-2.04,-5.85,-0.41,0.123,-0.104,0.892,0.00,0.00,3.13,-2.29,5.17,3.56,0.29,0.16,2.02,2.51,6.04,3.04,1100,1100,1100,1100,1132,1499,1520,11728,720
248920,0,0.88,-5.32,0.49,0.098,-0.085,0.931,0.00,0.00,3.20,-2.21,2.32,3.11,0.29,0.17,2.01,1.47,-3.97,0.79,1100,1100,1100,1100,1139,1499,1520,11728,719
248932,0,3.47,-5.33,-0.22,0.081,-0.121,0.903,0.00,0.00,3.28,-2.15,-0.19,3.18,0.29,0.18,2.01,-5.62,2.22,2.56,1100,1100,1100,1100,1139,1499,1520,11732,719
248944,0,-1.10,-2.38,0.01,0.073,-0.049,0.982,0.00,0.00,3.28,-2.09,4.38,0.29,0.29,0.19,2.01,6.15,-9.46,1.98,1100,1100,1100,1100,1139,1499,1520,11741,719
248956,0,3.12,-1.30,0.19,0.075,-0.057,0.972,0.00,0.00,3.31,-2.12,0.19,-0.82,0.30,0.18,2.02,-2.54,-2.02,1.54,1100,1100,1100,1100,1139,1499,1520,11741,719
248968,0,-2.40,0.19,-0.42,0.094,-0.066,0.975,0.00,0.00,3.35,-2.17,5.75,-2.35,0.30,0.18,2.02,5.30,-0.87,3.08,1100,1100,1100,1100,1144,1499,1520,11724,719
248980,0,-0.64,-1.35,0.08,0.069,-0.014,1.014,0.00,0.00,3.33,-2.19,3.98,-0.84,0.30,0.17,2.02,3.63,0.31,1.81,1100,1100,1100,1100,1149,1499,1520,11724,719
248992,0,0.83,2.15,-0.34,0.074,-0.074,0.935,0.00,0.00,3.42,-2.26,2.59,-4.41,0.31,0.16,2.03,-4.61,-6.25,2.89,1100,1100,1100,1100,1149,1499,1520,11699,719
249004,0,-4.60,-0.93,0.21,0.031,-0.035,1.020,0.00,0.00,3.43,-2.23,8.03,-1.30,0.32,0.16,2.02,8.55,3.52,1.51,1100,1100,1100,1100,1150,1499,1520,11699,719
249016,0,1.11,-2.77,0.32,0.043,-0.027,0.994,0.00,0.00,3.47,-2.17,2.37,0.61,0.32,0.16,2.03,-3.54,5.57,1.24,1157,1149,1153,1141,1150,1499,1520,11703,710
249028,0,-5.18,-4.65,-0.85,0.061,-0.052,0.988,0.00,0.00,3.55,-2.03,8.73,2.62,0.33,0.17,2.03,5.97,-0.22,4.15,1157,1149,1153,1141,1160,1499,1520,11707,710
249040,0,-3.14,-4.61,-0.45,0.025,0.009,1.065,0.00,0.00,3.54,-1.96,6.68,2.65,0.34,0.17,2.04,6.28,9.14,3.17,1157,1149,1153,1141,1161,1499,1520,11724,710
249052,0,1.63,4.62,-0.21,0.052,-0.055,1.018,0.00,0.00,3.62,-1.95,1.98,-6.57,0.34,0.16,2.06,-7.24,-20.76,2.58,1157,1149,1153,1141,1161,1499,1520,11695,710
249064,0,-4.20,-8.50,-0.29,0.107,-0.039,0.970,0.00,0.00,3.60,-1.90,7.80,6.60,0.35,0.17,2.07,8.13,26.40,2.81,1157,1149,1153,1141,1165,1499,1520,11703,710
249076,0,3.72,9.20,-0.66,0.015,-0.030,1.087,0.00,0.00,3.56,-2.04,-0.16,-11.24,0.35,0.15,2.09,-4.58,-26.50,3.76,1157,1149,1153,1141,1165,1499,1520,11670,710
249088,0,6.41,0.56,-1.18,0.088,-0.070,0.950,0.00,0.00,3.58,-2.10,-2.82,-2.65,0.36,0.14,2.13,-12.46,3.99,5.07,1157,1149,1153,1141,1176,1499,1520,11653,710
249100,0,-0.17,2.02,-1.30,0.029,-0.063,1.050,0.00,0.00,3.57,-2.02,3.74,-4.04,0.36,0.14,2.15,4.65,-17.60,5.41,1157,1149,1153,1141,1177,1499,1520,11657,710
249112,0,2.08,7.42,-0.36,-0.007,-0.053,1.076,0.00,0.00,3.57,-2.12,1.49,-9.54,0.36,0.12,2.18,0.89,-10.42,3.07,1157,1149,1153,1141,1177,1499,1520,11649,710
249124,0,6.03,-5.84,0.48,0.144,-0.055,0.918,0.00,0.00,3.57,-2.15,-2.46,3.69,0.36,0.12,2.19,-9.85,22.56,0.99,1187,1163,1197,1161,1184,1499,1520,11637,710
249136,0,0.27,-1.21,-0.75,0.054,-0.044,1.027,0.00,0.00,3.53,-2.05,3.27,-0.83,0.36,0.13,2.19,3.31,-16.40,4.07,1187,1163,1197,1161,1184,1499,1520,11616,710
249148,0,-4.49,4.44,-0.45,-0.019,-0.064,1.058,0.00,0.00,3.58,-2.09,8.07,-6.53,0.37,0.12,2.20,10.90,-12.24,3.32,1187,1163,1197,1161,1186,1499,1520,11624,710
249160,0,-5.92,3.91,-0.10,0.039,-0.086,0.963,0.00,0.00,3.73,-2.17,9.64,-6.08,0.38,0.10,2.23,9.27,-6.01,2.47,1187,1163,1197,1161,1190,1499,1520,11637,710
249172,0,-4.57,-7.29,-1.31,0.121,-0.081,0.937,0.00,0.00,3.86,-2.11,8.43,5.19,0.39,0.11,2.24,3.56,19.60,5.52,1187,1163,1197,1161,1190,1499,1520,11637,710
249184,0,-3.46,-9.50,-0.21,0.099,-0.029,0.936,0.00,0.00,3.97,-2.03,7.43,7.47,0.40,0.12,2.24,-0.68,16.09,2.76,1187,1163,1197,1161,1196,1499,1519,11599,710
249196,0,-2.76,-1.19,0.33,0.005,0.019,0.952,0.00,0.00,4.04,-1.95,6.80,-0.76,0.41,0.12,2.25,-0.22,-12.42,1.42,1187,1163,1197,1161,1196,1499,1519,11595,710
249208,0,1.12,8.92,-0.86,-0.025,0.008,0.929,0.00,0.00,4.02,-1.88,2.90,-10.79,0.41,0.11,2.28,-5.36,-38.04,4.42,1187,1163,1197,1161,1197,1499,1519,11616,710
249220,0,0.65,4.25,-2.96,-0.040,-0.041,0.996,0.00,0.00,3.89,-1.81,3.25,-6.06,0.42,0.10,2.33,0.86,-1.85,9.72,1191,1203,1203,1191,1197,1499,1520,11637,710
249232,0,3.43,6.97,-2.73,-0.064,0.042,1.154,0.00,0.00,3.65,-1.85,0.21,-8.82,0.42,0.07,2.39,-1.15,3.60,9.22,1191,1203,1203,1191,1197,1499,1520,11620,710
249244,0,-0.05,6.52,-2.60,-0.089,0.043,1.082,0.00,0.00,3.49,-1.87,3.54,-8.39,0.42,0.04,2.48,8.34,8.43,8.99,1191,1203,1203,1191,1204,1499,1520,11641,710
249256,0,3.28,12.18,-3.47,-0.104,-0.019,0.990,0.00,0.00,3.34,-1.95,0.06,-14.12,0.42,0.01,2.60,2.69,-13.61,11.28,1191,1203,1203,1191,1204,1499,1520,11624,710
249268,0,9.21,13.10,-4.68,-0.018,-0.039,1.115,0.00,0.00,3.24,-1.97,-5.97,-15.06,0.42,-0.01,2.72,-14.02,-23.06,14.41,1191,1203,1203,1191,1207,1499,1520,11637,710
249280,0,-1.13,4.86,-3.06,-0.015,-0.050,1.112,0.00,0.00,3.27,-1.90,4.40,-6.76,0.42,-0.03,2.82,3.07,-1.84,10.46,1191,1203,1203,1191,1214,1499,1520,11616,710
249292,0,-6.02,-5.16,-3.92,-0.021,-0.044,1.072,0.00,0.00,3.23,-1.90,9.25,3.27,0.43,-0.05,2.93,15.13,50.25,12.72,1191,1203,1203,1191,1214,1499,1520,11612,710
249304,0,-3.73,7.86,-2.45,-0.154,-0.027,1.198,0.00,0.00,3.17,-1.79,6.91,-9.65,0.43,-0.06,3.00,12.59,-22.18,9.13,1191,1203,1203,1191,1217,1499,1520,11599,710
249316,0,4.07,-9.61,-1.36,0.006,-0.017,0.985,0.00,0.00,3.18,-1.61,-0.89,8.00,0.43,-0.06,3.09,-7.66,34.98,6.50,1252,1196,1250,1170,1217,1499,1520,11570,711
249328,0,0.85,6.89,-4.62,0.015,-0.099,1.032,0.00,0.00,3.28,-1.46,2.43,-8.35,0.44,-0.06,3.20,-4.75,-31.70,14.74,1252,1196,1250,1170,1217,1499,1520,11566,711
249340,0,-3.44,-10.47,-2.93,0.064,-0.048,1.075,0.00,0.00,3.37,-1.11,6.81,9.36,0.45,-0.02,3.27,3.28,-10.56,10.59,1252,1196,1250,1170,1219,1499,1520,11566,711
249352,0,-5.92,-6.93,-3.52,0.096,-0.041,0.973,0.00,0.00,3.44,-1.22,9.36,5.71,0.45,-0.04,3.38,10.44,36.68,12.18,1252,1196,1250,1170,1219,1499,1520,11566,711
249364,0,-0.66,2.95,-2.39,0.019,-0.023,1.097,0.00,0.00,3.48,-1.09,4.14,-4.04,0.46,-0.02,3.43,-0.00,-38.91,9.41,1252,1196,1250,1170,1224,1499,1521,11562,711
249376,0,-2.32,-4.04,-1.61,0.147,-0.090,0.862,0.00,0.00,3.63,-1.21,5.95,2.83,0.47,-0.03,3.53,1.10,17.86,7.55,1252,1196,1250,1170,1224,1499,1521,11562,711
249388,0,0.08,5.89,-2.24,0.096,-0.051,0.985,0.00,0.00,3.74,-1.24,3.66,-7.14,0.48,-0.02,3.60,-7.16,-42.90,9.20,1252,1196,1250,1170,1226,1499,1520,11574,711
249400,0,-3.36,-5.95,-3.39,0.187,-0.115,0.918,0.00,0.00,3.85,-1.46,7.20,4.49,0.49,-0.03,3.70,0.96,31.71,12.17,1252,1196,1250,1170,1226,1499,1520,11562,711
249412,0,-6.89,-4.53,-3.47,0.127,-0.072,0.977,0.00,0.00,4.03,-1.57,10.92,2.96,0.50,-0.02,3.79,8.10,7.05,12.46,1252,1196,1250,1170,1226,1499,1520,11549,711
249424,0,-2.97,17.19,-4.77,0.025,-0.028,1.137,0.00,0.00,3.98,-1.79,6.95,-18.98,0.50,-0.05,3.90,8.46,-50.70,15.83,1213,1267,1205,1219,1230,1499,1520,11499,711
249436,0,-3.98,-16.87,-3.42,0.135,-0.085,0.895,0.00,0.00,4.10,-1.80,8.08,15.07,0.50,-0.04,3.99,11.43,64.30,12.54,1213,1267,1205,1219,1230,1499,1520,11520,711
249448,0,5.82,23.55,-4.34,-0.145,-0.035,1.239,0.00,0.00,4.06,-1.90,-1.75,-25.44,0.51,-0.07,4.11,-6.47,-80.46,14.95,1213,1267,1205,1219,1234,1499,1520,11487,711
249460,0,9.12,2.80,-2.09,0.085,-0.125,0.945,0.00,0.00,4.02,-2.13,-5.10,-4.92,0.50,-0.10,4.21,-9.95,27.02,9.44,1213,1267,1205,1219,1245,1499,1520,11495,711
249472,0,8.27,7.27,-1.95,0.020,-0.113,0.995,0.00,0.00,4.12,-1.96,-4.15,-9.23,0.51,-0.08,4.29,-14.30,-52.73,9.16,1213,1267,1205,1219,1245,1499,1520,11470,711
249484,0,9.03,11.85,-2.26,0.101,-0.104,1.041,0.00,0.00,4.07,-2.15,-4.96,-14.00,0.51,-0.12,4.39,-14.11,-20.17,10.04,1213,1267,1205,1219,1247,1499,1520,11478,711
249496,0,-0.70,-16.10,-2.30,0.160,-0.163,0.926,0.00,0.00,4.18,-1.93,4.88,14.17,0.51,-0.09,4.45,2.87,37.55,10.20,1213,1267,1205,1219,1247,1499,1520,11458,711
249508,0,-8.69,4.42,-4.12,-0.000,-0.131,1.128,0.00,0.00,4.26,-1.96,12.95,-6.38,0.52,-0.12,4.54,18.28,-10.64,14.84,1213,1267,1205,1219,1248,1499,1520,11478,711
249520,0,-13.60,-19.35,-2.75,0.092,-0.096,0.960,0.00,0.00,4.22,-2.06,17.81,17.29,0.52,-0.14,4.61,33.96,110.00,11.50,1214,1298,1220,1260,1254,1499,1520,11478,711
249532,0,-14.10,-23.17,-3.25,0.011,-0.048,0.983,0.00,0.00,4.27,-1.88,18.37,21.28,0.53,-0.11,4.68,34.40,64.30,12.81,1214,1298,1220,1260,1254,1499,1520,11495,711
249544,0,-3.02,22.79,-4.69,-0.202,0.033,1.219,0.00,0.00,4.24,-2.12,7.26,-24.91,0.53,-0.16,4.81,12.82,-56.01,16.54,1214,1298,1220,1260,1260,1499,1520,11474,711
249556,0,8.97,-0.19,-2.40,0.055,0.044,0.936,0.00,0.00,4.13,-2.29,-4.84,-2.09,0.53,-0.18,4.92,-5.70,38.73,10.92,1214,1298,1220,1260,1260,1499,1520,11462,711
249568,0,16.29,5.99,-2.82,0.084,-0.023,0.895,0.00,0.00,4.17,-2.19,-12.12,-8.18,0.53,-0.15,5.00,-20.36,-62.08,12.05,1214,1298,1220,1260,1263,1499,1520,11483,711
249580,0,19.65,26.43,-3.73,0.061,-0.041,1.050,0.00,0.00,4.14,-2.34,-15.51,-28.76,0.53,-0.16,5.12,-28.75,-106.42,14.44,1214,1298,1220,1260,1273,1499,1520,11483,711
249592,0,16.55,8.91,-2.72,0.197,-0.068,0.958,0.00,0.00,4.06,-2.53,-12.49,-11.45,0.53,-0.18,5.23,-23.97,-24.92,12.03,1214,1298,1220,1260,1273,1499,1520,11428,711
249604,0,13.00,2.35,-2.47,0.216,-0.089,0.930,0.00,0.00,3.98,-2.64,-9.03,-4.99,0.52,-0.19,5.34,-18.56,-13.50,11.51,1214,1298,1220,1260,1275,1499,1520,11416,711
249616,0,10.66,3.57,-2.72,0.164,-0.123,0.960,0.00,0.00,3.92,-2.80,-6.75,-6.37,0.52,-0.21,5.44,-15.90,-6.90,12.24,1272,1308,1266,1254,1275,1499,1520,11412,711
249628,0,6.18,-5.67,-2.71,0.202,-0.121,0.918,0.00,0.00,3.85,-3.04,-2.33,2.63,0.52,-0.23,5.54,-5.59,44.18,12.31,1272,1308,1266,1254,1279,1499,1520,11428,711
249640,0,1.03,-20.24,-2.81,0.269,-0.095,0.839,0.00,0.00,3.67,-3.29,2.64,16.95,0.52,-0.24,5.63,10.34,88.04,12.64,1272,1308,1266,1254,1280,1499,1520,11395,711
249652,0,-5.36,-20.04,-3.74,0.168,-0.109,0.894,0.00,0.00,3.53,-3.51,8.89,16.53,0.51,-0.23,5.72,25.57,73.35,15.06,1272,1308,1266,1254,1280,1499,1520,11416,711
249664,0,-9.05,-0.69,-4.39,-0.029,-0.106,1.000,0.00,0.00,3.53,-3.77,12.58,-3.08,0.51,-0.26,5.83,28.84,24.75,16.80,1272,1308,1266,1254,1282,1499,1520,11399,711
249676,0,-13.91,-4.32,-3.73,-0.017,-0.089,0.980,0.00,0.00,3.63,-3.94,17.55,0.38,0.52,-0.29,5.94,32.34,48.09,15.27,1272,1308,1266,1254,1282,1499,1520,11416,711
249688,0,-17.61,-2.54,-4.67,-0.030,-0.033,0.989,0.00,0.00,3.76,-3.93,21.37,-1.39,0.53,-0.28,6.05,34.30,5.13,17.72,1272,1308,1266,1254,1284,1499,1520,11412,711
249700,0,-19.00,12.49,-6.02,-0.122,0.002,1.062,0.00,0.00,3.89,-3.84,22.88,-16.33,0.54,-0.29,6.19,32.50,-56.67,21.25,1272,1308,1266,1254,1295,1499,1520,11395,711
249712,0,-19.98,24.39,-7.05,-0.246,-0.007,1.185,0.00,0.00,4.06,-3.75,24.04,-28.15,0.56,-0.32,6.38,29.17,-80.23,24.01,1272,1308,1266,1254,1295,1499,1520,11362,711
249724,0,-14.26,27.06,-6.85,-0.357,0.060,1.338,0.00,0.00,4.16,-3.64,18.42,-30.70,0.57,-0.36,6.58,14.96,-68.49,23.69,1297,1287,1349,1247,1298,1499,1520,11370,710
249736,0,-14.59,40.40,-7.26,-0.479,0.069,1.485,0.00,0.00,4.31,-3.67,18.91,-44.07,0.59,-0.43,6.80,12.99,-84.06,24.95,1297,1287,1349,1247,1298,1499,1520,11341,710
249748,0,-17.70,25.19,-6.55,-0.318,0.061,1.372,0.00,0.00,4.56,-3.57,22.26,-28.76,0.61,-0.49,7.01,15.94,-26.95,23.39,1297,1287,1349,1247,1300,1499,1520,11366,710
249760,0,-15.88,-11.87,-4.97,-0.054,0.052,1.085,0.00,0.00,4.88,-2.94,20.76,8.93,0.64,-0.46,7.16,10.04,29.72,19.58,1297,1287,1349,1247,1300,1499,1520,11374,710
249772,0,-25.64,1.41,-4.60,0.073,0.048,1.132,0.00,0.00,5.28,-2.58,30.92,-4.00,0.67,-0.44,7.30,27.55,-47.92,18.81,1297,1287,1349,1247,1300,1499,1520,11378,710
249784,0,-28.22,-16.03,-2.97,0.320,0.035,0.898,0.00,0.00,5.70,-2.39,33.92,13.64,0.70,-0.40,7.41,32.48,1.35,14.83,1297,1287,1349,1247,1300,1499,1521,11399,710
249796,0,-27.12,-30.73,-2.30,0.511,0.048,0.734,0.00,0.00,6.25,-2.36,33.38,28.37,0.73,-0.33,7.51,25.86,21.39,13.25,1297,1287,1349,1247,1300,1499,1521,11391,710
249808,0,-24.53,-38.94,-2.08,0.669,0.064,0.561,0.00,0.00,6.84,-2.63,31.37,36.31,0.76,-0.25,7.60,17.81,34.36,12.80,1297,1287,1349,1247,1300,1499,1521,11387,710
249820,0,-21.73,-31.25,-2.81,0.615,0.109,0.533,0.00,0.00,7.37,-3.08,29.11,28.17,0.80,-0.17,7.70,11.10,-19.20,14.73,1352,1294,1334,1220,1305,1499,1521,11370,711
249832,0,-17.41,-31.57,-3.14,0.569,0.143,0.556,0.00,0.00,7.80,-3.66,25.21,27.92,0.84,-0.10,7.83,1.51,4.75,15.67,1352,1294,1334,1220,1305,1499,1521,11370,711
249844,0,-14.22,-18.03,-3.57,0.444,0.128,0.598,0.00,0.00,8.26,-4.18,22.48,13.85,0.87,-0.07,7.99,-6.38,-3.92,16.92,1352,1294,1334,1220,1308,1499,1520,11378,711
249856,0,-12.14,-7.87,-4.52,0.291,0.112,0.691,0.00,0.00,8.80,-4.53,20.93,3.34,0.91,-0.06,8.18,-11.75,-21.94,19.47,1352,1294,1334,1220,1308,1499,1520,11374,711
249868,0,-5.91,0.81,-6.09,0.202,0.107,0.872,0.00,0.00,9.32,-4.82,15.23,-5.63,0.95,-0.06,8.39,-22.70,-21.56,23.60,1352,1294,1334,1220,1308,1499,1520,11349,711
249880,0,-2.56,5.41,-7.11,0.174,0.135,0.907,0.00,0.00,9.86,-5.09,12.42,-10.50,0.99,-0.09,8.63,-26.20,-5.63,26.41,1352,1294,1334,1220,1310,1499,1520,11370,711
249892,0,-2.39,13.65,-8.90,0.099,0.151,0.942,0.00,0.00,10.37,-5.33,12.75,-18.97,1.02,-0.13,8.87,-20.61,-30.14,31.13,1352,1294,1334,1220,1310,1499,1520,11329,711
249904,0,-1.95,20.37,-9.76,-0.011,0.155,1.038,0.00,0.00,10.90,-5.62,12.85,-25.99,1.06,-0.19,9.13,-20.42,-26.17,33.52,1352,1294,1334,1220,1310,1499,1520,11337,711
249916,0,-2.69,27.11,-10.66,-0.166,0.133,1.145,0.00,0.00,11.52,-5.90,14.21,-33.01,1.10,-0.26,9.42,-20.75,-25.89,36.06,1269,1391,1301,1279,1310,1499,1520,11374,710
249928,0,-4.84,25.32,-10.97,-0.257,0.099,1.212,0.00,0.00,12.15,-6.10,16.99,-31.42,1.14,-0.35,9.75,-16.05,-4.29,37.17,1269,1391,1301,1279,1321,1499,1520,11345,710
249940,0,-6.38,19.30,-9.81,-0.300,0.061,1.200,0.00,0.00,12.75,-6.17,19.13,-25.48,1.17,-0.43,10.07,-9.37,19.62,34.60,1269,1391,1301,1279,1325,1499,1520,11358,710
249952,0,-5.92,19.58,-10.86,-0.335,0.032,1.241,0.00,0.00,13.27,-6.09,19.19,-25.66,1.21,-0.49,10.41,-4.43,4.07,37.55,1269,1391,1301,1279,1325,1499,1520,11329,710
249964,0,-7.37,12.51,-9.91,-0.316,0.010,1.210,0.00,0.00,13.76,-5.84,21.14,-18.35,1.24,-0.54,10.74,0.65,11.57,35.52,1269,1391,1301,1279,1327,1499,1520,11329,710
249976,0,-9.47,4.34,-8.54,-0.265,0.005,1.201,0.00,0.00,14.18,-5.40,23.65,-9.74,1.27,-0.57,11.05,6.54,8.23,32.40,1269,1391,1301,1279,1327,1499,1520,11291,710
249988,0,-8.17,-5.65,-7.17,-0.209,0.008,1.153,0.00,0.00,14.53,-4.72,22.70,0.93,1.31,-0.56,11.33,3.29,-0.59,29.25,1269,1391,1301,1279,1327,1499,1520,11295,710
250000,0,-3.59,-22.33,-5.29,-0.084,-0.001,1.049,0.00,0.00,14.86,-3.85,18.45,18.48,1.34,-0.51,11.58,-10.08,14.66,24.80,1269,1391,1301,1279,1328,1499,1520,11283,710
250012,0,-6.21,-33.52,-4.49,0.150,-0.061,0.875,0.00,0.00,15.29,-3.06,21.50,30.46,1.38,-0.44,11.81,-10.17,21.57,23.04,1269,1391,1301,1279,1328,1499,1520,11283,710
250024,0,-4.84,-40.63,-5.21,0.445,-0.109,0.723,0.00,0.00,15.83,-2.61,20.67,38.02,1.42,-0.34,12.04,-14.80,7.76,25.06,1290,1294,1438,1290,1330,1499,1520,11295,710
250036,0,1.44,-24.08,-6.66,0.524,-0.101,0.699,0.00,0.00,16.31,-2.77,14.87,21.31,1.45,-0.27,12.26,-23.07,-36.99,28.92,1290,1294,1438,1290,1330,1499,1520,11316,710
250048,0,3.27,-16.04,-7.35,0.497,-0.098,0.771,0.00,0.00,16.76,-3.26,13.49,12.77,1.49,-0.23,12.50,-26.06,-26.52,30.87,1290,1294,1438,1290,1330,1499,1520,11266,710
250060,0,5.48,-14.08,-8.70,0.390,-0.110,0.896,0.00,0.00,17.12,-3.72,11.64,10.36,1.52,-0.22,12.76,-29.19,8.01,34.51,1290,1294,1438,1290,1330,1499,1520,11312,710
250072,0,11.48,-15.20,-8.89,0.379,-0.075,0.955,0.00,0.00,17.24,-4.04,5.75,11.16,1.55,-0.22,13.04,-33.64,33.86,35.26,1290,1294,1438,1290,1330,1499,1520,11304,710
250084,0,13.12,-21.44,-6.94,0.422,-0.077,0.886,0.00,0.00,17.35,-4.29,4.23,17.15,1.58,-0.18,13.27,-34.47,28.56,30.62,1290,1294,1438,1290,1330,1499,1520,11316,710
250096,0,17.21,-15.01,-5.58,0.352,-0.055,0.881,0.00,0.00,17.39,-4.59,0.18,10.42,1.61,-0.17,13.50,-40.78,8.41,27.44,1290,1294,1438,1290,1330,1499,1520,11299,710
250108,0,16.03,-14.54,-7.29,0.307,-0.060,0.976,0.00,0.00,17.51,-4.79,1.48,9.75,1.63,-0.16,13.78,-38.87,24.94,32.00,1290,1294,1438,1290,1329,1499,1521,11279,710
250120,0,15.63,-16.24,-8.45,0.309,-0.043,0.982,0.00,0.00,17.61,-4.95,1.97,11.29,1.66,-0.16,14.11,-33.94,44.49,35.24,1256,1386,1354,1320,1329,1499,1521,11287,711
250132,0,14.03,-6.87,-8.32,0.169,0.011,1.085,0.00,0.00,17.62,-4.99,3.59,1.88,1.68,-0.16,14.43,-26.94,6.52,35.23,1256,1386,1354,1320,1329,1499,1521,11308,711
250144,0,14.64,-10.02,-10.17,0.106,0.051,1.189,0.00,0.00,17.51,-4.93,2.87,5.09,1.70,-0.17,14.76,-25.25,36.50,40.18,1256,1386,1354,1320,1331,1498,1521,11324,711
250156,0,13.90,-11.74,-10.27,0.082,0.089,1.196,0.00,0.00,17.31,-4.61,3.42,7.13,1.72,-0.16,15.07,-21.06,19.32,40.76,1256,1386,1354,1320,1331,1498,1521,11324,711
250168,0,12.44,-18.43,-9.53,0.206,0.101,1.047,0.00,0.00,17.02,-4.31,4.58,14.12,1.74,-0.14,15.35,-15.90,25.09,39.17,1256,1386,1354,1320,1332,1499,1520,11324,711
250180,0,11.48,-4.36,-10.62,0.159,0.109,1.087,0.00,0.00,16.78,-4.18,5.29,0.19,1.76,-0.12,15.64,-18.76,-27.40,42.19,1256,1386,1354,1320,1334,1499,1520,11304,711
250192,0,9.64,1.90,-10.70,0.064,0.111,1.138,0.00,0.00,16.55,-4.11,6.91,-6.01,1.78,-0.12,15.94,-18.26,-32.86,42.69,1256,1386,1354,1320,1334,1499,1520,11304,711
250204,0,5.58,7.50,-10.97,-0.048,0.152,1.183,0.00,0.00,16.35,-4.11,10.78,-11.61,1.81,-0.15,16.25,-11.78,-15.42,43.67,1256,1386,1354,1320,1335,1499,1520,11262,711
250216,0,-1.07,3.26,-11.45,-0.053,0.144,1.123,0.00,0.00,16.25,-3.93,17.32,-7.18,1.84,-0.17,16.55,-1.31,-1.95,45.17,1290,1382,1378,1290,1335,1499,1520,11254,711
250228,0,-6.05,7.89,-13.24,-0.074,0.113,1.183,0.00,0.00,16.28,-3.69,22.34,-11.58,1.87,-0.17,16.87,5.14,-34.48,49.98,1290,1382,1378,1290,1335,1499,1520,11283,711
250240,0,-10.60,14.66,-12.50,-0.124,0.094,1.183,0.00,0.00,16.40,-3.40,27.01,-18.06,1.90,-0.17,17.17,14.38,-68.83,48.42,1290,1382,1378,1290,1335,1499,1520,11283,711
250252,0,-15.19,3.90,-10.34,-0.036,0.043,1.115,0.00,0.00,16.57,-3.06,31.76,-6.96,1.93,-0.16,17.44,25.67,-46.93,43.28,1290,1382,1378,1290,1335,1499,1520,11324,711
250264,0,-16.26,-8.03,-8.87,0.056,-0.032,1.061,0.00,0.00,16.75,-2.83,33.01,5.19,1.96,-0.15,17.71,30.04,5.67,39.89,1290,1382,1378,1290,1335,1499,1520,11304,711
250276,0,-8.22,3.11,-8.96,0.030,-0.030,1.104,0.00,0.00,16.86,-2.57,25.08,-5.69,1.99,-0.14,17.97,15.70,-48.08,40.36,1290,1382,1378,1290,1335,1499,1520,11324,711
250288,0,-7.16,-1.35,-8.54,0.030,-0.049,1.072,0.00,0.00,17.04,-2.25,24.19,-0.91,2.02,-0.10,18.19,13.31,-53.94,39.54,1290,1382,1378,1290,1335,1499,1520,11283,711
250300,0,-7.48,4.31,-10.33,0.013,-0.060,1.106,0.00,0.00,17.21,-2.16,24.69,-6.46,2.04,-0.10,18.41,15.57,-48.99,44.23,1290,1382,1378,1290,1335,1499,1520,11291,711
250312,0,-5.78,5.40,-11.40,-0.129,-0.097,1.203,0.00,0.00,17.36,-2.08,23.13,-7.47,2.07,-0.11,18.65,15.52,-26.48,47.15,1290,1382,1378,1290,1335,1499,1520,11291,711
250324,0,0.24,-4.54,-10.71,-0.108,-0.092,1.155,0.00,0.00,17.34,-1.79,17.10,2.75,2.09,-0.11,18.88,11.60,12.25,45.65,1278,1364,1374,1324,1335,1499,1520,11266,710
250336,0,3.56,7.18,-10.73,-0.045,-0.050,1.272,0.00,0.00,17.21,-1.57,13.65,-8.75,2.10,-0.10,19.11,10.22,-50.35,45.95,1278,1364,1374,1324,1335,1499,1520,11266,710
250348,0,7.42,7.93,-8.61,-0.142,0.022,1.321,0.00,0.00,16.94,-1.39,9.52,-9.32,2.11,-0.10,19.32,8.52,-42.43,40.85,1278,1364,1374,1324,1336,1499,1520,11295,710
250360,0,8.00,-0.72,-6.55,-0.089,0.075,1.227,0.00,0.00,16.53,-1.10,8.53,-0.38,2.12,-0.08,19.49,12.03,-18.63,35.86,1278,1364,1374,1324,1336,1499,1520,11324,710
250372,0,4.33,-4.17,-6.78,-0.035,0.087,1.165,0.00,0.00,16.09,-0.92,11.76,3.25,2.12,-0.08,19.68,22.45,-1.18,36.62,1278,1364,1374,1324,1336,1499,1520,11320,710
250384,0,3.13,-0.31,-7.64,-0.073,0.087,1.187,0.00,0.00,15.53,-0.88,12.40,-0.56,2.12,-0.09,19.89,30.87,14.55,38.99,1278,1364,1374,1324,1336,1499,1520,11308,710
250396,0,3.22,-8.18,-8.17,-0.091,0.041,1.132,0.00,0.00,14.92,-0.68,11.70,7.50,2.12,-0.09,20.11,33.81,41.90,40.52,1278,1364,1374,1324,1336,1499,1520,11295,710
250408,0,4.29,-0.27,-9.34,-0.155,-0.023,1.186,0.00,0.00,14.38,-0.44,10.10,-0.17,2.12,-0.10,20.35,28.74,5.94,43.70,1278,1364,1374,1324,1336,1499,1520,11324,710
250420,0,6.01,-11.36,-8.71,-0.196,-0.094,1.176,0.00,0.00,13.88,-0.02,7.87,11.34,2.11,-0.09,20.59,22.55,39.04,42.37,1294,1358,1400,1292,1335,1499,1521,11308,711
250432,0,12.32,-29.21,-7.25,-0.046,-0.101,1.024,0.00,0.00,13.35,0.71,1.03,29.92,2.11,-0.04,20.81,7.85,59.91,38.94,1294,1358,1400,1292,1335,1499,1521,11295,711
250444,0,21.76,-11.22,-6.96,0.072,-0.165,0.976,0.00,0.00,12.93,1.13,-8.83,12.34,2.10,0.02,21.02,-12.52,-29.28,38.41,1294,1358,1400,1292,1335,1499,1521,11308,711
250456,0,22.60,3.41,-6.81,-0.099,-0.101,1.106,0.00,0.00,12.44,1.16,-10.16,-2.25,2.10,0.01,21.28,-12.64,-20.88,38.30,1294,1358,1400,1292,1335,1499,1521,11324,711
250468,0,19.42,8.11,-7.84,-0.290,-0.096,1.271,0.00,0.00,11.97,1.31,-7.44,-6.80,2.09,-0.01,21.57,-7.24,-4.54,41.16,1294,1358,1400,1292,1335,1499,1521,11312,711
250480,0,20.09,-4.65,-8.09,-0.342,-0.090,1.328,0.00,0.00,11.56,1.75,-8.53,6.40,2.09,-0.01,21.90,-10.60,36.49,42.13,1294,1358,1400,1292,1336,1499,1520,11291,711
250492,0,21.99,-13.29,-6.77,-0.347,-0.088,1.292,0.00,0.00,11.11,2.50,-10.87,15.80,2.08,0.01,22.21,-12.00,33.38,39.13,1294,1358,1400,1292,1336,1499,1520,11287,711
250504,0,23.36,-28.83,-5.08,-0.229,-0.087,1.155,0.00,0.00,10.64,3.52,-12.72,32.35,2.07,0.08,22.48,-12.67,49.36,35.16,1294,1358,1400,1292,1336,1499,1520,11291,711
250516,0,26.17,-47.92,-4.65,0.002,-0.061,0.986,0.00,0.00,10.17,4.70,-16.00,52.62,2.06,0.18,22.71,-17.86,69.65,34.32,1388,1318,1422,1216,1336,1499,1520,11295,711
250528,0,25.97,-53.52,-4.75,0.356,-0.017,0.756,0.00,0.00,9.63,5.61,-16.34,59.13,2.05,0.33,22.90,-13.86,36.20,34.78,1388,1318,1422,1216,1336,1499,1520,11308,711
250540,0,22.24,-21.55,-7.54,0.518,0.006,0.738,0.00,0.00,9.10,5.63,-13.14,27.18,2.04,0.44,23.11,-6.68,-82.86,41.96,1388,1318,1422,1216,1336,1499,1520,11324,711
250552,0,20.60,0.56,-9.72,0.383,0.018,0.815,0.00,0.00,8.58,5.08,-12.02,4.53,2.03,0.48,23.36,-4.44,-81.95,47.65,1388,1318,1422,1216,1336,1499,1520,11308,711
250564,0,20.34,11.27,-11.19,0.231,0.009,0.864,0.00,0.00,8.06,4.54,-12.28,-6.73,2.01,0.49,23.63,-2.78,-60.06,51.60,1388,1318,1422,1216,1336,1499,1520,11291,711
250576,0,22.67,15.91,-12.16,0.061,-0.016,0.948,0.00,0.00,7.61,4.18,-15.06,-11.73,2.00,0.48,23.95,-5.22,-49.05,54.36,1388,1318,1422,1216,1336,1499,1520,11308,711
250588,0,23.34,12.39,-12.09,0.027,0.016,0.980,0.00,0.00,7.17,4.07,-16.16,-8.33,1.98,0.49,24.27,-1.72,-40.24,54.49,1388,1318,1422,1216,1336,1499,1520,11291,711
250600,0,17.91,7.83,-11.61,0.070,0.062,1.023,0.00,0.00,6.73,4.06,-11.18,-3.78,1.96,0.52,24.59,15.25,-49.66,53.61,1388,1318,1422,1216,1336,1499,1520,11274,711
250612,0,12.50,13.05,-10.94,0.006,0.099,1.115,0.00,0.00,6.16,3.90,-6.34,-9.15,1.94,0.52,24.90,31.73,-49.06,52.26,1388,1318,1422,1216,1336,1499,1520,11258,711
250624,0,6.49,2.85,-9.84,0.044,0.081,1.071,0.00,0.00,5.55,3.83,-0.95,0.98,1.91,0.53,25.19,44.81,-5.98,49.79,1276,1386,1388,1294,1336,1499,1520,11254,710
250636,0,7.03,-0.96,-10.86,0.139,0.048,0.984,0.00,0.00,4.88,3.75,-2.15,4.71,1.89,0.54,25.49,44.18,-2.51,52.63,1276,1386,1388,1294,1336,1499,1520,11270,710
250648,0,9.68,12.29,-11.68,0.081,0.045,0.987,0.00,0.00,4.14,3.50,-5.54,-8.79,1.86,0.54,25.81,40.47,-43.86,55.00,1276,1386,1388,1294,1336,1499,1520,11270,710
250660,0,9.11,18.73,-13.29,-0.070,0.040,1.125,0.00,0.00,3.45,3.24,-5.66,-15.49,1.83,0.53,26.14,39.33,-46.39,59.36,1276,1386,1388,1294,1335,1499,1520,11266,710
250672,0,7.18,14.22,-13.96,-0.208,0.024,1.202,0.00,0.00,2.81,3.12,-4.37,-11.10,1.80,0.50,26.50,41.05,-7.61,61.39,1276,1386,1388,1294,1335,1499,1520,11245,710
250684,0,5.11,1.80,-13.04,-0.283,0.015,1.182,0.00,0.00,2.15,3.33,-2.96,1.52,1.77,0.50,26.86,45.35,26.28,59.47,1276,1386,1388,1294,1335,1499,1520,11291,710
250696,0,1.41,0.22,-12.84,-0.377,-0.030,1.245,0.00,0.00,1.55,3.78,0.14,3.56,1.74,0.50,27.23,50.92,13.59,59.33,1276,1386,1388,1294,1335,1499,1520,11279,710
250708,0,2.49,-21.30,-11.29,-0.322,-0.100,1.175,0.00,0.00,0.97,4.70,-1.52,26.00,1.71,0.56,27.58,48.43,42.20,55.81,1276,1386,1388,1294,1336,1499,1520,11279,710
250720,0,3.56,-44.59,-7.92,-0.109,-0.150,0.900,0.00,0.00,0.40,5.86,-3.17,50.44,1.67,0.67,27.88,47.50,72.14,47.69,1330,1358,1434,1222,1336,1499,1520,11274,711
250732,0,8.79,-34.27,-9.56,0.088,-0.214,0.856,0.00,0.00,-0.15,6.71,-8.94,40.98,1.64,0.78,28.19,37.30,2.80,52.10,1330,1358,1434,1222,1336,1499,1520,11274,711
250744,0,13.97,-27.95,-10.50,0.144,-0.186,0.850,0.00,0.00,-0.75,7.22,-14.73,35.17,1.60,0.89,28.50,29.45,-22.23,54.75,1330,1358,1434,1222,1335,1499,1521,11283,711
250756,0,17.81,-13.95,-12.34,0.066,-0.214,0.942,0.00,0.00,-1.41,7.48,-19.22,21.43,1.55,0.96,28.82,25.92,-33.67,59.68,1330,1358,1434,1222,1335,1499,1521,11241,711
250768,0,28.26,-2.76,-12.53,0.014,-0.236,1.066,0.00,0.00,-2.15,7.59,-30.41,10.35,1.50,1.00,29.16,9.61,-39.33,60.49,1330,1358,1434,1222,1335,1499,1521,11262,711
250780,0,40.55,3.99,-9.87,-0.048,-0.143,1.142,0.00,0.00,-3.09,7.52,-43.64,3.53,1.44,1.01,29.50,-5.99,-7.03,54.17,1330,1358,1434,1222,1336,1499,1520,11262,711
250792,0,44.72,15.34,-9.73,-0.093,-0.109,1.248,0.00,0.00,-4.11,7.29,-48.83,-8.05,1.38,0.99,29.86,-10.11,-15.14,54.20,1330,1358,1434,1222,1336,1499,1520,11229,711
250804,0,43.10,36.59,-10.31,-0.382,-0.094,1.442,0.00,0.00,-5.13,6.94,-48.23,-29.65,1.32,0.94,30.26,-5.13,-55.67,56.03,1330,1358,1434,1222,1336,1499,1520,11254,711
250816,0,44.33,24.76,-10.11,-0.556,-0.138,1.524,0.00,0.00,-6.05,6.65,-50.38,-18.10,1.26,0.86,30.67,-10.99,31.69,55.96,1322,1370,1412,1240,1336,1499,1520,11241,711
250828,0,53.15,14.08,-10.62,-0.469,-0.151,1.467,0.00,0.00,-6.99,6.80,-60.13,-7.27,1.19,0.83,31.08,-29.22,27.53,57.62,1322,1370,1412,1240,1336,1499,1520,11249,711
250840,0,58.55,10.63,-10.29,-0.444,-0.103,1.496,0.00,0.00,-7.87,7.16,-66.42,-3.47,1.13,0.83,31.42,-43.11,-0.95,57.13,1322,1370,1412,1240,1336,1499,1520,11220,711
250852,0,58.16,0.91,-8.90,-0.394,0.005,1.504,0.00,0.00,-8.69,7.50,-66.86,6.59,1.07,0.82,31.73,-46.80,31.67,53.98,1322,1370,1412,1240,1336,1499,1520,11224,711
250864,0,50.47,-7.74,-8.06,-0.296,0.047,1.424,0.00,0.00,-9.41,7.99,-59.88,15.72,1.02,0.84,32.02,-37.24,40.30,52.18,1322,1370,1412,1240,1336,1499,1520,11254,711
250876,0,44.07,-13.59,-9.00,-0.198,0.045,1.327,0.00,0.00,-10.02,8.50,-54.09,22.09,0.97,0.88,32.29,-32.69,42.23,54.78,1322,1370,1412,1240,1336,1499,1520,11229,711
250888,0,40.33,-7.61,-11.04,-0.231,0.039,1.355,0.00,0.00,-10.49,8.95,-50.82,16.56,0.93,0.91,32.59,-35.62,10.69,60.19,1322,1370,1412,1240,1336,1499,1520,11254,711
250900,0,35.50,-11.96,-10.88,-0.266,0.083,1.313,0.00,0.00,-10.91,9.53,-46.41,21.49,0.89,0.96,32.87,-31.90,20.35,60.07,1322,1370,1412,1240,1336,1499,1520,11274,711
250912,0,27.54,-9.86,-10.24,-0.322,0.086,1.329,0.00,0.00,-11.23,10.21,-38.77,20.07,0.85,1.01,33.16,-21.56,-0.37,58.76,1322,1370,1412,1240,1336,1499,1520,11283,711
250924,0,22.26,-18.65,-9.55,-0.277,0.092,1.253,0.00,0.00,-11.52,11.03,-33.78,29.68,0.82,1.08,33.44,-12.91,21.16,57.31,1282,1338,1450,1274,1336,1499,1520,11291,711
250936,0,18.01,-21.73,-9.75,-0.275,0.098,1.183,0.00,0.00,-11.76,11.97,-29.77,33.70,0.79,1.17,33.70,-7.08,12.22,58.08,1282,1338,1450,1274,1336,1499,1520,11287,711
250948,0,12.59,-34.18,-10.94,-0.141,0.028,1.095,0.00,0.00,-11.91,13.07,-24.50,47.25,0.76,1.29,33.97,1.02,21.26,61.32,1282,1338,1450,1274,1336,1499,1520,11258,711
250960,0,14.39,-45.73,-9.54,-0.005,0.040,0.927,0.00,0.00,-12.15,14.16,-26.53,59.89,0.72,1.42,34.19,-0.53,43.03,58.03,1282,1338,1450,1274,1336,1499,1520,11262,711
250972,0,12.64,-43.53,-9.74,0.239,0.003,0.817,0.00,0.00,-12.38,14.94,-25.02,58.47,0.69,1.59,34.37,1.99,-5.82,58.71,1282,1338,1450,1274,1336,1499,1520,11254,711
250984,0,10.11,-19.17,-8.94,0.217,0.061,0.838,0.00,0.00,-12.69,15.02,-22.80,34.18,0.66,1.71,34.58,5.90,-56.97,56.92,1282,1338,1450,1274,1336,1499,1520,11254,711
250996,0,2.90,-4.41,-8.42,0.065,0.079,0.949,0.00,0.00,-13.08,14.89,-15.98,19.30,0.62,1.78,34.79,21.08,-46.68,55.85,1282,1338,1450,1274,1336,1499,1520,11212,711
251008,0,0.58,3.21,-7.57,-0.069,0.116,1.009,0.00,0.00,-13.52,14.84,-14.11,11.62,0.59,1.83,35.01,27.37,-31.66,53.94,1282,1338,1450,1274,1336,1499,1520,11249,711
251020,0,-6.11,15.44,-7.65,-0.083,0.019,1.012,0.00,0.00,-13.80,14.69,-7.69,-0.76,0.55,1.85,35.25,38.50,-44.48,54.37,1246,1454,1338,1306,1336,1499,1520,11237,711
251032,0,-2.90,21.72,-7.94,-0.078,-0.098,1.011,0.00,0.00,-13.97,14.35,-11.07,-7.37,0.52,1.85,35.50,28.37,-32.84,55.35,1246,1454,1338,1306,1336,1499,1520,11249,711
251044,0,4.01,10.91,-6.65,0.096,-0.146,0.894,0.00,0.00,-14.09,13.95,-18.10,3.04,0.49,1.85,35.72,11.02,11.93,52.34,1246,1454,1338,1306,1335,1499,1520,11233,711
251056,0,6.99,19.40,-7.94,0.201,-0.158,0.905,0.00,0.00,-14.13,13.21,-21.13,-6.19,0.46,1.84,35.96,0.25,-14.16,55.81,1246,1454,1338,1306,1335,1499,1520,11216,711
251068,0,8.79,22.03,-6.43,0.251,-0.096,0.873,0.00,0.00,-14.20,12.14,-23.00,-9.89,0.43,1.81,36.19,-4.11,5.46,52.27,1246,1454,1338,1306,1335,1499,1520,11220,711
251080,0,5.12,26.99,-6.06,0.270,-0.050,0.890,0.00,0.00,-14.22,10.92,-19.34,-16.07,0.40,1.76,36.41,-1.71,3.98,51.55,1246,1454,1338,1306,1335,1499,1521,11237,711
251092,0,-0.84,29.43,-6.53,0.309,-0.073,0.909,0.00,0.00,-14.08,9.57,-13.24,-19.86,0.38,1.70,36.65,1.27,11.09,52.96,1246,1454,1338,1306,1335,1499,1521,11241,711
251104,0,-0.39,32.35,-5.58,0.233,-0.096,0.914,0.00,0.00,-13.88,8.24,-13.49,-24.11,0.37,1.63,36.90,-7.40,10.88,50.85,1246,1454,1338,1306,1336,1499,1521,11233,711
251116,0,6.89,34.45,-7.28,0.133,-0.019,0.987,0.00,0.00,-13.71,7.23,-20.60,-27.22,0.36,1.58,37.14,-30.53,-24.42,55.33,1287,1445,1337,1275,1336,1499,1521,11233,711
251128,0,12.69,26.91,-8.08,-0.021,0.042,1.128,0.00,0.00,-13.43,6.47,-26.12,-20.44,0.35,1.51,37.44,-47.58,20.30,57.63,1287,1445,1337,1275,1335,1499,1521,11241,711
251140,0,10.32,18.89,-7.35,-0.069,0.114,1.182,0.00,0.00,-13.10,6.09,-23.41,-12.80,0.35,1.46,37.69,-45.20,26.92,56.06,1287,1445,1337,1275,1336,1499,1521,11224,711
251152,0,1.87,12.22,-6.69,-0.039,0.106,1.181,0.00,0.00,-12.64,5.81,-14.51,-6.41,0.36,1.43,37.94,-33.71,30.22,54.65,1287,1445,1337,1275,1336,1499,1521,11233,711
251164,0,-0.74,17.59,-6.94,-0.033,0.072,1.193,0.00,0.00,-12.15,5.38,-11.42,-12.22,0.36,1.38,38.20,-31.72,22.51,55.56,1287,1445,1337,1275,1336,1499,1520,11258,711
251176,0,3.30,8.10,-5.75,0.021,0.036,1.100,0.00,0.00,-11.66,5.16,-14.96,-2.94,0.37,1.36,38.41,-42.74,30.26,52.80,1287,1445,1337,1275,1336,1499,1520,11270,711
251188,0,7.36,3.91,-5.67,0.169,0.009,0.981,0.00,0.00,-11.12,4.92,-18.48,1.00,0.38,1.35,38.63,-54.41,16.21,52.81,1287,1445,1337,1275,1336,1499,1520,11249,711
251200,0,12.18,10.51,-6.59,0.255,0.050,0.983,0.00,0.00,-10.61,4.41,-22.79,-6.10,0.38,1.34,38.86,-63.74,-4.48,55.34,1287,1445,1337,1275,1336,1499,1520,11237,711
251212,0,12.85,14.42,-6.15,0.234,0.117,0.987,0.00,0.00,-10.17,3.84,-23.01,-10.58,0.39,1.32,39.05,-62.03,-15.11,54.42,1287,1445,1337,1275,1336,1499,1520,11245,711
251224,0,7.95,12.24,-6.06,0.239,0.145,0.987,0.00,0.00,-9.68,3.14,-17.63,-9.10,0.40,1.28,39.26,-52.88,15.45,54.42,1176,1382,1406,1380,1336,1499,1520,11241,710
251236,0,4.66,6.07,-5.53,0.333,0.147,0.899,0.00,0.00,-9.28,2.42,-13.94,-3.65,0.41,1.25,39.46,-43.53,38.00,53.29,1176,1382,1406,1380,1336,1499,1520,11270,710
251248,0,6.39,15.03,-4.87,0.353,0.154,0.886,0.00,0.00,-8.93,1.54,-15.32,-13.49,0.42,1.21,39.64,-47.00,1.26,51.81,1176,1382,1406,1380,1336,1499,1520,11258,710
251260,0,6.10,16.25,-4.91,0.392,0.144,0.866,0.00,0.00,-8.60,0.50,-14.70,-15.76,0.43,1.16,39.83,-47.22,7.22,52.09,1176,1382,1406,1380,1336,1499,1520,11254,710
251272,0,6.99,20.32,-5.77,0.477,0.179,0.825,0.00,0.00,-8.33,-0.72,-15.33,-21.04,0.44,1.11,40.02,-48.47,-0.43,54.44,1176,1382,1406,1380,1336,1499,1520,11254,710
251284,0,6.08,26.95,-6.33,0.473,0.224,0.816,0.00,0.00,-8.08,-2.08,-14.17,-29.03,0.45,1.04,40.19,-47.45,-15.61,56.01,1176,1382,1406,1380,1336,1499,1520,11254,710
251296,0,3.06,35.79,-8.19,0.375,0.247,0.951,0.00,0.00,-7.75,-3.48,-10.80,-39.26,0.47,0.95,40.40,-44.46,-28.49,60.88,1176,1382,1406,1380,1336,1499,1520,11216,710
251308,0,-0.83,22.48,-7.03,0.304,0.266,0.938,0.00,0.00,-7.43,-4.62,-6.60,-27.11,0.48,0.85,40.62,-35.58,34.90,58.20,1176,1382,1406,1380,1336,1499,1520,11220,710
251320,0,-1.52,17.76,-5.80,0.298,0.224,0.900,0.00,0.00,-7.11,-5.49,-5.59,-23.25,0.50,0.78,40.82,-35.33,31.73,55.32,1276,1390,1398,1280,1336,1499,1520,11241,711
251332,0,4.56,9.42,-4.20,0.262,0.207,0.868,0.00,0.00,-6.84,-6.12,-11.40,-15.54,0.52,0.72,41.00,-50.17,29.70,51.49,1276,1390,1398,1280,1336,1499,1520,11237,711
251344,0,7.49,-13.21,-4.08,0.445,0.154,0.736,0.00,0.00,-6.57,-6.62,-14.06,6.59,0.53,0.71,41.17,-57.30,71.06,51.36,1276,1390,1398,1280,1335,1499,1520,11241,711
251356,0,13.50,0.92,-5.42,0.497,0.123,0.716,0.00,0.00,-6.30,-7.40,-19.79,-8.33,0.55,0.67,41.36,-67.37,18.34,54.91,1276,1390,1398,1280,1335,1499,1520,11229,711
251368,0,16.06,13.87,-6.34,0.420,0.115,0.793,0.00,0.00,-5.97,-8.32,-22.03,-22.19,0.56,0.62,41.54,-71.96,-21.40,57.38,1276,1390,1398,1280,1335,1499,1520,11249,711
251380,0,11.55,9.33,-6.27,0.384,0.084,0.864,0.00,0.00,-5.56,-9.27,-17.11,-18.60,0.58,0.56,41.73,-62.17,19.46,57.42,1276,1390,1398,1280,1335,1499,1520,11249,711
251392,0,8.95,-6.73,-4.77,0.520,0.037,0.744,0.00,0.00,-5.17,-10.15,-14.12,-3.42,0.59,0.51,41.91,-53.26,80.43,53.84,1276,1390,1398,1280,1335,1499,1520,11224,711
251404,0,12.18,4.21,-2.78,0.584,0.023,0.651,0.00,0.00,-4.86,-11.23,-17.04,-15.44,0.60,0.46,42.06,-55.99,9.76,49.01,1276,1390,1398,1280,1335,1499,1520,11241,711
251416,0,11.21,20.32,-2.46,0.509,0.024,0.712,0.00,0.00,-4.65,-12.57,-15.86,-32.89,0.61,0.39,42.20,-52.90,-31.53,48.35,1308,1466,1300,1266,1335,1499,1520,11241,745
251428,0,12.67,9.86,-3.85,0.525,-0.015,0.677,0.00,0.00,-4.41,-13.78,-17.08,-23.64,0.62,0.31,42.37,-54.32,27.85,52.01,1308,1466,1300,1266,1335,1499,1520,11237,745
251440,0,14.14,24.77,-5.20,0.464,-0.061,0.659,0.00,0.00,-4.11,-15.02,-18.25,-39.79,0.63,0.21,42.56,-56.51,-21.61,55.56,1308,1466,1300,1266,1322,1499,1521,11237,745
251452,0,15.03,34.03,-7.85,0.396,-0.085,0.795,0.00,0.00,-3.76,-16.33,-18.79,-50.36,0.64,0.09,42.77,-59.38,-32.79,62.41,1308,1466,1300,1266,1322,1499,1521,11233,745
251464,0,14.23,23.98,-6.76,0.421,-0.032,0.809,0.00,0.00,-3.49,-17.60,-17.71,-41.58,0.65,-0.03,42.97,-56.03,24.12,59.88,1308,1466,1300,1266,1320,1499,1521,11254,745
251476,0,12.22,2.17,-3.16,0.546,-0.021,0.666,0.00,0.00,-3.29,-18.75,-15.51,-20.93,0.66,-0.12,43.11,-50.39,73.57,51.00,1308,1466,1300,1266,1320,1499,1521,11245,745
251488,0,9.11,27.83,-1.71,0.511,-0.010,0.674,0.00,0.00,-3.13,-20.16,-12.24,-47.99,0.67,-0.23,43.23,-46.72,-37.32,47.50,1308,1466,1300,1266,1316,1499,1521,11283,745
251500,0,5.34,25.54,-1.94,0.458,-0.019,0.712,0.00,0.00,-2.86,-21.62,-8.21,-47.17,0.69,-0.36,43.36,-47.85,-1.02,48.22,1308,1466,1300,1266,1316,1499,1520,11295,745
251512,0,5.16,30.25,-4.90,0.451,-0.053,0.716,0.00,0.00,-2.49,-23.03,-7.65,-53.28,0.71,-0.50,43.55,-52.97,6.19,55.81,1308,1466,1300,1266,1316,1499,1520,11299,745
251524,0,1.81,34.73,-6.54,0.333,-0.059,0.769,0.00,0.00,-2.07,-24.19,-3.88,-58.91,0.73,-0.64,43.73,-49.21,-23.85,60.07,1245,1353,1393,1273,1316,1499,1520,11287,710
251536,0,-6.61,16.22,-5.36,0.299,-0.025,0.713,0.00,0.00,-1.55,-25.11,5.07,-41.33,0.76,-0.75,43.87,-35.40,19.63,57.27,1245,1353,1393,1273,1316,1499,1520,11283,710
251548,0,-17.39,-10.28,-3.28,0.423,-0.022,0.565,0.00,0.00,-1.01,-25.86,16.38,-15.58,0.79,-0.83,43.99,-14.07,75.23,52.18,1245,1353,1393,1273,1316,1499,1520,11266,710
251560,0,-27.64,8.23,-4.43,0.480,-0.041,0.577,0.00,0.00,-0.44,-26.83,27.20,-35.07,0.83,-0.91,44.12,3.76,-16.34,55.19,1245,1353,1393,1273,1316,1499,1520,11233,710
251572,0,-33.93,13.32,-4.94,0.457,-0.059,0.638,0.00,0.00,0.12,-27.93,34.05,-41.25,0.86,-1.00,44.24,14.45,-27.88,56.60,1245,1353,1393,1273,1316,1499,1520,11254,710
251584,0,-33.34,7.56,-4.89,0.495,-0.077,0.610,0.00,0.00,0.57,-28.97,33.91,-36.53,0.89,-1.09,44.36,16.67,-5.95,56.60,1245,1353,1393,1273,1316,1499,1520,11245,710
251596,0,-31.78,3.44,-4.81,0.562,-0.067,0.517,0.00,0.00,1.02,-29.98,32.80,-33.42,0.93,-1.16,44.47,18.24,-20.37,56.51,1245,1353,1393,1273,1316,1499,1520,11233,710
251608,0,-27.50,13.11,-4.99,0.552,-0.020,0.514,0.00,0.00,1.42,-31.07,28.91,-44.18,0.95,-1.23,44.57,15.24,-77.66,57.06,1245,1353,1393,1273,1316,1499,1520,11237,710
251620,0,-27.36,22.46,-4.74,0.524,0.044,0.561,0.00,0.00,1.79,-32.34,29.15,-54.80,0.98,-1.32,44.67,20.18,-93.38,56.51,1262,1390,1346,1266,1316,1499,1520,11216,711
251632,0,-28.47,29.06,-4.10,0.489,0.104,0.634,0.00,0.00,2.16,-33.66,30.63,-62.73,1.01,-1.45,44.77,27.11,-77.82,55.03,1262,1390,1346,1266,1316,1499,1520,11208,711
251644,0,-24.37,39.02,-3.95,0.400,0.144,0.799,0.00,0.00,2.49,-34.84,26.86,-73.86,1.03,-1.60,44.89,24.00,-80.67,54.76,1262,1390,1346,1266,1316,1499,1520,11179,711
251656,0,-19.56,40.58,-3.66,0.202,0.141,0.950,0.00,0.00,2.89,-35.67,22.45,-76.25,1.06,-1.77,45.03,15.46,-67.84,54.16,1262,1390,1346,1266,1316,1499,1520,11204,711
251668,0,-14.62,26.41,-2.78,0.063,0.124,1.034,0.00,0.00,3.32,-35.98,17.94,-62.39,1.08,-1.92,45.14,3.88,-26.41,52.10,1262,1390,1346,1266,1316,1499,1520,11191,711
251680,0,-9.65,16.72,-2.32,-0.036,0.062,1.072,0.00,0.00,3.71,-35.95,13.37,-52.67,1.11,-2.05,45.24,-5.48,-14.50,51.04,1262,1390,1346,1266,1316,1499,1520,11191,711
251692,0,-4.61,28.96,-2.27,-0.120,0.023,1.159,0.00,0.00,4.07,-36.04,8.68,-65.00,1.13,-2.21,45.34,-15.66,-35.08,51.00,1262,1390,1346,1266,1316,1499,1520,11241,711
251704,0,-0.56,39.43,-2.48,-0.222,-0.008,1.290,0.00,0.00,4.39,-36.18,4.95,-75.61,1.15,-2.38,45.40,-24.34,-61.25,51.59,1262,1390,1346,1266,1316,1499,1520,11229,711
251716,0,-4.81,22.85,-0.34,-0.379,-0.042,1.328,0.00,0.00,4.73,-36.04,9.55,-58.89,1.18,-2.53,45.45,-15.58,-9.12,46.31,1276,1386,1338,1264,1316,1499,1520,11224,710
251728,0,-10.32,-3.79,1.80,-0.390,-0.044,1.264,0.00,0.00,5.06,-35.56,15.38,-31.78,1.20,-2.65,45.49,-4.42,75.40,40.98,1276,1386,1338,1264,1316,1499,1520,11224,710
251740,0,-16.78,1.28,1.67,-0.397,-0.009,1.331,0.00,0.00,5.36,-34.96,22.14,-36.24,1.23,-2.76,45.51,8.31,29.18,41.34,1276,1386,1338,1264,1316,1499,1520,11249,710
251752,0,-22.06,-16.77,1.79,-0.222,-0.013,1.238,0.00,0.00,5.68,-34.03,27.74,-17.26,1.25,-2.82,45.48,18.01,43.57,41.02,1276,1386,1338,1264,1316,1499,1520,11283,710
251764,0,-26.13,-26.15,1.55,-0.025,-0.037,1.020,0.00,0.00,6.04,-33.06,32.17,-6.92,1.28,-2.85,45.43,27.38,22.63,41.55,1276,1386,1338,1264,1316,1499,1520,11270,710
251776,0,-27.27,0.39,0.14,-0.172,0.012,1.068,0.00,0.00,6.41,-32.25,33.68,-32.64,1.31,-2.89,45.37,29.97,-74.65,45.03,1276,1386,1338,1264,1316,1499,1520,11262,710
251788,0,-25.18,8.10,-0.38,-0.353,-0.002,1.264,0.00,0.00,6.83,-31.37,32.01,-39.47,1.34,-2.95,45.31,26.49,-85.80,46.26,1276,1386,1338,1264,1317,1499,1520,11249,710
251800,0,-31.81,0.28,1.07,-0.349,0.046,1.265,0.00,0.00,7.08,-30.55,38.89,-30.83,1.37,-3.01,45.24,49.95,-28.83,42.58,1276,1386,1338,1264,1317,1499,1520,11249,710
251812,0,-34.03,7.47,2.41,-0.342,0.083,1.337,0.00,0.00,7.26,-29.85,41.29,-37.32,1.39,-3.10,45.16,58.41,-35.20,39.13,1276,1386,1338,1264,1317,1499,1520,11208,710
251824,0,-31.43,19.95,2.95,-0.361,0.080,1.428,0.00,0.00,7.39,-29.36,38.82,-49.31,1.41,-3.20,45.09,55.33,-60.40,37.72,1272,1362,1350,1284,1317,1499,1520,11220,739
251836,0,-26.66,20.70,3.80,-0.357,0.035,1.426,0.00,0.00,7.59,-28.93,34.25,-49.63,1.43,-3.30,45.01,43.33,-52.35,35.52,1272,1362,1350,1284,1317,1499,1520,11220,739
251848,0,-22.23,8.83,4.00,-0.253,-0.022,1.362,0.00,0.00,7.89,-28.36,30.12,-37.19,1.46,-3.38,44.91,29.55,-29.91,34.92,1272,1362,1350,1284,1317,1499,1520,11233,739
251860,0,-17.12,6.35,3.75,-0.157,-0.062,1.312,0.00,0.00,8.23,-27.90,25.35,-34.25,1.48,-3.45,44.82,17.22,-29.06,35.44,1272,1362,1350,1284,1317,1499,1520,11241,739
251872,0,-10.69,11.07,3.75,-0.184,-0.030,1.314,0.00,0.00,8.52,-27.61,19.21,-38.69,1.51,-3.54,44.73,5.62,-28.01,35.37,1272,1362,1350,1284,1317,1499,1520,11237,739
251884,0,-3.05,12.05,3.96,-0.308,0.046,1.358,0.00,0.00,8.72,-27.17,11.77,-39.22,1.53,-3.63,44.61,-10.16,-27.70,34.73,1272,1362,1350,1284,1317,1499,1520,11254,739
251896,0,3.50,7.40,3.52,-0.333,0.080,1.400,0.00,0.00,8.92,-26.47,5.42,-33.86,1.55,-3.70,44.48,-26.06,-35.15,35.67,1272,1362,1350,1284,1317,1499,1520,11254,739
251908,0,4.80,5.65,4.07,-0.321,0.098,1.461,0.00,0.00,9.15,-25.77,4.35,-31.42,1.58,-3.76,44.34,-31.68,-41.02,34.17,1272,1362,1350,1284,1317,1499,1520,11237,739
251920,0,2.25,-11.16,6.06,-0.258,0.071,1.424,0.00,0.00,9.39,-25.10,7.14,-13.94,1.61,-3.81,44.19,-28.29,25.53,29.04,1295,1313,1387,1273,1317,1499,1520,11258,710
251932,0,-2.75,-24.30,6.74,-0.153,-0.027,1.329,0.00,0.00,9.68,-24.46,12.44,-0.16,1.64,-3.86,44.06,-19.41,78.96,27.22,1295,1313,1387,1273,1317,1499,1520,11254,710
251944,0,-5.77,-19.61,5.70,-0.147,-0.131,1.327,0.00,0.00,10.02,-23.87,15.79,-4.26,1.67,-3.91,43.95,-13.85,58.96,29.70,1295,1313,1387,1273,1317,1499,1520,11295,710
251956,0,-6.45,-14.41,5.39,-0.221,-0.190,1.346,0.00,0.00,10.36,-23.17,16.81,-8.76,1.70,-3.95,43.83,-12.50,26.19,30.36,1295,1313,1387,1273,1317,1499,1520,11291,710
251968,0,-5.50,-16.22,5.88,-0.291,-0.222,1.316,0.00,0.00,10.67,-22.23,16.16,-6.02,1.73,-3.97,43.68,-15.47,3.46,28.97,1295,1313,1387,1273,1318,1499,1521,11291,710
251980,0,-4.47,-18.74,6.54,-0.354,-0.248,1.233,0.00,0.00,10.96,-21.21,15.43,-2.48,1.76,-3.98,43.51,-19.37,3.45,27.17,1295,1313,1387,1273,1318,1499,1521,11283,710
251992,0,-4.70,-17.43,6.03,-0.374,-0.261,1.183,0.00,0.00,11.25,-20.30,15.95,-2.87,1.80,-4.01,43.37,-21.26,16.65,28.30,1295,1313,1387,1273,1318,1499,1521,11262,710
252004,0,-3.89,-16.32,4.43,-0.385,-0.268,1.176,0.00,0.00,11.51,-19.47,15.40,-3.15,1.83,-4.04,43.25,-23.26,34.37,32.18,1295,1313,1387,1273,1318,1499,1521,11262,710
252016,0,-1.73,-17.39,2.91,-0.366,-0.267,1.159,0.00,0.00,11.73,-18.65,13.46,-1.25,1.86,-4.08,43.16,-25.40,48.51,35.89,1356,1330,1376,1210,1318,1499,1521,11258,711
252028,0,0.24,-7.27,1.42,-0.407,-0.274,1.191,0.00,0.00,11.91,-17.72,11.67,-10.45,1.88,-4.11,43.08,-25.13,-6.00,39.51,1356,1330,1376,1210,1318,1499,1520,11245,711
252040,0,1.55,-1.74,0.89,-0.412,-0.260,1.189,0.00,0.00,12.09,-16.85,10.54,-15.11,1.91,-4.13,43.00,-24.07,-26.54,40.79,1356,1330,1376,1210,1317,1499,1521,11245,711
252052,0,0.81,0.08,1.18,-0.451,-0.181,1.225,0.00,0.00,12.19,-16.03,11.37,-16.11,1.93,-4.16,42.93,-17.66,-30.56,39.97,1356,1330,1376,1210,1317,1499,1521,11254,711
252064,0,-4.35,-5.80,1.85,-0.502,-0.082,1.267,0.00,0.00,12.16,-15.22,16.51,-9.42,1.95,-4.19,42.85,-2.03,5.09,38.23,1356,1330,1376,1210,1318,1499,1520,11283,711
252076,0,-10.61,-23.27,3.04,-0.457,-0.029,1.214,0.00,0.00,12.04,-14.14,22.65,9.12,1.97,-4.19,42.76,14.71,52.18,35.15,1356,1330,1376,1210,1318,1499,1520,11274,711
252088,0,-16.38,-39.21,3.81,-0.301,-0.044,1.096,0.00,0.00,11.91,-12.77,28.29,26.45,1.99,-4.15,42.63,27.83,65.56,33.10,1356,1330,1376,1210,1319,1499,1520,11237,711
252100,0,-17.77,-48.54,4.00,-0.041,-0.094,0.948,0.00,0.00,11.83,-11.37,29.60,37.16,2.01,-4.08,42.50,31.95,49.62,32.49,1356,1330,1376,1210,1319,1499,1520,11245,711
252112,0,-14.56,-41.64,4.47,0.143,-0.133,0.836,0.00,0.00,11.77,-10.39,26.33,31.24,2.03,-3.99,42.38,29.73,-0.65,31.22,1356,1330,1376,1210,1319,1499,1520,11212,711
252124,0,-11.40,-40.05,5.33,0.260,-0.161,0.682,0.00,0.00,11.73,-9.91,23.13,30.14,2.04,-3.91,42.26,29.45,-0.77,28.94,1351,1367,1329,1229,1319,1499,1520,11216,711
252136,0,-8.47,-38.75,4.98,0.325,-0.185,0.571,0.00,0.00,11.78,-9.73,20.26,29.01,2.05,-3.84,42.13,28.65,0.06,29.68,1351,1367,1329,1229,1319,1499,1520,11229,711
252148,0,-5.03,-35.81,3.43,0.410,-0.174,0.522,0.00,0.00,11.91,-9.79,16.94,26.03,2.05,-3.77,42.01,26.11,-9.68,33.44,1351,1367,1329,1229,1319,1499,1520,11254,711
252160,0,-1.12,-29.57,2.36,0.461,-0.128,0.524,0.00,0.00,11.96,-10.04,13.07,19.53,2.06,-3.71,41.91,24.33,-26.25,36.00,1351,1367,1329,1229,1319,1499,1520,11224,711
252172,0,1.41,-26.22,2.15,0.559,-0.064,0.483,0.00,0.00,11.81,-10.62,10.40,15.60,2.05,-3.66,41.80,26.37,-22.91,36.43,1351,1367,1329,1229,1319,1499,1520,11237,711
252184,0,4.02,-14.29,1.94,0.591,-0.025,0.467,0.00,0.00,11.48,-11.60,7.46,2.69,2.05,-3.64,41.69,27.58,-32.24,36.85,1351,1367,1329,1229,1319,1499,1520,11233,711
252196,0,5.59,3.67,2.06,0.487,0.014,0.511,0.00,0.00,10.96,-12.83,5.37,-16.50,2.04,-3.68,41.57,29.54,-42.07,36.43,1351,1367,1329,1229,1319,1499,1520,11233,711
252208,0,6.25,23.25,0.50,0.260,0.003,0.684,0.00,0.00,10.39,-13.94,4.13,-37.19,2.02,-3.76,41.48,29.72,-51.03,40.23,1351,1367,1329,1229,1319,1499,1520,11224,711
252220,0,9.26,32.13,-1.02,0.008,-0.026,0.921,0.00,0.00,9.81,-14.70,0.54,-46.83,2.01,-3.87,41.46,25.00,-35.86,44.01,1212,1438,1288,1338,1319,1499,1520,11220,710
252232,0,14.02,34.21,-0.06,-0.228,-0.017,1.095,0.00,0.00,9.16,-15.11,-4.86,-49.33,1.99,-3.99,41.45,19.30,-26.37,41.61,1212,1438,1288,1338,1319,1499,1520,11237,710
252244,0,14.55,20.76,2.49,-0.307,-0.014,1.089,0.00,0.00,8.48,-15.11,-6.07,-35.87,1.97,-4.08,41.40,22.24,8.27,35.19,1212,1438,1288,1338,1318,1499,1520,11233,710
252256,0,11.79,10.41,3.65,-0.239,-0.017,1.006,0.00,0.00,7.86,-14.73,-3.93,-25.14,1.95,-4.13,41.31,28.69,-5.11,32.18,1212,1438,1288,1338,1318,1499,1520,11237,710
252268,0,8.15,17.05,2.65,-0.237,-0.024,1.043,0.00,0.00,7.29,-14.47,-0.86,-31.52,1.93,-4.19,41.24,37.13,-43.79,34.61,1212,1438,1288,1338,1318,1499,1520,11237,710
252280,0,5.84,28.34,1.30,-0.383,-0.017,1.207,0.00,0.00,6.68,-14.40,0.84,-42.74,1.90,-4.28,41.21,44.49,-53.55,37.97,1212,1438,1288,1338,1318,1499,1520,11245,710
252292,0,7.08,13.54,0.39,-0.450,0.008,1.261,0.00,0.00,6.01,-14.02,-1.07,-27.56,1.88,-4.35,41.17,43.75,-3.07,40.18,1212,1438,1288,1338,1318,1499,1520,11229,710
252304,0,9.36,-11.75,-0.72,-0.268,0.024,1.157,0.00,0.00,5.34,-13.14,-4.02,-1.39,1.85,-4.35,41.12,37.93,21.33,42.92,1212,1438,1288,1338,1318,1499,1520,11249,710
252316,0,12.97,-28.32,-0.29,0.032,0.056,0.998,0.00,0.00,4.60,-12.30,-8.36,16.02,1.83,-4.31,41.04,29.64,17.36,41.77,1265,1313,1405,1289,1318,1499,1520,11254,711
252328,0,14.47,-38.76,1.86,0.261,0.095,0.772,0.00,0.00,3.76,-11.87,-10.71,26.89,1.80,-4.27,40.90,27.45,42.80,36.25,1265,1313,1405,1289,1318,1499,1520,11274,711
252340,0,14.23,-36.32,2.45,0.471,0.101,0.578,0.00,0.00,2.85,-11.93,-11.38,24.39,1.77,-4.23,40.73,27.07,27.28,34.60,1265,1313,1405,1289,1307,1499,1520,11254,711
252352,0,13.77,-10.51,0.13,0.517,0.072,0.617,0.00,0.00,2.08,-12.66,-11.70,-2.15,1.75,-4.22,40.62,22.37,-35.76,40.28,1265,1313,1405,1289,1307,1499,1520,11274,711
252364,0,14.61,20.80,-1.98,0.336,0.047,0.854,0.00,0.00,1.47,-13.70,-13.14,-34.50,1.72,-4.28,40.59,13.73,-77.88,45.53,1265,1313,1405,1289,1291,1499,1520,11266,711
252376,0,16.23,34.24,-2.33,0.092,0.048,1.058,0.00,0.00,0.92,-14.65,-15.31,-48.89,1.70,-4.39,40.61,6.14,-59.20,46.44,1265,1313,1405,1289,1291,1499,1520,11274,711
252388,0,15.06,33.54,-1.23,-0.117,0.019,1.167,0.00,0.00,0.44,-15.35,-14.62,-48.89,1.68,-4.51,40.63,5.64,-17.80,43.69,1265,1313,1405,1289,1281,1499,1520,11220,711
252400,0,11.65,22.90,-0.13,-0.241,-0.026,1.168,0.00,0.00,0.08,-15.72,-11.58,-38.63,1.66,-4.63,40.64,8.06,25.51,40.96,1265,1313,1405,1289,1276,1499,1521,11229,711
252412,0,6.80,8.50,0.11,-0.209,-0.080,1.091,0.00,0.00,-0.16,-15.78,-6.96,-24.28,1.64,-4.72,40.64,12.89,57.07,40.37,1265,1313,1405,1289,1276,1499,1521,11220,711
252424,0,2.90,4.33,-0.42,-0.128,-0.108,1.053,0.00,0.00,-0.30,-15.71,-3.20,-20.04,1.63,-4.79,40.66,15.92,42.71,41.72,1279,1323,1305,1197,1273,1499,1521,11237,720
252436,0,2.32,9.61,-1.64,-0.100,-0.107,1.074,0.00,0.00,-0.43,-15.67,-2.75,-25.29,1.61,-4.86,40.68,13.28,3.96,44.78,1279,1323,1305,1197,1273,1499,1521,11254,720
252448,0,1.91,20.28,-2.83,-0.136,-0.099,1.151,0.00,0.00,-0.55,-15.76,-2.47,-36.04,1.60,-4.94,40.72,11.05,-32.77,47.79,1279,1323,1305,1197,1257,1499,1521,11262,720
252460,0,0.80,15.72,-2.92,-0.189,-0.087,1.181,0.00,0.00,-0.66,-15.85,-1.46,-31.57,1.59,-5.03,40.76,11.24,1.55,48.05,1279,1323,1305,1197,1256,1499,1520,11237,720
252472,0,1.89,3.58,-3.00,-0.170,-0.041,1.174,0.00,0.00,-0.85,-15.59,-2.74,-19.17,1.58,-5.07,40.78,8.78,9.60,48.28,1279,1323,1305,1197,1256,1499,1520,11262,720
252484,0,2.69,-0.54,-3.00,-0.108,-0.019,1.145,0.00,0.00,-1.06,-15.24,-3.74,-14.70,1.57,-5.10,40.82,8.95,-4.57,48.32,1279,1323,1305,1197,1208,1499,1520,11291,720
252496,0,2.88,1.57,-3.07,-0.076,-0.006,1.125,0.00,0.00,-1.24,-14.95,-4.11,-16.53,1.56,-5.13,40.85,10.33,-22.48,48.53,1279,1323,1305,1197,1208,1499,1520,11308,720
252508,0,2.78,3.23,-3.40,-0.041,-0.001,1.076,0.00,0.00,-1.40,-14.76,-4.18,-17.99,1.55,-5.17,40.89,12.62,-25.20,49.38,1279,1323,1305,1197,1208,1499,1520,11337,720
252520,0,2.30,5.93,-3.61,0.024,-0.005,1.018,0.00,0.00,-1.52,-14.69,-3.82,-20.62,1.54,-5.20,40.92,15.38,-33.15,49.96,1158,1310,1188,1176,1182,1499,1520,11341,711
252532,0,3.03,2.67,-3.20,0.165,-0.007,0.898,0.00,0.00,-1.60,-14.79,-4.63,-17.46,1.52,-5.24,40.96,15.20,-22.68,48.95,1158,1310,1188,1176,1182,1499,1520,11358,711
252544,0,6.00,-8.70,-2.01,0.332,-0.020,0.728,0.00,0.00,-1.59,-15.04,-7.59,-6.33,1.51,-5.25,40.98,9.42,-1.31,46.01,1158,1310,1188,1176,1181,1499,1520,11349,711
252556,0,10.13,-9.60,-1.18,0.341,-0.045,0.680,0.00,0.00,-1.44,-15.35,-11.57,-5.75,1.50,-5.25,40.99,-1.44,-21.35,43.94,1158,1310,1188,1176,1181,1499,1520,11370,711
252568,0,14.60,11.99,-0.35,0.162,-0.022,0.808,0.00,0.00,-1.33,-15.71,-15.94,-27.70,1.49,-5.29,41.01,-14.45,-69.03,41.88,1158,1310,1188,1176,1181,1499,1520,11374,711
252580,0,19.02,14.00,-0.20,0.083,-0.014,0.807,0.00,0.00,-1.50,-16.15,-20.52,-30.15,1.48,-5.38,41.04,-18.76,-14.19,41.53,1158,1310,1188,1176,1181,1499,1520,11395,711
252592,0,14.09,-0.92,-1.09,0.105,-0.053,0.688,0.00,0.00,-1.70,-16.46,-15.79,-15.54,1.46,-5.44,41.07,-3.74,32.65,43.80,1158,1310,1188,1176,1181,1499,1520,11424,711
252604,0,11.67,16.70,-1.69,-0.019,-0.030,0.842,0.00,0.00,-1.95,-16.86,-13.61,-33.56,1.44,-5.52,41.10,1.44,-21.66,45.34,1158,1310,1188,1176,1181,1499,1520,11445,711
252616,0,8.87,7.36,-1.99,0.098,-0.057,0.654,0.00,0.00,-2.15,-17.31,-11.03,-24.67,1.42,-5.59,41.12,8.38,11.50,46.09,1138,1208,1246,1132,1181,1499,1520,11445,783
252628,0,16.57,28.90,-0.55,0.023,0.015,0.724,0.00,0.00,-2.38,-17.67,-18.95,-46.58,1.40,-5.66,41.13,-8.86,-94.34,42.50,1138,1208,1246,1132,1182,1499,1520,11441,783
252640,0,23.63,19.19,-0.10,0.135,-0.042,0.612,0.00,0.00,-2.62,-18.12,-26.26,-37.31,1.38,-5.74,41.14,-22.53,-33.46,41.39,1138,1208,1246,1132,1183,1499,1520,11428,783
252652,0,18.11,19.69,0.86,0.118,-0.098,0.690,0.00,0.00,-2.72,-18.30,-20.83,-37.99,1.36,-5.80,41.15,-17.66,-72.42,39.01,1138,1208,1246,1132,1183,1499,1520,11424,783
252664,0,8.34,6.75,0.05,0.076,-0.066,0.640,0.00,0.00,-2.89,-18.46,-11.22,-25.21,1.35,-5.88,41.17,2.62,8.26,41.03,1138,1208,1246,1132,1183,1499,1520,11408,783
252676,0,-4.22,-15.61,-0.29,0.099,-0.095,0.558,0.00,0.00,-3.06,-18.60,1.16,-2.99,1.33,-5.94,41.18,35.35,83.70,41.89,1138,1208,1246,1132,1183,1499,1520,11433,783
252688,0,15.61,18.74,0.34,-0.129,-0.023,0.744,0.00,0.00,-3.28,-18.72,-18.89,-37.46,1.31,-6.01,41.17,-5.39,-55.96,40.31,1138,1208,1246,1132,1190,1499,1520,11462,783
252700,0,26.37,8.37,0.22,0.055,-0.008,0.610,0.00,0.00,-3.45,-18.84,-29.82,-27.22,1.29,-6.09,41.19,-32.07,10.89,40.63,1138,1208,1246,1132,1195,1499,1520,11453,783
252712,0,8.13,11.35,0.41,0.030,-0.098,0.564,0.00,0.00,-3.48,-18.72,-11.61,-30.07,1.27,-6.13,41.15,1.23,-58.84,40.12,1138,1208,1246,1132,1195,1499,1520,11449,783
252724,0,6.26,-19.86,-0.10,0.148,-0.055,0.444,0.00,0.00,-3.81,-18.87,-10.07,0.99,1.25,-6.18,41.12,16.12,75.25,41.38,1118,1322,1142,1198,1200,1499,1520,11433,721
252736,0,15.20,-4.43,2.60,0.051,0.025,0.537,0.00,0.00,-3.91,-19.26,-19.11,-14.83,1.23,-6.22,41.08,-5.39,-1.46,34.58,1118,1322,1142,1198,1200,1499,1520,11428,721
252748,0,30.72,20.84,-0.29,0.173,-0.069,0.466,0.00,0.00,-3.99,-19.93,-34.71,-40.77,1.20,-6.29,41.09,-39.75,-70.39,41.81,1118,1322,1142,1198,1206,1499,1520,11403,721
252760,0,13.15,8.68,0.59,0.189,-0.157,0.398,0.00,0.00,-3.65,-20.24,-16.80,-28.91,1.19,-6.31,41.07,-16.03,-85.21,39.59,1118,1322,1142,1198,1214,1499,1520,11366,721
252772,0,-0.27,-5.27,-0.75,0.235,-0.152,0.391,0.00,0.00,-3.73,-20.48,-3.46,-15.20,1.17,-6.37,41.06,23.51,10.27,42.93,1118,1322,1142,1198,1214,1499,1520,11383,721
252784,0,4.65,-23.28,2.76,0.251,-0.084,0.345,0.00,0.00,-3.62,-21.05,-8.27,2.23,1.15,-6.38,41.02,19.68,42.17,34.12,1118,1322,1142,1198,1215,1499,1520,11366,721
252796,0,25.44,6.48,-0.20,0.199,-0.040,0.486,0.00,0.00,-3.47,-21.68,-28.91,-28.15,1.13,-6.44,41.04,-26.76,-41.47,41.54,1118,1322,1142,1198,1215,1499,1520,11391,721
252808,0,15.96,3.70,-0.02,0.200,-0.149,0.343,0.00,0.00,-3.22,-22.24,-19.18,-25.94,1.11,-6.50,41.03,-8.48,-34.46,41.10,1118,1322,1142,1198,1234,1499,1520,11374,721
252820,0,22.26,6.08,-0.98,0.179,-0.044,0.538,0.00,0.00,-3.57,-22.68,-25.83,-28.76,1.08,-6.57,41.02,-15.19,-14.10,43.48,1156,1316,1230,1234,1234,1499,1520,11374,722
252832,0,11.81,-16.03,2.76,0.155,-0.040,0.435,0.00,0.00,-3.59,-23.33,-15.40,-7.30,1.06,-6.62,40.97,4.41,55.49,34.08,1156,1316,1230,1234,1234,1499,1520,11374,722
252844,0,25.59,22.99,1.52,0.107,-0.059,0.515,0.00,0.00,-3.91,-24.11,-29.50,-47.10,1.03,-6.72,40.93,-20.17,-58.24,37.14,1156,1316,1230,1234,1259,1499,1519,11383,722
252856,0,20.65,24.27,3.22,0.236,-0.125,0.465,0.00,0.00,-4.04,-24.91,-24.69,-49.17,1.01,-6.80,40.88,-14.68,-87.45,32.82,1156,1316,1230,1234,1259,1499,1519,11341,722
252868,0,17.01,21.42,2.24,0.116,-0.037,0.665,0.00,0.00,-4.35,-25.22,-21.36,-46.64,0.98,-6.88,40.80,-8.08,-80.44,35.20,1156,1316,1230,1234,1281,1499,1519,11291,722
252880,0,5.60,13.43,2.45,0.110,-0.014,0.683,0.00,0.00,-4.71,-25.54,-10.32,-38.97,0.96,-6.99,40.74,19.36,-5.69,34.60,1156,1316,1230,1234,1282,1499,1520,11291,722
252892,0,19.58,-8.13,5.31,0.143,-0.040,0.540,0.00,0.00,-5.17,-25.64,-24.75,-17.52,0.93,-7.06,40.59,-7.26,49.95,27.30,1156,1316,1230,1234,1282,1499,1520,11291,722
252904,0,23.47,1.06,4.91,0.160,-0.036,0.712,0.00,0.00,-5.48,-25.46,-28.95,-26.52,0.90,-7.10,40.47,-22.44,-56.74,28.20,1156,1316,1230,1234,1311,1499,1520,11287,722
252916,0,3.08,-12.75,5.25,0.112,-0.083,0.621,0.00,0.00,-5.61,-25.25,-8.69,-12.49,0.88,-7.15,40.34,16.26,20.32,27.23,1288,1302,1374,1280,1311,1499,1520,11274,711
252928,0,3.55,-29.33,5.83,0.047,-0.028,0.629,0.00,0.00,-6.04,-24.95,-9.59,4.38,0.85,-7.19,40.17,25.39,88.10,25.60,1288,1302,1374,1280,1311,1499,1520,11258,711
252940,0,-2.44,-27.31,5.59,0.035,-0.008,0.660,0.00,0.00,-6.21,-24.80,-3.77,2.51,0.83,-7.22,40.00,38.02,59.24,26.02,1288,1302,1374,1280,1328,1499,1520,11274,711
252952,0,7.76,6.77,6.05,-0.087,0.087,0.883,0.00,0.00,-6.51,-24.50,-14.27,-31.28,0.80,-7.26,39.82,16.04,-74.78,24.70,1288,1302,1374,1280,1328,1499,1520,11270,711
252964,0,18.37,12.02,5.48,-0.128,0.148,0.968,0.00,0.00,-6.90,-23.98,-25.27,-36.00,0.77,-7.31,39.67,-5.06,-89.50,25.98,1288,1302,1374,1280,1328,1499,1520,11312,711
252976,0,22.89,18.43,5.38,-0.207,0.126,1.083,0.00,0.00,-7.33,-23.48,-30.22,-41.91,0.74,-7.38,39.54,-14.01,-86.15,26.10,1288,1302,1374,1280,1328,1499,1520,11279,711
252988,0,24.30,9.52,5.53,-0.157,0.058,1.128,0.00,0.00,-7.67,-23.16,-31.97,-32.68,0.72,-7.47,39.42,-20.11,-10.91,25.59,1288,1302,1374,1280,1328,1499,1520,11245,711
253000,0,19.93,-32.04,6.16,0.101,-0.047,0.879,0.00,0.00,-7.91,-22.61,-27.84,9.43,0.69,-7.50,39.26,-13.52,106.52,23.86,1288,1302,1374,1280,1328,1499,1520,11245,711
253012,0,12.31,-48.12,5.13,0.184,-0.079,0.776,0.00,0.00,-8.00,-21.90,-20.31,26.23,0.67,-7.47,39.10,-3.60,76.07,26.26,1288,1302,1374,1280,1328,1499,1520,11229,711
253024,0,8.16,-35.25,4.81,0.107,-0.050,0.898,0.00,0.00,-8.17,-21.35,-16.33,13.89,0.64,-7.44,38.94,1.12,12.93,26.90,1325,1359,1341,1287,1328,1499,1520,11229,734
253036,0,7.27,-34.10,5.16,0.173,-0.026,0.912,0.00,0.00,-8.45,-20.93,-15.72,13.16,0.62,-7.42,38.76,2.65,16.55,25.85,1325,1359,1341,1287,1328,1499,1520,11204,734
253048,0,6.33,-49.66,5.80,0.380,-0.009,0.741,0.00,0.00,-8.75,-20.53,-15.08,29.13,0.60,-7.36,38.56,4.64,37.18,24.07,1325,1359,1341,1287,1328,1499,1520,11166,734
253060,0,3.87,-50.45,5.70,0.457,0.022,0.665,0.00,0.00,-9.01,-20.14,-12.88,30.32,0.57,-7.27,38.34,8.85,-6.64,24.09,1325,1359,1341,1287,1328,1499,1520,11170,734
253072,0,0.62,-50.22,5.38,0.458,0.036,0.640,0.00,0.00,-9.19,-19.76,-9.81,30.45,0.55,-7.19,38.13,13.19,-9.27,24.68,1325,1359,1341,1287,1328,1499,1520,11170,734
253084,0,-0.39,-48.08,5.21,0.443,0.050,0.631,0.00,0.00,-9.32,-19.40,-8.93,28.68,0.53,-7.12,37.91,12.51,-5.45,24.88,1325,1359,1341,1287,1328,1499,1519,11204,734
253096,0,-1.91,-40.55,5.84,0.469,0.069,0.568,0.00,0.00,-9.45,-19.23,-7.54,21.31,0.52,-7.06,37.67,12.13,-15.55,23.07,1325,1359,1341,1287,1328,1499,1519,11208,734
253108,0,-5.80,-22.71,5.45,0.471,0.054,0.575,0.00,0.00,-9.47,-19.53,-3.67,3.18,0.51,-7.03,37.43,14.01,-48.82,23.80,1325,1359,1341,1287,1328,1499,1521,11212,734
253120,0,-9.55,-0.41,4.61,0.342,-0.013,0.721,0.00,0.00,-9.30,-20.19,0.26,-19.78,0.50,-7.06,37.25,15.12,-59.15,25.73,1187,1449,1267,1409,1328,1499,1520,11220,711
253132,0,-6.35,8.27,7.01,0.101,-0.093,0.916,0.00,0.00,-9.06,-20.71,-2.70,-28.98,0.49,-7.14,37.07,5.84,-26.48,19.55,1187,1449,1267,1409,1328,1499,1520,11204,711
253144,0,-7.60,-13.50,9.04,0.117,-0.080,0.873,0.00,0.00,-8.96,-20.77,-1.36,-7.27,0.48,-7.18,36.90,9.84,42.19,14.31,1187,1449,1267,1409,1328,1499,1520,11187,711
253156,0,-10.49,-22.76,9.20,0.251,-0.058,0.790,0.00,0.00,-8.85,-20.77,1.64,2.00,0.47,-7.19,36.71,11.96,38.08,13.71,1187,1449,1267,1409,1328,1499,1520,11179,711
253168,0,-12.66,-11.22,7.68,0.298,-0.035,0.818,0.00,0.00,-8.71,-21.06,3.95,-9.83,0.47,-7.23,36.54,11.05,8.05,17.34,1187,1449,1267,1409,1328,1499,1520,11170,711
253180,0,-14.42,8.75,5.45,0.146,-0.036,0.993,0.00,0.00,-8.54,-21.47,5.88,-30.21,0.47,-7.30,36.42,8.87,-24.39,22.79,1187,1449,1267,1409,1328,1499,1520,11175,711
253192,0,-15.54,11.64,4.27,-0.008,-0.055,1.130,0.00,0.00,-8.36,-21.64,7.18,-33.28,0.47,-7.38,36.30,7.59,-20.94,25.62,1187,1449,1267,1409,1328,1499,1520,11212,711
253204,0,-15.86,6.79,3.62,-0.086,-0.099,1.166,0.00,0.00,-8.14,-21.52,7.72,-28.31,0.48,-7.44,36.18,5.04,-23.34,27.12,1187,1449,1267,1409,1328,1499,1520,11220,711
253216,0,-13.49,-6.16,3.38,-0.135,-0.120,1.143,0.00,0.00,-7.84,-21.24,5.66,-15.08,0.49,-7.50,36.06,-3.44,20.14,27.61,1324,1338,1372,1278,1328,1499,1520,11220,859
253228,0,-11.85,-25.61,5.34,-0.038,-0.094,1.003,0.00,0.00,-7.48,-20.71,4.37,4.90,0.50,-7.53,35.92,-9.94,70.91,22.56,1324,1338,1372,1278,1328,1499,1520,11220,859
253240,0,-14.78,-15.27,6.11,0.041,-0.097,0.943,0.00,0.00,-7.04,-20.19,7.74,-4.91,0.51,-7.54,35.75,-7.63,-0.65,20.48,1324,1338,1372,1278,1328,1499,1520,11216,859
253252,0,-17.62,1.63,5.09,-0.040,-0.102,1.050,0.00,0.00,-6.52,-19.85,11.10,-21.48,0.53,-7.57,35.60,-6.40,-67.83,22.88,1324,1338,1372,1278,1328,1499,1520,11204,859
253264,0,-20.48,-4.61,6.13,-0.128,-0.064,1.161,0.00,0.00,-5.92,-19.47,14.56,-14.87,0.55,-7.60,35.46,-6.49,-22.27,20.12,1324,1338,1372,1278,1328,1499,1520,11195,859
253276,0,-25.19,-20.05,7.64,-0.062,-0.048,1.136,0.00,0.00,-5.25,-18.96,19.94,1.09,0.58,-7.62,35.30,-3.61,37.69,16.19,1324,1338,1372,1278,1328,1499,1520,11187,859
253288,0,-28.49,-20.36,6.89,-0.088,-0.097,1.140,0.00,0.00,-4.48,-18.40,24.01,1.96,0.62,-7.65,35.16,-4.05,36.24,17.95,1324,1338,1372,1278,1328,1499,1520,11204,859
253300,0,-28.35,-19.03,6.50,-0.191,-0.156,1.177,0.00,0.00,-3.65,-17.71,24.70,1.33,0.65,-7.67,35.05,-8.47,29.62,18.79,1324,1338,1372,1278,1329,1499,1520,11200,859
253312,0,-22.87,-36.87,7.45,-0.067,-0.181,1.056,0.00,0.00,-2.80,-16.68,20.07,20.19,0.69,-7.64,34.90,-22.15,52.65,16.29,1324,1338,1372,1278,1329,1499,1520,11200,859
253324,0,-16.18,-41.93,7.18,0.060,-0.140,0.960,0.00,0.00,-1.89,-15.72,14.28,26.21,0.73,-7.60,34.75,-39.36,43.02,16.79,1261,1369,1341,1345,1329,1499,1520,11204,710
253336,0,-16.73,-27.50,6.41,0.079,-0.084,0.981,0.00,0.00,-0.88,-15.05,15.85,12.45,0.78,-7.58,34.61,-42.88,2.49,18.58,1261,1369,1341,1345,1329,1499,1520,11170,710
253348,0,-20.06,-12.05,5.38,-0.074,-0.067,1.123,0.00,0.00,0.12,-14.50,20.18,-2.44,0.83,-7.58,34.50,-37.01,-34.16,21.06,1261,1369,1341,1345,1329,1499,1520,11183,710
253360,0,-22.29,-25.71,6.14,-0.083,-0.056,1.122,0.00,0.00,1.14,-13.76,23.43,11.94,0.88,-7.57,34.40,-31.55,28.72,19.05,1261,1369,1341,1345,1329,1499,1520,11216,710
253372,0,-20.54,-45.54,7.68,0.133,-0.032,0.937,0.00,0.00,2.06,-12.67,22.60,32.87,0.93,-7.50,34.23,-28.85,32.84,15.04,1261,1369,1341,1345,1329,1499,1520,11229,710
253384,0,-19.70,-41.88,5.97,0.316,-0.017,0.796,0.00,0.00,3.00,-12.06,22.70,29.82,0.97,-7.42,34.06,-28.31,0.26,19.14,1261,1369,1341,1345,1328,1500,1520,11229,710
253396,0,-22.52,-29.93,4.41,0.328,-0.024,0.848,0.00,0.00,3.94,-11.84,26.46,18.09,1.02,-7.39,33.95,-21.24,-5.82,22.93,1261,1369,1341,1345,1328,1500,1520,11237,710
253408,0,-22.79,-30.70,5.05,0.382,-0.003,0.858,0.00,0.00,4.70,-11.61,27.49,19.09,1.07,-7.34,33.81,-13.96,0.50,21.20,1261,1369,1341,1345,1328,1500,1520,11220,710
253420,0,-20.29,-18.76,4.85,0.384,0.021,0.861,0.00,0.00,5.27,-11.57,25.56,7.19,1.11,-7.30,33.64,-13.07,-48.35,21.52,1325,1293,1387,1307,1327,1500,1525,11220,711
253432,0,-16.47,-5.86,3.47,0.270,0.043,0.928,0.00,0.00,5.82,-11.82,22.29,-5.96,1.15,-7.31,33.49,-20.73,-47.48,24.83,1325,1293,1387,1307,1327,1500,1525,11195,711
253444,0,-13.63,-5.89,2.47,0.095,0.114,1.014,0.00,0.00,6.33,-11.90,19.96,-6.01,1.20,-7.34,33.40,-25.49,-3.64,27.23,1325,1293,1387,1307,1327,1499,1525,11170,711
253456,0,-16.25,-4.03,3.02,-0.053,0.168,1.062,0.00,0.00,6.79,-11.67,23.04,-7.64,1.24,-7.36,33.28,-16.20,-1.65,25.74,1325,1293,1387,1307,1327,1499,1525,11170,711
253468,0,-23.35,2.09,3.30,-0.184,0.157,1.114,0.00,0.00,7.29,-11.14,30.65,-13.23,1.28,-7.37,33.14,1.43,-50.36,24.88,1325,1293,1387,1307,1336,1499,1520,11195,711
253480,0,-29.18,-4.34,3.19,-0.221,0.111,1.131,0.00,0.00,7.91,-10.40,37.09,-6.06,1.33,-7.35,32.99,14.13,-53.02,25.02,1325,1293,1387,1307,1341,1499,1520,11204,711
253492,0,-30.46,-22.39,3.02,-0.115,0.083,1.067,0.00,0.00,8.63,-9.50,39.09,12.88,1.38,-7.31,32.85,16.81,-13.25,25.31,1325,1293,1387,1307,1341,1499,1520,11212,711
253504,0,-30.91,-34.77,2.32,0.030,0.049,0.980,0.00,0.00,9.36,-8.64,40.27,26.13,1.42,-7.25,32.73,19.61,12.39,26.92,1325,1293,1387,1307,1341,1499,1520,11204,711
253516,0,-30.40,-42.03,2.43,0.200,0.033,0.870,0.00,0.00,10.02,-7.84,40.42,34.19,1.47,-7.16,32.58,23.63,8.87,26.51,1300,1336,1398,1330,1341,1499,1520,11183,710
253528,0,-30.79,-28.77,2.60,0.318,0.021,0.869,0.00,0.00,10.62,-7.41,41.40,21.36,1.51,-7.07,32.41,29.28,-60.96,25.90,1300,1336,1398,1330,1345,1499,1520,11175,710
253540,0,-25.43,-4.46,1.60,0.180,0.033,1.066,0.00,0.00,11.07,-7.45,36.50,-2.98,1.55,-7.03,32.27,22.38,-99.55,28.26,1300,1336,1398,1330,1348,1499,1520,11154,710
253552,0,-19.08,-10.15,2.99,-0.040,0.107,1.180,0.00,0.00,11.29,-7.34,30.37,2.80,1.58,-7.02,32.14,15.24,-18.08,24.66,1300,1336,1398,1330,1348,1499,1520,11154,710
253564,0,-18.72,-23.65,5.17,-0.112,0.107,1.156,0.00,0.00,11.48,-6.87,30.20,16.78,1.61,-7.01,31.97,15.02,44.36,19.04,1300,1336,1398,1330,1348,1499,1520,11129,710
253576,0,-18.26,-41.95,7.37,-0.034,0.056,1.025,0.00,0.00,11.70,-6.02,29.96,35.93,1.64,-6.95,31.77,15.94,67.21,13.36,1300,1336,1398,1330,1348,1499,1520,11141,710
253588,0,-19.20,-38.53,7.63,0.088,-0.008,0.943,0.00,0.00,11.90,-5.32,31.10,33.22,1.67,-6.88,31.58,23.29,33.01,12.49,1300,1336,1398,1330,1348,1499,1520,11120,710
253600,0,-15.69,-32.16,7.36,0.161,-0.033,0.979,0.00,0.00,12.12,-4.98,27.80,27.18,1.70,-6.83,31.41,16.96,32.18,12.99,1300,1336,1398,1330,1349,1499,1520,11137,710
253612,0,-12.52,-10.90,8.70,0.104,0.017,1.073,0.00,0.00,12.26,-5.01,24.78,5.89,1.73,-6.84,31.24,8.19,13.11,9.48,1300,1336,1398,1330,1349,1499,1520,11137,710
253624,0,-16.63,14.97,9.93,-0.103,-0.003,1.160,0.00,0.00,12.40,-5.03,29.03,-20.00,1.76,-6.86,31.05,12.34,-69.18,6.23,1363,1339,1391,1303,1349,1499,1520,11170,739
253636,0,-15.22,14.76,6.01,-0.285,-0.085,1.304,0.00,0.00,12.69,-4.90,27.90,-19.66,1.80,-6.88,30.94,3.10,-61.80,15.91,1363,1339,1391,1303,1349,1499,1520,11179,739
253648,0,-8.66,-38.68,7.02,0.148,-0.002,1.102,0.00,0.00,12.99,-4.31,21.66,34.36,1.84,-6.83,30.83,-10.84,82.03,13.27,1363,1339,1391,1303,1349,1499,1520,11141,739
253660,0,-16.96,-15.31,4.66,0.448,0.089,0.924,0.00,0.00,13.38,-4.59,30.34,10.73,1.88,-6.82,30.67,1.00,-2.95,19.02,1363,1339,1391,1303,1349,1499,1520,11187,739
253672,0,-31.21,39.83,-2.72,-0.072,0.092,1.235,0.00,0.00,13.94,-5.46,45.15,-45.29,1.93,-6.93,30.65,20.13,-81.61,37.45,1363,1339,1391,1303,1349,1499,1520,11166,739
253684,0,-37.52,0.62,-1.02,-0.020,0.040,1.046,0.00,0.00,14.60,-5.39,52.12,-6.01,1.99,-6.95,30.59,28.13,26.31,33.13,1363,1339,1391,1303,1350,1499,1520,11154,739
253696,0,-38.63,16.26,-2.17,0.136,0.052,1.078,0.00,0.00,15.37,-5.48,54.00,-21.74,2.05,-6.95,30.52,26.21,-86.59,35.95,1363,1339,1391,1303,1350,1499,1520,11137,739
253708,0,-45.45,29.44,0.15,0.078,0.085,1.217,0.00,0.00,16.26,-6.08,61.71,-35.52,2.12,-7.02,30.47,33.09,-74.71,30.10,1363,1339,1391,1303,1350,1499,1520,11125,739
253720,0,-53.09,30.23,0.99,0.018,0.029,1.247,0.00,0.00,17.10,-6.62,70.19,-36.85,2.19,-7.07,30.42,47.10,-74.88,27.94,1301,1405,1351,1343,1350,1499,1520,11137,710
253732,0,-53.36,12.47,-0.55,0.089,-0.012,1.173,0.00,0.00,17.95,-7.27,71.31,-19.74,2.26,-7.14,30.43,44.99,17.68,31.79,1301,1405,1351,1343,1350,1499,1520,11137,710
253744,0,-52.21,1.50,-1.94,0.198,-0.009,1.040,0.00,0.00,18.82,-7.91,71.04,-9.40,2.34,-7.20,30.46,39.31,68.16,35.32,1301,1405,1351,1343,1350,1498,1520,11100,710
253756,0,-51.93,34.98,-4.26,-0.017,-0.050,1.241,0.00,0.00,19.69,-8.54,71.62,-43.52,2.41,-7.28,30.54,39.40,-64.80,41.20,1301,1405,1351,1343,1350,1498,1520,11112,710
253768,0,-19.66,40.82,-8.64,0.449,-0.473,1.111,0.00,0.00,20.47,-9.43,40.13,-50.24,2.47,-7.37,30.68,-19.93,-86.89,52.28,1301,1405,1351,1343,1351,1498,1520,11145,710
253780,128,99.74,236.64,-20.26,-0.472,-0.100,1.925,0.00,0.00,18.84,-12.76,-80.90,-249.40,2.42,-7.74,31.07,-110.00,-110.00,81.72,1301,1405,1351,1343,1351,1499,1520,11120,710
253792,128,154.57,159.49,-26.60,0.228,-0.319,1.256,0.00,0.00,15.73,-18.06,-138.84,-177.55,2.29,-8.34,31.85,-110.00,110.00,98.36,1301,1405,1351,1343,1351,1499,1520,11129,710
253804,0,176.61,80.95,-32.50,-0.013,-0.306,1.256,0.00,0.00,11.83,-20.52,-164.78,-101.47,2.10,-8.58,32.72,-94.00,77.55,110.00,1301,1405,1351,1343,1354,1499,1520,11133,710
253816,0,177.98,148.62,-24.01,-0.199,0.178,1.439,0.00,0.00,7.91,-24.82,-170.06,-173.44,1.93,-9.11,33.63,-84.11,37.58,93.66,1382,1494,1400,1140,1354,1499,1520,11133,728
253828,128,96.05,107.36,-28.35,-0.867,0.087,2.664,0.00,0.00,3.42,-27.96,-92.62,-135.32,1.71,-9.57,34.48,110.00,110.00,105.36,1382,1494,1400,1140,1354,1499,1520,11191,728
253840,128,12.89,-119.04,-20.30,-0.740,-0.013,1.897,0.00,0.00,2.25,-23.48,-10.64,95.55,1.65,-9.21,34.95,110.00,110.00,85.70,1382,1494,1400,1140,1355,1499,1520,11175,728
253852,128,-87.13,-124.38,-25.76,-0.664,-0.038,1.386,0.00,0.00,4.34,-20.44,91.48,103.94,1.75,-9.04,35.77,110.00,110.00,100.18,1382,1494,1400,1140,1355,1499,1520,11187,728
253864,0,-104.16,-20.45,-28.72,-0.915,0.163,1.991,0.00,0.00,6.17,-19.21,110.33,1.23,1.85,-9.06,36.58,93.22,-46.51,108.38,1382,1494,1400,1140,1357,1499,1520,11200,728
253876,0,-57.17,32.44,-32.80,-0.650,0.132,2.506,0.00,0.00,7.40,-17.56,64.56,-50.00,1.92,-8.99,37.52,25.64,-110.00,110.00,1382,1494,1400,1140,1357,1499,1520,11204,728
253888,0,-10.08,20.95,-31.80,-0.282,-0.345,1.921,0.00,0.00,7.88,-16.45,17.96,-37.40,1.95,-8.95,38.49,-8.95,-110.00,110.00,1382,1494,1400,1140,1360,1499,1520,11187,728
253900,0,14.96,27.60,-36.64,-0.608,-0.348,2.116,0.00,0.00,7.87,-15.79,-7.09,-43.39,1.94,-8.98,39.63,-21.65,-110.00,110.00,1382,1494,1400,1140,1360,1499,1520,11187,728
253912,0,9.03,-24.68,-31.75,-0.596,-0.233,1.912,0.00,0.00,7.72,-15.19,-1.31,9.49,1.94,-9.02,40.69,9.70,96.13,110.00,1382,1494,1400,1140,1360,1499,1520,11166,728
253924,0,16.48,-95.83,-26.20,-0.119,-0.133,1.464,0.00,0.00,6.93,-13.67,-9.55,82.17,1.90,-8.95,41.57,28.75,110.00,107.08,1305,1500,1415,1195,1360,1499,1520,11195,722
253936,0,31.55,-134.68,-27.60,0.142,-0.140,1.062,0.00,0.00,6.21,-11.20,-25.34,123.48,1.87,-8.72,42.32,1.27,110.00,110.00,1305,1500,1415,1195,1360,1499,1520,11162,722
253948,0,42.57,-43.58,-28.48,-0.240,-0.029,1.286,0.00,0.00,5.37,-9.93,-37.20,33.65,1.83,-8.65,43.14,-22.80,-36.31,110.00,1305,1500,1415,1195,1360,1499,1520,11141,722
253960,0,43.99,2.91,-27.87,-0.401,-0.053,1.557,0.00,0.00,4.30,-8.94,-39.69,-11.85,1.78,-8.62,43.97,-12.29,-110.00,110.00,1305,1500,1415,1195,1360,1499,1520,11145,722
253972,0,62.60,-90.94,-19.65,0.127,-0.016,1.155,0.00,0.00,3.12,-7.09,-59.49,83.84,1.72,-8.47,44.64,-43.12,110.00,93.76,1305,1500,1415,1195,1360,1499,1520,11100,722
253984,0,68.30,-109.02,-19.18,0.278,-0.097,1.075,0.00,0.00,2.00,-5.21,-66.30,103.81,1.66,-8.29,45.25,-52.24,110.00,93.20,1305,1500,1415,1195,1360,1499,1520,11116,722
253996,0,67.09,-83.78,-18.29,-0.024,-0.150,1.199,0.00,0.00,0.72,-3.47,-66.37,80.31,1.60,-8.12,45.83,-44.53,53.96,91.55,1305,1500,1415,1195,1360,1499,1520,11116,722
254008,0,69.75,-62.78,-19.38,-0.063,-0.096,1.348,0.00,0.00,-0.90,-2.32,-70.65,60.46,1.52,-8.03,46.41,-32.10,73.34,94.86,1305,1500,1415,1195,1360,1499,1520,11058,722
254020,0,58.46,-73.98,-15.90,0.010,-0.149,1.250,0.00,0.00,-2.43,-0.85,-60.89,73.13,1.43,-7.85,46.87,1.25,53.26,86.62,1309,1429,1455,1247,1360,1499,1520,11062,717
254032,0,61.66,-54.07,-15.79,0.113,-0.150,1.111,0.00,0.00,-3.96,0.33,-65.61,54.39,1.35,-7.71,47.29,-3.20,-20.86,86.77,1309,1429,1455,1247,1360,1499,1520,11087,717
254044,0,49.56,-53.93,-15.49,0.256,-0.126,1.025,0.00,0.00,-5.39,1.48,-54.95,55.42,1.27,-7.53,47.71,17.80,-50.69,86.42,1309,1429,1455,1247,1359,1499,1521,11095,717
254056,0,49.26,-55.66,-13.60,0.349,0.011,0.927,0.00,0.00,-7.02,2.49,-56.29,58.16,1.18,-7.36,48.09,20.94,-36.81,82.09,1309,1429,1455,1247,1359,1499,1521,11116,717
254068,0,44.82,-40.26,-15.05,0.203,0.034,1.088,0.00,0.00,-8.51,3.60,-53.32,43.86,1.09,-7.18,48.47,26.89,-110.00,86.09,1309,1429,1455,1247,1359,1499,1521,11100,717
254080,0,45.12,-14.06,-14.92,-0.056,0.011,1.278,0.00,0.00,-9.84,4.22,-54.96,18.27,1.01,-7.11,48.89,19.53,-91.04,86.18,1309,1429,1455,1247,1358,1499,1523,11100,717
254092,0,44.28,-18.32,-13.31,-0.048,0.022,1.267,0.00,0.00,-11.13,4.79,-55.41,23.11,0.93,-7.05,49.27,18.45,-22.36,82.54,1309,1429,1455,1247,1358,1499,1523,11100,717
254104,0,42.21,-43.95,-11.00,0.121,0.074,1.105,0.00,0.00,-12.37,5.50,-54.59,49.45,0.84,-6.94,49.61,20.57,50.99,77.10,1309,1429,1455,1247,1360,1499,1521,11066,717
254116,0,42.72,-52.91,-11.11,0.254,0.101,0.985,0.00,0.00,-13.49,6.27,-56.22,59.18,0.77,-6.82,49.89,13.37,45.22,77.67,1315,1379,1495,1251,1360,1499,1521,11062,710
254128,0,38.69,-50.41,-10.29,0.338,0.113,0.894,0.00,0.00,-14.43,6.88,-53.12,57.29,0.69,-6.66,50.17,11.89,-6.85,75.90,1315,1379,1495,1251,1360,1499,1520,11021,710
254140,0,33.74,-28.52,-11.46,0.345,0.142,0.948,0.00,0.00,-15.36,7.20,-49.09,35.71,0.62,-6.54,50.47,18.15,-60.59,79.12,1315,1379,1495,1251,1360,1499,1520,11037,710
254152,0,28.06,-21.24,-12.44,0.222,0.107,1.029,0.00,0.00,-16.16,7.47,-44.23,28.71,0.55,-6.43,50.79,23.78,-76.77,81.89,1315,1379,1495,1251,1360,1499,1520,11033,710
254164,0,30.14,-6.17,-15.12,0.091,0.101,1.160,0.00,0.00,-16.91,7.60,-47.06,13.76,0.49,-6.37,51.16,13.00,-65.45,88.95,1315,1379,1495,1251,1360,1499,1520,11079,710
254176,0,25.86,-3.86,-14.50,0.094,0.107,1.238,0.00,0.00,-17.54,7.71,-43.40,11.57,0.43,-6.31,51.51,11.63,-61.76,87.76,1315,1379,1495,1251,1360,1499,1520,11083,710
254188,0,16.59,-16.09,-12.96,0.177,0.169,1.189,0.00,0.00,-18.16,7.69,-34.75,23.78,0.37,-6.27,51.85,24.78,20.72,84.25,1315,1379,1495,1251,1360,1499,1520,11116,710
254200,0,13.30,-1.20,-13.31,0.003,0.105,1.252,0.00,0.00,-18.61,7.55,-31.91,8.75,0.32,-6.24,52.20,20.42,-17.19,85.48,1315,1379,1495,1251,1360,1499,1520,11133,710
254212,0,8.73,-13.56,-12.53,0.083,0.048,1.157,0.00,0.00,-18.97,7.42,-27.70,20.99,0.27,-6.22,52.53,18.84,44.64,83.85,1315,1379,1495,1251,1360,1499,1520,11133,710
254224,0,4.86,2.20,-12.51,0.014,0.012,1.215,0.00,0.00,-19.12,7.32,-23.99,5.12,0.24,-6.19,52.83,11.46,-32.79,84.10,1330,1410,1450,1250,1360,1499,1520,11100,744
254236,0,-4.75,-15.91,-9.06,-0.028,-0.028,1.137,0.00,0.00,-19.15,7.30,-14.39,23.21,0.20,-6.16,53.11,22.65,56.28,75.75,1330,1410,1450,1250,1360,1499,1520,11095,744
254248,0,-11.19,-12.57,-9.58,-0.037,-0.129,1.150,0.00,0.00,-19.01,7.38,-7.81,19.95,0.18,-6.12,53.38,27.64,22.77,77.35,1330,1410,1450,1250,1360,1499,1520,11079,744
254260,0,-19.15,-24.50,-8.84,0.043,-0.196,1.072,0.00,0.00,-18.74,7.66,0.42,32.16,0.16,-6.05,53.64,36.88,28.21,75.75,1330,1410,1450,1250,1360,1499,1520,11058,744
254272,0,-20.15,-19.12,-9.52,0.102,-0.194,1.094,0.00,0.00,-18.49,7.86,1.66,26.98,0.13,-5.98,53.89,35.32,3.91,77.69,1330,1410,1450,1250,1360,1499,1520,11066,744
254284,0,-23.02,-36.01,-6.37,0.102,-0.180,0.982,0.00,0.00,-18.18,8.37,4.84,44.38,0.12,-5.86,54.10,36.80,15.77,70.02,1330,1410,1450,1250,1360,1499,1520,11075,744
254296,0,-25.43,-22.67,-8.34,0.135,-0.221,1.016,0.00,0.00,-17.90,8.67,7.53,31.34,0.10,-5.77,54.34,43.26,-21.33,75.20,1330,1410,1450,1250,1360,1499,1520,11066,744
254308,0,-26.28,-30.66,-8.78,0.210,-0.228,0.934,0.00,0.00,-17.57,9.00,8.71,39.67,0.08,-5.66,54.58,42.38,-10.87,76.52,1330,1410,1450,1250,1360,1499,1520,11087,744
254320,0,-18.93,-27.83,-10.01,0.258,-0.225,0.920,0.00,0.00,-17.40,9.11,1.53,36.95,0.06,-5.57,54.86,31.42,4.98,79.87,1237,1451,1429,1323,1360,1499,1520,11054,710
254332,0,-10.99,-24.88,-8.73,0.263,-0.164,0.930,0.00,0.00,-17.26,9.28,-6.27,34.16,0.03,-5.46,55.13,15.98,-19.92,76.96,1237,1451,1429,1323,1360,1499,1520,11075,710
254344,0,-6.18,-27.14,-7.49,0.352,-0.074,0.893,0.00,0.00,-17.30,9.23,-11.12,36.37,0.01,-5.37,55.39,12.93,3.28,74.13,1237,1451,1429,1323,1361,1499,1520,11079,710
254356,0,-7.52,-9.63,-6.64,0.294,-0.011,0.939,0.00,0.00,-17.44,8.85,-9.91,18.49,-0.02,-5.32,55.67,17.82,-17.31,72.27,1237,1451,1429,1323,1361,1499,1520,11066,710
254368,0,1.42,3.02,-7.35,0.123,-0.032,1.047,0.00,0.00,-17.59,8.48,-19.01,5.46,-0.05,-5.31,55.95,-4.24,-24.33,74.33,1237,1451,1429,1323,1361,1499,1520,11079,710
254380,0,8.34,4.01,-7.50,-0.045,-0.042,1.123,0.00,0.00,-17.67,8.27,-26.01,4.27,-0.07,-5.30,56.26,-23.42,-7.49,75.02,1237,1451,1429,1323,1360,1499,1520,11066,710
254392,0,11.87,7.40,-8.12,-0.208,0.019,1.254,0.00,0.00,-17.70,8.18,-29.57,0.77,-0.09,-5.31,56.57,-29.65,4.95,76.87,1237,1451,1429,1323,1360,1499,1520,11058,710
254404,0,5.94,-10.93,-5.59,-0.061,0.028,1.136,0.00,0.00,-17.59,8.30,-23.53,19.23,-0.11,-5.28,56.84,-21.36,46.89,70.81,1237,1451,1429,1323,1360,1499,1520,11041,710
254416,0,5.69,7.13,-6.85,-0.186,-0.019,1.271,0.00,0.00,-17.37,8.34,-23.05,1.21,-0.13,-5.28,57.10,-25.51,-14.92,74.23,1297,1473,1395,1275,1360,1499,1520,11050,711
254428,0,9.14,-0.62,-5.13,-0.124,-0.032,1.201,0.00,0.00,-17.08,8.44,-26.22,9.06,-0.14,-5.27,57.33,-39.02,7.35,70.17,1297,1473,1395,1275,1360,1499,1520,11029,711
254440,0,5.66,11.26,-5.70,-0.233,0.046,1.382,0.00,0.00,-16.68,8.49,-22.34,-2.77,-0.14,-5.27,57.54,-37.69,-26.18,71.79,1297,1473,1395,1275,1360,1499,1520,11029,711
254452,0,-2.33,1.70,-3.92,-0.156,0.063,1.296,0.00,0.00,-16.17,8.40,-13.84,6.70,-0.14,-5.28,57.74,-27.82,35.47,67.54,1297,1473,1395,1275,1360,1499,1520,11062,711
254464,0,-6.78,8.82,-5.37,-0.200,0.003,1.381,0.00,0.00,-15.54,8.40,-8.76,-0.42,-0.14,-5.29,57.93,-26.72,-1.60,71.34,1297,1473,1395,1275,1359,1499,1520,11066,711
254476,0,-1.97,-1.35,-3.83,-0.025,0.019,1.218,0.00,0.00,-14.87,8.39,-12.90,9.75,-0.13,-5.28,58.10,-44.14,22.70,67.69,1297,1473,1395,1275,1359,1499,1520,11070,711
254488,0,-14.18,1.67,-4.59,-0.126,0.122,1.255,0.00,0.00,-14.07,8.55,0.12,6.89,-0.11,-5.25,58.24,-16.97,-16.08,69.72,1297,1473,1395,1275,1359,1499,1520,11100,711
254500,0,-21.42,11.52,-5.06,-0.136,0.148,1.251,0.00,0.00,-13.18,8.33,8.24,-3.19,-0.09,-5.27,58.43,-11.58,-6.69,71.09,1297,1473,1395,1275,1359,1499,1520,11079,711
254512,0,-24.43,11.78,-5.93,-0.160,0.140,1.279,0.00,0.00,-12.27,8.38,12.16,-3.40,-0.06,-5.27,58.58,-11.94,-29.37,73.40,1297,1473,1395,1275,1359,1499,1520,11070,711
254524,0,-21.84,6.87,-4.62,-0.083,0.137,1.166,0.00,0.00,-11.35,8.28,10.49,1.40,-0.03,-5.27,58.74,-23.40,-6.17,70.29,1193,1429,1441,1373,1359,1499,1520,11066,708
254536,0,-21.74,26.57,-6.04,-0.225,0.217,1.344,0.00,0.00,-10.44,8.15,11.30,-18.41,0.00,-5.28,58.87,-24.67,-72.88,73.97,1193,1429,1441,1373,1359,1499,1520,11091,708
254548,0,-30.26,1.03,-2.59,-0.067,0.208,1.163,0.00,0.00,-9.44,8.13,20.82,7.10,0.04,-5.27,58.97,-11.25,21.48,65.44,1193,1429,1441,1373,1359,1499,1520,11100,708
254560,0,-26.02,22.89,-3.61,-0.139,0.220,1.245,0.00,0.00,-8.56,7.91,17.47,-14.98,0.08,-5.30,59.07,-18.49,-42.00,68.10,1193,1429,1441,1373,1359,1499,1520,11100,708
254572,0,-24.59,3.44,-1.12,-0.038,0.175,1.130,0.00,0.00,-7.63,7.95,16.96,4.51,0.12,-5.28,59.12,-24.83,-9.06,61.92,1193,1429,1441,1373,1359,1499,1520,11095,708
254584,0,-15.85,12.97,-2.30,0.021,0.235,1.078,0.00,0.00,-6.90,7.64,8.95,-5.34,0.16,-5.29,59.17,-35.11,-13.06,64.93,1193,1429,1441,1373,1347,1499,1520,11100,708
254596,0,-18.55,22.19,-2.76,-0.040,0.255,1.243,0.00,0.00,-6.09,7.34,12.45,-14.84,0.19,-5.30,59.24,-29.50,-59.24,66.13,1193,1429,1441,1373,1347,1499,1520,11075,708
254608,0,-14.38,10.25,-0.80,0.078,0.264,1.103,0.00,0.00,-5.47,6.93,8.91,-3.32,0.23,-5.32,59.29,-31.23,10.97,61.29,1193,1429,1441,1373,1295,1499,1520,11075,708
254620,0,-14.38,24.24,-0.84,0.068,0.227,1.152,0.00,0.00,-4.79,6.38,9.58,-17.86,0.26,-5.35,59.36,-31.03,-41.62,61.47,1232,1366,1358,1224,1255,1499,1520,11083,708
254632,0,-10.61,13.32,-1.11,0.016,0.192,1.117,0.00,0.00,-4.17,6.05,6.44,-7.26,0.29,-5.36,59.41,-34.84,-15.68,62.19,1232,1366,1358,1224,1255,1499,1520,11108,708
254644,0,-9.99,22.61,-3.25,0.053,0.120,1.200,0.00,0.00,-3.48,5.44,6.51,-17.17,0.33,-5.40,59.55,-34.62,-25.03,67.68,1232,1366,1358,1224,1126,1499,1520,11116,708
254656,0,-2.71,33.85,-4.32,-0.077,0.124,1.290,0.00,0.00,-2.84,4.99,-0.14,-28.86,0.36,-5.44,59.66,-47.43,-74.02,70.47,1232,1366,1358,1224,1126,1499,1520,11141,708
254668,0,-6.31,13.25,-1.31,-0.059,0.072,1.150,0.00,0.00,-2.11,4.65,4.20,-8.60,0.39,-5.47,59.78,-41.71,-0.31,63.05,1232,1366,1358,1224,1110,1499,1520,11204,708
254680,0,-12.47,24.05,-3.83,-0.019,-0.004,1.198,0.00,0.00,-1.39,3.96,11.08,-20.09,0.43,-5.54,59.96,-27.21,2.43,69.53,1232,1366,1358,1224,1040,1499,1520,11233,708
254692,0,-14.10,49.15,-4.79,-0.215,-0.027,1.298,0.00,0.00,-0.65,3.02,13.45,-46.13,0.46,-5.64,60.16,-24.04,-48.62,72.12,1232,1366,1358,1224,1040,1499,1520,11274,708
254704,0,-22.88,42.02,-4.27,-0.248,-0.020,1.202,0.00,0.00,0.10,2.27,22.98,-39.75,0.50,-5.74,60.34,-9.66,-11.99,71.01,1232,1366,1358,1224,1038,1499,1520,11308,708
254716,0,-26.47,34.20,-6.13,-0.167,0.012,1.130,0.00,0.00,0.76,1.64,27.23,-32.56,0.54,-5.82,60.50,-3.66,-2.38,75.83,1100,1100,1100,1100,1038,1499,1520,11337,738
254728,0,-31.46,35.57,-8.43,-0.087,-0.025,1.042,0.00,0.00,1.37,0.87,32.83,-34.70,0.58,-5.91,60.68,10.40,-8.41,81.77,1100,1100,1100,1100,1037,1498,1520,11424,738
254740,0,-39.51,25.34,-7.30,0.141,-0.011,0.763,0.00,0.00,2.09,0.01,41.60,-25.33,0.62,-5.98,60.86,24.91,2.79,79.12,1100,1100,1100,1100,1037,1498,1520,11441,738
254752,0,-34.75,18.62,-6.56,0.362,0.011,0.522,0.00,0.00,2.63,-1.08,37.39,-19.70,0.66,-6.00,61.02,18.67,-29.24,77.41,1100,1100,1100,1100,1037,1498,1520,11474,738
254764,0,-37.59,35.67,-6.31,0.276,0.034,0.635,0.00,0.00,3.43,-2.18,41.03,-37.84,0.70,-6.06,61.24,15.25,-87.38,77.01,1100,1100,1100,1100,1038,1498,1520,11487,738
254776,0,-40.68,25.48,-6.22,0.329,0.011,0.529,0.00,0.00,4.10,-3.51,44.78,-28.98,0.75,-6.14,61.46,22.34,-1.21,77.00,1100,1100,1100,1100,1038,1498,1520,11491,738
254788,0,-42.76,30.28,-8.79,0.182,0.052,0.616,0.00,0.00,4.92,-4.81,47.67,-35.09,0.81,-6.23,61.70,19.91,-18.97,83.67,1100,1100,1100,1100,1038,1499,1520,11478,738
254800,0,-44.96,16.30,-9.26,0.242,0.032,0.411,0.00,0.00,5.75,-6.47,50.72,-22.76,0.86,-6.34,61.96,22.46,64.32,85.10,1100,1100,1100,1100,1033,1499,1520,11478,738
254812,0,-39.64,53.49,-8.98,-0.011,0.016,0.587,0.00,0.00,6.71,-7.97,46.35,-61.46,0.93,-6.47,62.22,2.49,-56.49,84.67,1100,1100,1100,1100,1033,1499,1520,11491,738
254824,0,-45.96,55.30,-9.91,0.115,-0.057,0.533,0.00,0.00,7.82,-9.52,53.78,-64.82,1.00,-6.61,62.56,6.44,-61.68,87.33,1100,1100,1100,1100,1027,1502,1523,11499,734
254836,0,-56.13,63.29,-13.53,0.189,-0.036,0.589,0.00,0.00,8.98,-11.12,65.11,-74.41,1.07,-6.77,62.92,23.74,-67.69,96.74,1100,1100,1100,1100,1027,1502,1523,11478,734
254848,0,-59.40,71.08,-12.50,0.129,0.005,0.623,0.00,0.00,10.30,-12.89,69.69,-83.97,1.15,-6.95,63.28,28.61,-84.73,94.52,1100,1100,1100,1100,1019,1502,1529,11499,734
254860,0,-58.27,51.56,-11.60,0.259,-0.072,0.379,0.00,0.00,11.75,-14.98,70.02,-66.53,1.23,-7.14,63.64,23.20,16.34,92.65,1100,1100,1100,1100,1027,1499,1523,11499,734
254872,0,-61.03,40.99,-11.34,0.505,-0.113,0.191,0.00,0.00,13.24,-17.40,74.26,-58.39,1.31,-7.30,64.00,27.39,24.66,92.34,1100,1100,1100,1100,1027,1499,1523,11503,734
254884,0,-62.87,29.82,-12.48,0.602,-0.037,0.066,0.00,0.00,14.45,-20.15,77.32,-49.97,1.40,-7.42,64.34,32.44,-3.04,95.54,1100,1100,1100,1100,1021,1499,1532,11499,734
254896,0,-55.16,47.48,-13.75,0.401,0.046,0.160,0.00,0.00,16.44,-22.82,71.60,-70.31,1.49,-7.54,64.73,13.34,-110.00,99.11,1100,1100,1100,1100,1021,1499,1532,11495,734
254908,0,-54.60,88.78,-17.59,-0.010,0.067,0.483,0.00,0.00,18.36,-25.41,72.97,-114.18,1.59,-7.74,65.23,3.16,-110.00,109.20,1100,1100,1100,1100,1033,1499,1520,11499,734
254920,0,-62.22,100.68,-17.96,-0.103,0.081,0.582,0.00,0.00,19.83,-27.29,82.05,-127.97,1.69,-8.02,65.77,10.12,-110.00,110.00,1100,1100,1100,1100,1033,1499,1520,11499,730
254932,0,-72.27,48.73,-17.28,0.227,-0.017,0.273,0.00,0.00,21.43,-29.28,93.70,-78.01,1.80,-8.24,66.28,29.06,35.54,109.46,1100,1100,1100,1100,1033,1499,1520,11508,730
254944,0,-80.35,30.97,-18.39,0.321,0.001,0.198,0.00,0.00,23.49,-31.65,103.84,-62.62,1.92,-8.41,66.80,42.51,20.68,110.00,1100,1100,1100,1100,1033,1499,1520,11528,730
254956,0,-86.57,81.60,-21.61,-0.056,0.009,0.559,0.00,0.00,25.09,-33.43,111.65,-115.03,2.04,-8.66,67.42,47.86,-110.00,110.00,1100,1100,1100,1100,1033,1499,1520,11524,730
254968,0,-84.33,83.48,-21.83,-0.011,0.031,0.495,0.00,0.00,26.59,-34.98,110.91,-118.46,2.17,-8.96,68.05,39.65,-61.00,110.00,1100,1100,1100,1100,1032,1499,1520,11532,730
254980,0,-82.70,49.64,-20.61,0.134,0.007,0.280,0.00,0.00,28.20,-36.68,110.91,-86.32,2.30,-9.18,68.65,34.23,11.16,110.00,1100,1100,1100,1100,1032,1499,1520,11524,730
254992,0,-87.11,63.01,-22.70,0.054,0.022,0.409,0.00,0.00,29.80,-38.45,116.91,-101.46,2.44,-9.42,69.29,36.30,-60.58,110.00,1100,1100,1100,1100,1032,1499,1520,11520,730
255004,0,-94.52,69.96,-22.55,0.039,-0.004,0.401,0.00,0.00,31.56,-39.97,126.08,-109.94,2.58,-9.68,69.96,47.62,-63.48,110.00,1100,1100,1100,1100,1032,1499,1520,11516,730
