time_ms,flags,gyro_x,gyro_y,gyro_z,accel_x,accel_y,accel_z,roll,pitch,angle_sp_roll,angle_sp_pitch,angle_err_roll,angle_err_pitch,angle_i_roll,rate_sp_roll,rate_sp_pitch,rate_err_roll,rate_err_pitch,rate_i_roll,pid_roll,pid_pitch,pid_yaw,m1,m2,m3,m4,rc_thr,rc_roll,rc_pitch,battery_mv,loop_us
129999,9,0.12,0.00,-0.04,0.006,-0.057,0.890,-2.16,0.14,0.00,0.00,2.16,-0.14,0.00,7.55,-0.48,7.43,-0.48,0.00,0.27,-0.02,0.37,1000,1000,1000,1000,1033,1500,1508,10608,768
130011,9,0.09,0.03,-0.02,0.007,-0.056,0.890,-2.15,0.14,-2.16,0.00,-0.01,-0.14,0.00,-0.04,-0.50,-0.13,-0.53,0.00,-0.01,-0.03,0.13,1000,1000,1000,1000,1033,1476,1508,10608,768
130023,9,0.07,-0.02,-0.04,0.006,-0.055,0.892,-2.13,0.15,0.00,0.00,2.13,-0.15,0.00,7.46,-0.51,7.39,-0.49,0.00,0.30,-0.01,0.25,1000,1000,1000,1000,1033,1500,1508,10608,768
130035,9,0.09,0.02,-0.00,0.005,-0.058,0.892,-2.14,0.13,0.00,0.00,2.14,-0.13,0.00,7.47,-0.45,7.38,-0.47,0.00,0.29,-0.03,-0.17,1000,1000,1000,1000,1033,1500,1508,10608,768
130047,9,0.11,0.02,0.00,0.005,-0.057,0.891,-2.14,0.11,0.00,0.00,2.14,-0.11,0.00,7.49,-0.40,7.38,-0.42,0.00,0.29,-0.03,-0.15,1100,1100,1100,1100,1033,1500,1508,10608,906
130059,9,0.08,0.03,-0.03,0.006,-0.056,0.889,-2.13,0.11,0.00,0.00,2.13,-0.11,0.00,7.45,-0.40,7.38,-0.43,0.00,0.30,-0.02,0.29,1100,1100,1100,1100,1033,1500,1508,10608,906
130071,9,0.12,-0.04,-0.04,0.005,-0.057,0.888,-2.13,0.10,0.00,0.00,2.13,-0.10,0.00,7.46,-0.35,7.34,-0.31,0.00,0.28,0.00,0.27,1100,1100,1100,1100,1033,1500,1508,10608,906
130083,9,0.12,-0.02,-0.04,0.005,-0.057,0.889,-2.14,0.09,0.00,0.00,2.14,-0.09,0.00,7.48,-0.33,7.36,-0.31,0.00,0.29,-0.01,0.23,1100,1100,1100,1100,1033,1507,1501,10608,906
130095,9,0.11,-0.05,-0.07,0.005,-0.056,0.889,-2.13,0.09,0.00,0.00,2.13,-0.09,0.00,7.47,-0.32,7.36,-0.27,0.00,0.29,-0.00,0.57,1100,1100,1100,1100,1033,1507,1501,10608,906
130107,9,0.11,-0.02,-0.05,0.006,-0.057,0.888,-2.14,0.08,0.00,0.00,2.14,-0.08,0.00,7.49,-0.28,7.38,-0.25,0.00,0.30,-0.01,0.21,1100,1100,1100,1100,1033,1500,1508,10604,906
130119,9,0.12,-0.01,-0.10,0.005,-0.056,0.890,-2.14,0.07,0.00,0.00,2.14,-0.07,0.00,7.48,-0.24,7.35,-0.23,0.00,0.29,-0.01,0.85,1100,1100,1100,1100,1033,1500,1508,10604,906
130131,9,0.11,0.01,-0.11,0.006,-0.056,0.890,-2.13,0.06,0.00,0.00,2.13,-0.06,0.00,7.46,-0.21,7.35,-0.23,0.00,0.30,-0.01,0.68,1100,1100,1100,1100,1033,1500,1508,10600,906
130144,9,0.08,-0.01,-0.10,0.006,-0.055,0.890,-2.12,0.06,0.00,0.00,2.12,-0.06,0.00,7.42,-0.22,7.34,-0.22,0.00,0.31,-0.01,0.52,1100,1100,1100,1100,1033,1500,1508,10600,1083
130155,9,0.13,-0.06,-0.05,0.005,-0.056,0.889,-2.11,0.08,0.00,0.00,2.11,-0.08,0.00,7.39,-0.29,7.26,-0.23,0.00,0.29,0.01,-0.06,1100,1100,1100,1100,1033,1500,1508,10600,1083
130167,9,0.08,-0.04,0.01,0.005,-0.057,0.890,-2.11,0.08,0.00,0.00,2.11,-0.08,0.00,7.39,-0.27,7.31,-0.23,0.00,0.31,0.00,-0.53,1100,1100,1100,1100,1033,1500,1508,10600,1083
130179,9,0.10,-0.07,-0.00,0.006,-0.056,0.888,-2.12,0.08,0.00,0.00,2.12,-0.08,0.00,7.42,-0.27,7.33,-0.20,0.00,0.29,0.01,-0.04,1100,1100,1100,1100,1033,1500,1508,10600,1083
130191,9,0.12,-0.04,-0.03,0.006,-0.057,0.889,-2.12,0.08,0.00,0.00,2.12,-0.08,0.00,7.43,-0.29,7.31,-0.24,0.00,0.28,-0.01,0.31,1100,1100,1100,1100,1033,1500,1508,10600,1083
130203,9,0.09,0.03,-0.11,0.006,-0.056,0.890,-2.13,0.09,0.00,0.00,2.13,-0.09,0.00,7.46,-0.30,7.36,-0.33,0.00,0.30,-0.03,1.14,1100,1100,1100,1100,1033,1500,1508,10600,1083
130215,9,0.07,0.05,-0.20,0.005,-0.053,0.891,-2.10,0.08,0.00,0.00,2.10,-0.08,0.00,7.35,-0.29,7.28,-0.34,0.00,0.30,-0.03,1.75,1100,1100,1100,1100,1033,1500,1508,10596,1083
130227,9,0.13,0.10,0.09,0.003,-0.060,0.889,-2.12,0.05,0.00,0.00,2.12,-0.05,0.00,7.43,-0.18,7.30,-0.28,0.00,0.29,-0.05,-1.99,1100,1100,1100,1100,1033,1500,1508,10592,1083
130239,9,0.16,0.03,0.17,0.002,-0.058,0.893,-2.14,0.02,0.00,0.00,2.14,-0.02,0.00,7.48,-0.08,7.33,-0.11,0.00,0.28,0.01,-1.78,1100,1100,1100,1100,1033,1500,1508,10583,1083
130251,9,0.08,0.09,-0.31,0.001,-0.050,0.893,-2.10,-0.00,0.00,0.00,2.10,0.00,0.00,7.35,0.02,7.27,-0.07,0.00,0.32,0.01,3.82,1100,1100,1100,1100,1033,1500,1508,10583,760
130263,9,0.16,0.02,-0.16,0.001,-0.063,0.894,-2.15,-0.08,0.00,0.00,2.15,0.08,0.00,7.53,0.26,7.38,0.25,0.00,0.29,0.05,0.59,1100,1100,1100,1100,1033,1500,1508,10579,760
130275,9,0.08,0.07,0.15,0.004,-0.054,0.896,-2.16,-0.06,0.00,0.00,2.16,0.06,0.00,7.55,0.21,7.47,0.14,0.00,0.32,-0.01,-2.40,1100,1100,1100,1100,1033,1500,1508,10567,760
130287,9,0.10,-0.15,-0.19,0.002,-0.059,0.893,-2.17,-0.03,0.00,0.00,2.17,0.03,0.00,7.59,0.09,7.49,0.24,0.00,0.31,0.06,2.28,1100,1100,1100,1100,1033,1500,1508,10571,760
130299,9,0.18,0.25,-0.26,0.001,-0.063,0.891,-2.23,-0.09,0.00,0.00,2.23,0.09,0.00,7.82,0.32,7.64,0.07,0.00,0.29,-0.08,2.09,1100,1100,1100,1100,1033,1500,1508,10563,760
130311,9,0.17,0.87,0.21,-0.010,-0.047,0.899,-2.15,-0.18,0.00,0.00,2.15,0.18,0.00,7.54,0.63,7.37,-0.24,0.00,0.28,-0.27,-3.38,1100,1100,1100,1100,1033,1500,1509,10546,760
130323,9,0.08,-0.13,0.09,0.002,-0.053,0.888,-2.08,-0.36,0.00,0.00,2.08,0.36,0.00,7.29,1.25,7.22,1.38,0.00,0.31,0.28,-0.82,1100,1100,1100,1100,1033,1500,1509,10546,760
130335,9,0.10,0.06,-0.31,0.011,-0.058,0.885,-2.06,-0.20,0.00,0.00,2.06,0.20,0.00,7.22,0.69,7.12,0.63,0.00,0.31,0.10,3.62,1100,1100,1100,1100,1033,1500,1509,10529,760
130347,9,0.09,0.04,-0.07,0.007,-0.058,0.889,-2.13,-0.14,0.00,0.00,2.13,0.14,0.00,7.47,0.49,7.38,0.45,0.00,0.31,0.07,-0.29,1100,1100,1100,1100,1033,1500,1508,10517,761
130359,25,0.04,-0.06,0.16,0.005,-0.055,0.885,-2.16,-0.08,0.00,0.00,2.16,0.08,0.00,7.56,0.27,7.52,0.32,0.00,0.32,0.07,-2.42,1100,1100,1100,1100,1033,1500,1508,10467,761
130371,25,-0.03,0.50,-0.21,0.003,-0.057,0.887,-2.17,-0.03,0.00,0.00,2.17,0.03,0.00,7.61,0.10,7.64,-0.40,0.00,0.33,-0.19,2.51,1100,1100,1100,1100,1033,1500,1508,10463,761
130383,25,0.17,-0.00,-0.30,-0.001,-0.064,0.914,-2.20,-0.01,0.00,0.00,2.20,0.01,0.00,7.71,0.05,7.55,0.05,0.00,0.23,0.07,2.54,1100,1100,1100,1100,1033,1500,1509,10471,761
130395,25,0.21,-0.54,0.08,0.003,-0.051,0.880,-2.19,-0.04,0.00,0.00,2.19,0.04,0.00,7.66,0.14,7.45,0.69,0.00,0.24,0.26,-1.88,1100,1100,1100,1100,1033,1500,1509,10479,761
130407,25,0.15,0.20,0.20,0.012,-0.054,0.883,-2.16,-0.10,0.00,0.00,2.16,0.10,0.00,7.56,0.35,7.41,0.15,0.00,0.27,-0.06,-2.33,1100,1100,1100,1100,1033,1500,1509,10492,761
130419,25,0.22,0.43,0.16,0.013,-0.054,0.896,-2.11,-0.00,0.00,0.00,2.11,0.00,0.00,7.38,0.00,7.16,-0.43,0.00,0.25,-0.16,-1.10,1100,1100,1100,1100,1033,1500,1509,10496,761
130431,9,-0.17,0.72,-0.72,-0.020,-0.064,0.894,-2.14,-0.21,0.00,0.00,2.14,0.21,0.00,7.50,0.75,7.67,0.03,0.00,0.43,-0.22,8.48,1100,1100,1100,1100,1033,1500,1508,10513,761
130443,9,-0.32,0.47,-0.52,0.007,-0.054,0.902,-2.19,-0.27,0.00,0.00,2.19,0.27,0.00,7.68,0.93,8.01,0.46,0.00,0.44,-0.05,3.44,1100,1100,1100,1100,1033,1500,1508,10517,760
130455,9,0.66,-0.59,0.90,0.010,-0.052,0.882,-2.02,0.04,0.00,0.00,2.02,-0.04,0.00,7.07,-0.16,6.41,0.44,0.00,-0.00,0.31,-12.16,1100,1100,1100,1100,1033,1500,1508,10513,760
130467,9,0.55,-0.63,0.67,-0.005,-0.068,0.897,-2.15,-0.00,0.00,0.00,2.15,0.00,0.00,7.52,0.02,6.97,0.64,0.00,0.20,0.20,-4.47,1100,1100,1100,1100,1033,1500,1508,10513,760
130479,9,-0.63,0.41,-2.02,0.008,-0.061,0.876,-2.30,-0.11,0.00,0.00,2.30,0.11,0.00,8.04,0.37,8.67,-0.03,0.00,0.68,-0.19,24.36,1100,1100,1100,1100,1033,1500,1508,10517,760
130491,9,0.07,-0.63,-0.10,0.032,-0.032,0.890,-1.95,0.28,0.00,0.00,1.95,-0.28,0.00,6.84,-0.99,6.77,-0.36,0.00,0.17,0.27,-5.58,1100,1100,1100,1100,1033,1500,1508,10513,760
130503,9,1.37,-0.45,2.96,-0.008,-0.065,0.885,-1.88,0.16,0.00,0.00,1.88,-0.16,0.00,6.60,-0.54,5.23,-0.09,0.00,-0.19,0.05,-33.03,1100,1100,1100,1100,1033,1500,1508,10521,760
130515,9,-1.02,0.41,-1.76,0.014,-0.080,0.873,-2.46,-0.06,0.00,0.00,2.46,0.06,0.00,8.62,0.21,9.65,-0.20,0.00,0.98,-0.22,27.46,1100,1100,1100,1100,1033,1500,1508,10513,760
130527,9,-0.34,-1.11,-1.82,0.064,-0.034,0.876,-2.11,0.81,0.00,0.00,2.11,-0.81,0.00,7.40,-2.83,7.74,-1.72,0.00,0.33,0.27,14.85,1100,1100,1100,1100,1033,1500,1509,10513,760
130539,9,1.26,-0.24,2.60,0.000,-0.071,0.875,-1.88,0.86,0.00,0.00,1.88,-0.86,0.00,6.58,-3.03,5.32,-2.79,0.00,-0.20,-0.25,-33.35,1100,1100,1100,1100,1033,1500,1509,10521,760
130551,9,-1.18,0.36,-0.37,0.030,-0.061,0.906,-2.36,0.83,0.00,0.00,2.36,-0.83,0.00,8.28,-2.90,9.46,-3.26,0.00,1.04,-0.35,10.25,1100,1100,1100,1100,1033,1500,1509,10509,760
130563,9,0.21,0.26,-1.24,-0.031,-0.000,0.904,-1.63,0.50,0.00,0.00,1.63,-0.50,0.00,5.69,-1.74,5.49,-2.00,0.00,0.04,-0.30,13.96,1100,1100,1100,1100,1033,1500,1508,10513,760
130575,9,0.97,0.14,-0.45,-0.001,-0.117,0.864,-2.04,0.04,0.00,0.00,2.04,-0.04,0.00,7.14,-0.14,6.17,-0.29,0.00,-0.05,-0.10,1.50,1100,1100,1100,1100,1033,1500,1508,10509,760
130587,9,-0.26,-0.66,1.85,0.019,-0.036,0.906,-2.22,0.47,-2.34,0.00,-0.12,-0.47,0.00,-0.41,-1.64,-0.15,-0.97,0.00,0.12,0.27,-22.59,1100,1100,1100,1100,1033,1474,1508,10509,760
130599,9,0.17,0.63,-0.42,-0.028,-0.039,0.892,-1.86,0.12,-2.34,0.00,-0.48,-0.12,0.00,-1.68,-0.42,-1.85,-1.05,0.00,-0.11,-0.29,10.25,1100,1100,1100,1100,1033,1474,1508,10509,760
130611,9,-0.30,-0.18,-1.58,0.024,-0.055,0.897,-1.96,0.40,0.00,0.00,1.96,-0.40,0.00,6.85,-1.41,7.16,-1.23,0.00,0.46,0.09,15.83,1100,1100,1100,1100,1033,1500,1508,10513,760
130623,9,0.70,0.84,1.19,-0.011,-0.102,0.880,-2.26,0.05,0.00,0.00,2.26,-0.05,0.00,7.91,-0.18,7.21,-1.03,0.00,0.10,-0.31,-16.88,1100,1100,1100,1100,1033,1500,1508,10504,760
130635,9,-0.54,-0.62,0.47,0.029,-0.020,0.902,-2.19,0.29,0.00,0.00,2.19,-0.29,0.00,7.66,-1.03,8.20,-0.41,0.00,0.56,0.38,-3.00,1100,1100,1100,1100,1033,1500,1508,10500,760
130647,9,0.61,0.22,-0.95,-0.019,-0.079,0.869,-1.98,0.00,0.00,0.00,1.98,-0.00,0.00,6.95,-0.00,6.33,-0.23,0.00,0.02,-0.19,12.72,1100,1100,1100,1100,1033,1500,1508,10504,760
130659,9,-0.16,-0.61,-0.45,0.037,-0.033,0.912,-2.15,0.41,0.00,0.00,2.15,-0.41,0.00,7.54,-1.45,7.70,-0.83,0.00,0.47,0.19,2.10,1100,1100,1100,1100,1033,1500,1508,10513,760
130671,9,0.42,0.37,1.35,-0.014,-0.067,0.865,-2.07,0.17,0.00,0.00,2.07,-0.17,0.00,7.24,-0.59,6.81,-0.96,0.00,0.12,-0.35,-16.05,1100,1100,1100,1100,1033,1500,1508,10517,760
130683,9,0.09,-0.18,-0.32,0.016,0.004,0.923,-1.66,0.20,0.00,0.00,1.66,-0.20,0.00,5.80,-0.71,5.71,-0.54,0.00,0.20,0.09,7.14,1100,1100,1100,1100,1033,1500,1508,10517,760
130695,9,0.49,0.29,-0.95,0.011,-0.099,0.865,-1.89,0.15,0.00,0.00,1.89,-0.15,0.00,6.63,-0.52,6.14,-0.80,0.00,0.12,-0.17,10.07,1100,1100,1100,1100,1033,1500,1508,10513,760
130707,9,-0.54,-0.45,0.25,-0.008,-0.007,0.918,-1.97,0.29,0.00,0.00,1.97,-0.29,0.00,6.89,-1.03,7.43,-0.57,0.00,0.55,0.13,-5.43,1100,1100,1100,1100,1033,1500,1508,10517,760
130719,9,0.68,1.30,0.65,-0.012,-0.103,0.891,-2.02,-0.11,0.00,0.00,2.02,0.11,0.00,7.07,0.40,6.39,-0.90,0.00,0.01,-0.57,-7.04,1100,1100,1100,1100,1033,1500,1508,10538,760
130731,9,0.13,-0.55,-0.69,-0.013,0.007,0.909,-1.70,-0.10,0.00,0.00,1.70,0.10,0.00,5.96,0.35,5.84,0.90,0.00,0.23,0.40,9.96,1100,1100,1100,1100,1033,1500,1508,10529,760
130743,9,0.03,0.76,-0.56,-0.009,-0.119,0.887,-2.19,-0.29,0.00,0.00,2.19,0.29,0.00,7.66,1.01,7.62,0.25,0.00,0.36,-0.23,4.05,1100,1100,1100,1100,1033,1500,1508,10534,760
130755,9,-0.09,-0.57,0.35,-0.009,0.017,0.901,-1.68,-0.25,0.00,0.00,1.68,0.25,0.00,5.88,0.87,5.96,1.44,0.00,0.30,0.38,-5.06,1100,1100,1100,1100,1033,1500,1508,10538,760
130767,9,0.73,-0.44,0.37,0.066,-0.108,0.862,-2.03,0.16,0.00,0.00,2.03,-0.16,0.00,7.12,-0.57,6.39,-0.14,0.00,0.06,0.32,-3.67,1100,1100,1100,1100,1033,1500,1508,10534,760
130779,9,-0.26,-0.31,-0.90,-0.012,-0.013,0.877,-1.71,0.34,0.00,0.00,1.71,-0.34,0.00,6.00,-1.19,6.26,-0.89,0.00,0.42,-0.02,11.57,1100,1100,1100,1100,1033,1500,1508,10546,760
130791,9,0.25,0.26,0.21,0.049,-0.100,0.885,-2.21,0.38,0.00,0.00,2.21,-0.38,0.00,7.74,-1.33,7.48,-1.59,0.00,0.26,-0.10,-5.02,1100,1100,1100,1100,1033,1500,1508,10529,760
130803,9,0.06,1.11,-0.22,-0.047,-0.029,0.900,-1.73,0.05,0.00,0.00,1.73,-0.05,0.00,6.06,-0.16,5.99,-1.28,0.00,0.25,-0.55,2.92,1100,1100,1100,1100,1033,1500,1508,10538,760
130815,9,0.09,-0.21,0.27,0.031,-0.068,0.899,-2.11,0.07,0.00,0.00,2.11,-0.07,0.00,7.38,-0.24,7.29,-0.04,0.00,0.33,0.34,-3.23,1100,1100,1100,1100,1033,1500,1508,10529,760
130827,9,-0.05,-0.02,-1.04,-0.016,-0.059,0.870,-1.90,-0.18,0.00,0.00,1.90,0.18,0.00,6.65,0.64,6.69,0.66,0.00,0.30,-0.00,11.16,1100,1100,1100,1100,1033,1500,1508,10529,760
130839,9,0.16,-0.69,0.61,0.030,-0.047,0.898,-2.28,0.24,0.00,0.00,2.28,-0.24,0.00,7.98,-0.82,7.83,-0.13,0.00,0.31,0.30,-9.45,1100,1100,1100,1100,1033,1500,1508,10517,760
130851,9,-0.02,0.96,-0.19,-0.002,-0.084,0.880,-2.08,0.04,0.00,0.00,2.08,-0.04,0.00,7.29,-0.15,7.31,-1.11,0.00,0.34,-0.48,1.80,1100,1100,1100,1100,1033,1500,1508,10521,760
130863,9,-0.29,-1.45,0.02,0.010,-0.027,0.890,-2.16,0.48,0.00,0.00,2.16,-0.48,0.00,7.54,-1.67,7.83,-0.22,0.00,0.47,0.49,0.29,1100,1100,1100,1100,1033,1500,1508,10525,760
130875,9,0.33,1.15,-0.31,0.011,-0.087,0.901,-2.10,0.17,0.00,0.00,2.10,-0.17,0.00,7.34,-0.60,7.01,-1.75,0.00,0.19,-0.61,1.94,1100,1100,1100,1100,1033,1500,1508,10529,760
130887,9,-0.02,-0.41,0.18,-0.030,-0.053,0.881,-2.20,0.17,0.00,0.00,2.20,-0.17,0.00,7.71,-0.59,7.74,-0.18,0.00,0.36,0.12,-1.82,1100,1100,1100,1100,1033,1500,1508,10529,760
130899,9,0.49,0.78,0.47,0.016,-0.050,0.923,-2.08,-0.04,0.00,0.00,2.08,0.04,0.00,7.30,0.13,6.80,-0.65,0.00,0.10,-0.26,-5.84,1100,1100,1100,1100,1033,1500,1508,10521,760
130911,9,0.38,0.04,-0.69,-0.024,-0.041,0.864,-2.00,-0.27,0.00,0.00,2.00,0.27,0.00,6.99,0.96,6.60,0.92,0.00,0.15,0.11,9.72,1100,1100,1100,1100,1033,1500,1508,10517,760
130923,9,0.18,-1.39,0.37,0.032,-0.051,0.914,-2.12,0.06,0.00,0.00,2.12,-0.06,0.00,7.44,-0.23,7.26,1.17,0.00,0.26,0.65,-5.83,1100,1100,1100,1100,1033,1500,1508,10517,760
130935,9,0.14,0.14,-0.49,-0.030,-0.080,0.864,-2.41,-0.20,0.00,0.00,2.41,0.20,0.00,8.44,0.70,8.31,0.57,0.00,0.32,-0.22,5.19,1100,1100,1100,1100,1033,1500,1508,10513,760
130947,9,0.39,-1.08,0.44,0.011,-0.045,0.927,-2.17,0.22,0.00,0.00,2.17,-0.22,0.00,7.58,-0.76,7.19,0.31,0.00,0.16,0.39,-5.01,1100,1100,1100,1100,1033,1500,1508,10513,760
130959,9,0.19,-0.02,-0.64,-0.014,-0.034,0.876,-2.25,-0.13,0.00,0.00,2.25,0.13,0.00,7.87,0.46,7.68,0.48,0.00,0.29,-0.01,6.39,1100,1100,1100,1100,1033,1500,1508,10513,760
130971,9,0.72,-0.68,0.16,0.014,-0.083,0.884,-2.13,-0.11,0.00,0.00,2.13,0.11,0.00,7.47,0.39,6.75,1.07,0.00,0.01,0.38,-1.84,1100,1100,1100,1100,1033,1500,1508,10513,760
130983,9,-0.05,-1.13,0.02,0.042,-0.029,0.855,-2.25,0.01,0.00,0.00,2.25,-0.01,0.00,7.88,-0.05,7.93,1.08,0.00,0.40,0.53,-1.56,1100,1100,1100,1100,1033,1500,1508,10513,760
130995,9,0.72,1.08,-0.52,-0.007,-0.075,0.916,-2.23,-0.10,0.00,0.00,2.23,0.10,0.00,7.79,0.35,7.07,-0.73,0.00,0.04,-0.53,6.49,1100,1100,1100,1100,1033,1500,1508,10500,760
131007,9,-0.10,-0.36,0.26,0.011,-0.010,0.873,-1.94,-0.04,0.00,0.00,1.94,0.04,0.00,6.80,0.16,6.90,0.51,0.00,0.35,0.21,-5.28,1100,1100,1100,1100,1033,1500,1508,10509,760
131019,9,0.16,0.53,-0.47,0.027,-0.097,0.875,-2.30,0.07,0.00,0.00,2.30,-0.07,0.00,8.06,-0.23,7.90,-0.77,0.00,0.34,-0.19,5.61,1100,1100,1100,1100,1033,1500,1508,10521,760
131031,9,-0.09,0.62,0.54,-0.002,-0.035,0.890,-2.09,0.07,0.00,0.00,2.09,-0.07,0.00,7.31,-0.26,7.40,-0.88,0.00,0.34,-0.33,-7.04,1100,1100,1100,1100,1033,1500,1508,10529,760
131043,9,-0.52,-0.19,-0.48,0.046,-0.085,0.885,-2.53,0.35,0.00,0.00,2.53,-0.35,0.00,8.86,-1.23,9.38,-1.04,0.00,0.67,0.09,5.34,1100,1100,1100,1100,1033,1500,1508,10529,760
131055,9,0.50,1.22,0.04,-0.011,-0.061,0.877,-2.18,0.31,0.00,0.00,2.18,-0.31,0.00,7.65,-1.08,7.15,-2.30,0.00,0.07,-0.72,-1.43,1100,1100,1100,1100,1033,1500,1508,10538,760
131067,9,0.52,-1.36,-0.25,0.026,-0.021,0.891,-2.39,0.87,0.00,0.00,2.39,-0.87,0.00,8.36,-3.05,7.84,-1.69,0.00,0.16,0.35,2.45,1100,1100,1100,1100,1033,1500,1508,10529,760
131079,9,0.04,1.28,-0.00,-0.020,-0.092,0.915,-2.39,0.47,0.00,0.00,2.39,-0.47,0.00,8.35,-1.65,8.31,-2.92,0.00,0.35,-0.75,-0.21,1100,1100,1100,1100,1033,1500,1508,10521,760
131091,9,-0.70,-1.97,-0.46,0.026,-0.001,0.848,-2.01,0.63,0.00,0.00,2.01,-0.63,0.00,7.04,-2.20,7.74,-0.23,0.00,0.65,0.79,4.45,1100,1100,1100,1100,1033,1500,1508,10521,760
131103,9,0.47,0.12,0.24,0.040,-0.100,0.898,-2.41,0.65,0.00,0.00,2.41,-0.65,0.00,8.43,-2.29,7.96,-2.40,0.00,0.21,-0.19,-4.13,1100,1100,1100,1100,1033,1500,1508,10529,760
131115,9,0.22,0.64,-0.35,-0.021,-0.017,0.872,-1.78,0.42,0.00,0.00,1.78,-0.42,0.00,6.24,-1.47,6.02,-2.11,0.00,0.18,-0.57,3.74,1100,1100,1100,1100,1033,1500,1508,10525,760
131127,9,0.43,0.40,0.32,0.005,-0.037,0.914,-2.04,0.14,0.00,0.00,2.04,-0.14,0.00,7.14,-0.49,6.71,-0.89,0.00,0.17,-0.00,-3.80,1100,1100,1100,1100,1033,1500,1508,10529,760
131139,9,0.41,1.67,0.28,-0.016,-0.067,0.881,-1.78,-0.22,0.00,0.00,1.78,0.22,0.00,6.23,0.75,5.82,-0.92,0.00,0.17,-0.51,-2.83,1100,1100,1100,1100,1033,1500,1508,10525,760
131151,9,-0.78,-0.76,0.20,0.040,-0.018,0.897,-1.92,0.04,0.00,0.00,1.92,-0.04,0.00,6.71,-0.12,7.48,0.64,0.00,0.74,0.60,0.60,1100,1100,1100,1100,1033,1500,1508,10529,760
131163,9,0.04,2.01,-0.31,-0.005,-0.109,0.860,-2.11,-0.23,0.00,0.00,2.11,0.23,0.00,7.40,0.81,7.36,-1.21,0.00,0.33,-0.71,2.98,1100,1100,1100,1100,1033,1500,1508,10529,760
131175,9,-0.34,1.02,-0.48,-0.015,-0.027,0.899,-1.93,-0.17,0.00,0.00,1.93,0.17,0.00,6.77,0.60,7.11,-0.42,0.00,0.48,-0.30,5.40,1100,1100,1100,1100,1033,1500,1508,10534,760
131187,9,0.38,-0.22,0.78,0.010,-0.082,0.926,-2.29,0.14,0.00,0.00,2.29,-0.14,0.00,8.01,-0.50,7.63,-0.28,0.00,0.21,0.22,-10.52,1100,1100,1100,1100,1033,1500,1508,10538,760
131199,9,0.38,-1.09,-0.78,-0.018,-0.038,0.842,-1.87,0.15,0.00,0.00,1.87,-0.15,0.00,6.54,-0.53,6.16,0.56,0.00,0.09,0.37,10.30,1100,1100,1100,1100,1033,1500,1508,10534,760
131211,9,0.47,-1.83,-0.11,-0.035,-0.066,0.929,-2.20,-0.05,0.00,0.00,2.20,0.05,0.00,7.70,0.17,7.23,2.00,0.00,0.12,0.80,0.24,1100,1100,1100,1100,1033,1500,1508,10529,760
131223,9,-0.11,1.10,-0.62,0.036,-0.109,0.902,-2.43,-0.24,0.00,0.00,2.43,0.24,0.00,8.52,0.85,8.63,-0.25,0.00,0.41,-0.38,4.06,1100,1100,1100,1100,1033,1500,1508,10538,760
131235,9,-0.05,0.07,0.54,0.001,-0.040,0.849,-2.47,-0.28,0.00,0.00,2.47,0.28,0.00,8.65,0.97,8.70,0.90,0.00,0.37,0.24,-7.55,1100,1100,1100,1100,1033,1500,1508,10538,760
131247,9,0.19,-0.42,0.32,0.054,-0.080,0.886,-2.56,0.12,0.00,0.00,2.56,-0.12,0.00,8.96,-0.41,8.76,0.01,0.00,0.28,0.33,-4.77,1100,1100,1100,1100,1033,1500,1508,10534,760
131259,9,0.39,0.90,-0.83,-0.042,-0.038,0.896,-2.40,-0.41,0.00,0.00,2.40,0.41,0.00,8.38,1.43,7.99,0.53,0.00,0.20,-0.46,9.87,1100,1100,1100,1100,1033,1500,1508,10542,760
131271,9,0.23,0.63,0.56,-0.010,-0.027,0.920,-2.12,-0.44,0.00,0.00,2.12,0.44,0.00,7.42,1.53,7.19,0.91,0.00,0.24,-0.06,-8.85,1100,1100,1100,1100,1033,1501,1508,10525,760
131283,9,-0.02,0.50,-0.87,0.007,-0.071,0.868,-2.36,-0.54,0.00,0.00,2.36,0.54,0.00,8.25,1.89,8.27,1.40,0.00,0.40,0.02,9.64,1100,1100,1100,1100,1033,1500,1508,10525,760
131295,9,-0.17,0.13,-0.10,-0.021,-0.099,0.914,-2.39,-0.31,0.00,0.00,2.39,0.31,0.00,8.36,1.09,8.54,0.96,0.00,0.44,0.02,-0.37,1100,1100,1100,1100,1033,1500,1508,10525,760
131307,9,-0.02,0.17,-0.23,0.041,-0.053,0.879,-2.47,-0.01,0.00,0.00,2.47,0.01,0.00,8.63,0.05,8.65,-0.12,0.00,0.40,0.06,-0.03,1100,1100,1100,1100,1033,1500,1508,10513,760
131319,9,1.17,-0.00,-0.12,-0.034,-0.072,0.911,-2.40,0.10,0.00,0.00,2.40,-0.10,0.00,8.39,-0.35,7.21,-0.34,0.00,-0.18,-0.05,1.22,1100,1100,1100,1100,1033,1500,1508,10529,760
131331,9,-0.22,-0.70,0.38,0.040,-0.014,0.888,-2.05,0.32,0.00,0.00,2.05,-0.32,0.00,7.16,-1.13,7.39,-0.43,0.00,0.43,0.34,-5.90,1100,1100,1100,1100,1033,1500,1508,10521,760
131343,9,0.32,1.45,-0.59,0.020,-0.073,0.860,-2.15,0.27,0.00,0.00,2.15,-0.27,0.00,7.54,-0.95,7.22,-2.40,0.00,0.25,-0.49,6.88,1100,1100,1100,1100,1033,1500,1508,10529,760
131355,9,-0.29,-0.45,0.52,0.046,-0.023,0.861,-1.95,0.74,0.00,0.00,1.95,-0.74,0.00,6.84,-2.60,7.13,-2.15,0.00,0.45,0.18,-7.52,1100,1100,1100,1100,1033,1500,1508,10517,760
131367,9,-0.55,-0.07,-0.50,0.046,-0.068,0.896,-2.35,0.84,0.00,0.00,2.35,-0.84,0.00,8.24,-2.94,8.79,-2.88,0.00,0.64,-0.00,4.75,1100,1100,1100,1100,1033,1500,1508,10521,760
131379,9,0.09,1.20,0.25,-0.020,-0.063,0.878,-1.94,0.66,0.00,0.00,1.94,-0.66,0.00,6.80,-2.32,6.72,-3.52,0.00,0.23,-0.73,-3.70,1100,1100,1100,1100,1033,1500,1508,10525,760
131391,9,0.08,-0.17,-0.16,-0.026,-0.042,0.911,-2.23,0.32,0.00,0.00,2.23,-0.32,0.00,7.81,-1.12,7.73,-0.95,0.00,0.36,0.20,1.63,1100,1100,1100,1100,1033,1500,1508,10525,760
131403,9,0.65,0.64,-0.32,-0.014,-0.117,0.931,-2.44,0.07,0.00,0.00,2.44,-0.07,0.00,8.54,-0.24,7.89,-0.88,0.00,0.07,-0.17,4.26,1100,1100,1100,1100,1033,1500,1508,10529,760
131415,9,-0.76,-2.51,-0.15,0.037,-0.009,0.817,-1.98,0.71,0.00,0.00,1.98,-0.71,0.00,6.92,-2.49,7.68,0.02,0.00,0.61,0.92,-0.10,1100,1100,1100,1100,1033,1500,1508,10529,760
131427,9,0.77,0.18,0.04,0.035,-0.092,0.922,-2.18,0.66,0.00,0.00,2.18,-0.66,0.00,7.63,-2.31,6.86,-2.49,0.00,0.04,-0.25,-1.06,1100,1100,1100,1100,1033,1500,1508,10529,760
131439,9,0.80,-0.15,0.12,-0.023,-0.066,0.864,-1.86,0.62,0.00,0.00,1.86,-0.62,0.00,6.53,-2.17,5.73,-2.02,0.00,-0.10,-0.25,-1.36,1100,1100,1100,1100,1033,1500,1508,10529,760
131451,9,0.09,-1.34,-0.10,0.026,-0.050,0.916,-2.31,0.68,0.00,0.00,2.31,-0.68,0.00,8.08,-2.38,7.98,-1.04,0.00,0.34,0.43,1.49,1100,1100,1100,1100,1033,1500,1508,10534,760
131463,9,0.59,0.60,0.05,0.022,-0.049,0.859,-1.98,0.48,0.00,0.00,1.98,-0.48,0.00,6.94,-1.67,6.35,-2.27,0.00,0.05,-0.49,-1.93,1100,1100,1100,1100,1033,1500,1508,10534,760
131476,9,-1.14,-0.62,-0.02,0.036,-0.010,0.863,-1.88,0.89,0.00,0.00,1.88,-0.89,0.00,6.59,-3.13,7.73,-2.51,0.00,0.88,0.07,0.82,1100,1100,1100,1100,1033,1500,1508,10538,760
131487,9,0.06,0.53,0.42,0.016,-0.124,0.869,-2.41,0.68,0.00,0.00,2.41,-0.68,0.00,8.45,-2.38,8.39,-2.91,0.00,0.35,-0.38,-5.02,1100,1100,1100,1100,1033,1500,1508,10529,760
131499,9,-0.04,0.75,-0.77,-0.066,-0.077,0.902,-2.17,0.14,0.00,0.00,2.17,-0.14,0.00,7.60,-0.49,7.65,-1.24,0.00,0.32,-0.49,9.89,1100,1100,1100,1100,1033,1500,1508,10534,760
131511,9,0.42,-0.11,0.62,-0.015,-0.064,0.942,-2.35,-0.10,0.00,0.00,2.35,0.10,0.00,8.21,0.34,7.80,0.45,0.00,0.24,0.08,-8.21,1100,1100,1100,1100,1033,1500,1508,10534,760
131523,9,0.75,0.70,-0.22,0.044,-0.057,0.850,-2.09,-0.09,0.00,0.00,2.09,0.09,0.00,7.33,0.31,6.58,-0.39,0.00,0.02,-0.19,2.05,1100,1100,1100,1100,1033,1500,1508,10529,760
131535,9,-0.51,-0.75,0.36,0.054,0.003,0.876,-1.99,0.49,0.00,0.00,1.99,-0.49,0.00,6.95,-1.71,7.47,-0.96,0.00,0.59,0.36,-2.91,1100,1100,1100,1100,1033,1500,1508,10529,760
131547,9,-0.03,-0.64,0.30,0.062,-0.095,0.862,-2.17,1.06,0.00,0.00,2.17,-1.06,0.00,7.58,-3.72,7.61,-3.08,0.00,0.42,0.02,-3.68,1100,1100,1100,1100,1033,1500,1508,10529,760
131559,9,-0.25,0.34,-0.97,-0.032,-0.053,0.903,-2.23,0.58,0.00,0.00,2.23,-0.58,0.00,7.80,-2.02,8.05,-2.36,0.00,0.45,-0.52,12.50,1100,1100,1100,1100,1033,1500,1508,10521,760
131571,9,0.02,-0.90,0.35,0.008,-0.090,0.917,-2.65,0.54,0.00,0.00,2.65,-0.54,0.00,9.29,-1.89,9.27,-0.98,0.00,0.40,0.23,-6.19,1100,1100,1100,1100,1033,1500,1508,10525,760
131583,9,0.04,0.04,-0.51,0.003,-0.028,0.859,-2.27,0.45,0.00,0.00,2.27,-0.45,0.00,7.93,-1.58,7.89,-1.62,0.00,0.31,-0.19,5.26,1100,1100,1100,1100,1033,1501,1507,10513,760
131595,9,0.21,-1.13,0.50,-0.012,-0.065,0.899,-2.27,0.52,0.00,0.00,2.27,-0.52,0.00,7.93,-1.83,7.71,-0.71,0.00,0.27,0.36,-5.59,1100,1100,1100,1100,1033,1501,1507,10521,760
131607,9,0.05,-0.20,-0.24,0.044,-0.087,0.881,-2.40,0.51,0.00,0.00,2.40,-0.51,0.00,8.40,-1.80,8.35,-1.61,0.00,0.35,0.02,2.23,1100,1100,1100,1100,1033,1500,1508,10521,760
131619,9,0.25,0.21,-0.27,-0.019,-0.082,0.864,-2.52,0.32,0.00,0.00,2.52,-0.32,0.00,8.81,-1.12,8.55,-1.32,0.00,0.28,-0.24,3.89,1100,1100,1100,1100,1033,1500,1508,10513,760
131631,9,0.83,0.05,0.56,0.015,-0.035,0.931,-2.21,0.31,0.00,0.00,2.21,-0.31,0.00,7.74,-1.09,6.91,-1.14,0.00,-0.04,-0.02,-7.86,1100,1100,1100,1100,1033,1500,1508,10513,760
131643,9,0.20,0.23,-0.71,0.017,-0.060,0.848,-2.32,0.22,0.00,0.00,2.32,-0.22,0.00,8.11,-0.78,7.92,-1.00,0.00,0.33,-0.09,8.44,1100,1100,1100,1100,1033,1500,1508,10517,760
131655,9,-0.22,-1.83,0.59,0.043,-0.014,0.885,-2.02,0.87,0.00,0.00,2.02,-0.87,0.00,7.08,-3.03,7.30,-1.20,0.00,0.41,0.57,-8.11,1100,1100,1100,1100,1033,1500,1508,10517,760
131667,9,-0.41,0.03,-0.19,0.034,-0.039,0.878,-2.19,0.76,0.00,0.00,2.19,-0.76,0.00,7.66,-2.67,8.07,-2.71,0.00,0.57,-0.24,1.55,1100,1100,1100,1100,1033,1500,1508,10521,760
131679,9,0.45,0.14,0.18,0.020,-0.108,0.839,-2.06,0.81,0.00,0.00,2.06,-0.81,0.00,7.22,-2.82,6.77,-2.96,0.00,0.12,-0.30,-1.25,1100,1100,1100,1100,1033,1500,1508,10521,760
131691,9,-0.65,-0.92,-0.10,0.011,-0.019,0.903,-2.18,0.82,0.00,0.00,2.18,-0.82,0.00,7.62,-2.89,8.27,-1.96,0.00,0.68,0.15,0.15,1100,1100,1100,1100,1033,1500,1508,10517,760
131703,9,1.13,1.70,-0.53,-0.041,-0.095,0.899,-2.17,0.18,0.00,0.00,2.17,-0.18,0.00,7.58,-0.64,6.45,-2.34,0.00,-0.20,-0.91,6.47,1100,1100,1100,1100,1033,1500,1508,10513,760
131715,9,-0.06,0.02,0.56,-0.001,-0.036,0.886,-1.97,-0.01,0.00,0.00,1.97,0.01,0.00,6.90,0.05,6.96,0.03,0.00,0.35,0.06,-7.83,1100,1100,1100,1100,1033,1500,1508,10521,760
131727,9,0.17,-0.50,-0.45,0.037,-0.082,0.913,-2.41,0.04,0.00,0.00,2.41,-0.04,0.00,8.45,-0.14,8.28,0.36,0.00,0.33,0.42,5.66,1100,1100,1100,1100,1033,1500,1508,10529,760
131739,9,0.73,0.50,0.06,-0.020,-0.016,0.832,-1.81,0.07,0.00,0.00,1.81,-0.07,0.00,6.32,-0.24,5.59,-0.74,0.00,-0.09,-0.39,-1.02,1100,1100,1100,1100,1033,1500,1508,10529,760
131751,9,-0.02,-1.70,-0.51,0.018,-0.036,0.935,-2.22,0.30,0.00,0.00,2.22,-0.30,0.00,7.77,-1.07,7.79,0.64,0.00,0.38,0.71,5.24,1100,1100,1100,1100,1033,1500,1508,10529,760
131763,9,0.01,0.94,0.15,0.023,-0.088,0.858,-2.16,-0.03,0.00,0.00,2.16,0.03,0.00,7.57,0.10,7.56,-0.85,0.00,0.35,-0.51,-3.70,1100,1100,1100,1100,1033,1500,1508,10521,760
131775,9,-1.07,-1.54,0.26,0.055,0.015,0.852,-1.93,0.37,0.00,0.00,1.93,-0.37,0.00,6.77,-1.28,7.84,0.26,0.00,0.85,0.66,-3.65,1100,1100,1100,1100,1033,1500,1508,10521,760
131787,9,0.43,0.10,0.34,0.050,-0.096,0.859,-2.13,0.66,0.00,0.00,2.13,-0.66,0.00,7.47,-2.32,7.04,-2.42,0.00,0.16,-0.20,-2.78,1100,1100,1100,1100,1033,1501,1507,10525,760
131799,9,0.13,0.48,-0.72,-0.038,-0.076,0.872,-1.81,0.66,0.00,0.00,1.81,-0.66,0.00,6.35,-2.31,6.22,-2.80,0.00,0.24,-0.68,9.09,1100,1100,1100,1100,1033,1501,1507,10529,760
131811,9,0.10,-0.68,-0.04,0.019,-0.091,0.928,-2.36,0.51,0.00,0.00,2.36,-0.51,0.00,8.26,-1.80,8.16,-1.12,0.00,0.39,0.14,-0.25,1100,1100,1100,1100,1033,1500,1508,10525,760
131823,9,0.19,0.07,-0.09,0.012,-0.069,0.834,-2.22,0.58,0.00,0.00,2.22,-0.58,0.00,7.77,-2.01,7.58,-2.09,0.00,0.25,-0.36,-0.72,1100,1100,1100,1100,1033,1500,1508,10517,760
131835,9,-0.26,-1.14,0.17,0.039,0.011,0.908,-2.12,0.91,0.00,0.00,2.12,-0.91,0.00,7.40,-3.19,7.66,-2.05,0.00,0.49,0.14,-1.40,1100,1100,1100,1100,1033,1500,1508,10521,760
131847,9,-0.03,1.55,0.32,-0.002,-0.097,0.898,-2.23,0.58,0.00,0.00,2.23,-0.58,0.00,7.81,-2.02,7.84,-3.57,0.00,0.36,-0.87,-4.83,1100,1100,1100,1100,1033,1500,1508,10521,760
131859,9,-0.15,-0.68,-0.41,-0.029,-0.058,0.889,-2.22,0.42,0.00,0.00,2.22,-0.42,0.00,7.75,-1.47,7.91,-0.78,0.00,0.40,0.07,5.94,1100,1100,1100,1100,1033,1500,1508,10529,760
131871,9,0.40,0.36,0.61,-0.063,-0.075,0.956,-2.50,-0.32,0.00,0.00,2.50,0.32,0.00,8.76,1.14,8.36,0.77,0.00,0.21,-0.07,-8.16,1100,1100,1100,1100,1033,1500,1508,10529,760
131884,9,0.64,0.02,-0.79,-0.009,-0.013,0.868,-1.97,-0.70,0.00,0.00,1.97,0.70,0.00,6.88,2.46,6.24,2.44,0.00,-0.01,0.29,9.17,1100,1100,1100,1100,1033,1500,1508,10525,760
131895,9,-0.10,-0.85,0.43,0.005,-0.057,0.895,-2.16,-0.64,0.00,0.00,2.16,0.64,0.00,7.54,2.24,7.64,3.10,0.00,0.41,0.68,-5.50,1100,1100,1100,1100,1033,1500,1508,10525,760
131907,9,0.71,0.71,-0.32,0.014,-0.083,0.896,-2.12,-0.82,0.00,0.00,2.12,0.82,0.00,7.42,2.88,6.71,2.17,0.00,-0.02,0.02,2.89,1100,1100,1100,1100,1033,1500,1508,10521,760
131919,9,0.04,1.07,0.18,-0.029,-0.032,0.880,-1.94,-1.29,0.00,0.00,1.94,1.29,0.00,6.81,4.51,6.77,3.44,0.00,0.26,-0.12,-1.40,1100,1100,1100,1100,1033,1500,1508,10521,760
131931,9,0.52,-1.49,0.29,0.059,-0.041,0.898,-1.87,-0.50,0.00,0.00,1.87,0.50,0.00,6.53,1.76,6.01,3.25,0.00,0.04,0.89,-4.06,1100,1100,1100,1100,1033,1500,1508,10513,760
131943,9,0.06,-0.14,-0.62,0.005,-0.072,0.866,-2.38,-0.33,0.00,0.00,2.38,0.33,0.00,8.33,1.14,8.27,1.28,0.00,0.31,-0.03,8.08,1100,1100,1100,1100,1033,1500,1508,10513,760
131955,9,-0.31,-0.09,0.25,-0.066,-0.018,0.934,-2.18,-0.71,0.00,0.00,2.18,0.71,0.00,7.61,2.47,7.92,2.56,0.00,0.44,0.03,-3.27,1100,1100,1100,1100,1033,1500,1508,10504,760
131967,9,0.82,0.71,-0.40,0.019,-0.046,0.896,-2.27,-1.01,0.00,0.00,2.27,1.01,0.00,7.93,3.52,7.12,2.81,0.00,-0.04,-0.04,4.50,1100,1100,1100,1100,1033,1500,1508,10513,760
131979,9,-0.33,-0.20,0.21,0.013,-0.107,0.868,-2.24,-0.26,0.00,0.00,2.24,0.26,0.00,7.83,0.90,8.16,1.10,0.00,0.52,0.09,-2.97,1100,1100,1100,1100,1033,1500,1508,10504,760
131991,9,-0.34,-1.80,0.07,0.062,-0.021,0.880,-2.26,0.32,0.00,0.00,2.26,-0.32,0.00,7.93,-1.12,8.26,0.68,0.00,0.52,0.70,-1.88,1100,1100,1100,1100,1033,1500,1508,10513,760
132003,9,0.69,-0.16,0.07,-0.008,-0.077,0.879,-2.32,0.36,0.00,0.00,2.32,-0.36,0.00,8.13,-1.26,7.44,-1.10,0.00,-0.06,-0.12,0.63,1100,1100,1100,1100,1033,1500,1508,10513,760
132015,9,-0.14,-0.34,0.02,0.010,0.013,0.886,-1.91,0.26,0.00,0.00,1.91,-0.26,0.00,6.67,-0.90,6.81,-0.56,0.00,0.34,0.04,0.43,1100,1100,1100,1100,1033,1500,1508,10525,760
132027,9,0.21,1.64,-0.44,-0.015,-0.074,0.917,-2.36,-0.19,0.00,0.00,2.36,0.19,0.00,8.27,0.68,8.07,-0.96,0.00,0.27,-0.62,5.50,1100,1100,1100,1100,1033,1500,1508,10513,760
132039,9,-0.07,1.22,0.09,-0.013,-0.031,0.869,-1.69,-0.28,0.00,0.00,1.69,0.28,0.00,5.91,0.98,5.98,-0.23,0.00,0.31,-0.46,-2.27,1100,1100,1100,1100,1033,1500,1508,10538,760
132051,9,0.00,-0.35,0.02,0.073,-0.032,0.895,-1.82,0.20,0.00,0.00,1.82,-0.20,0.00,6.37,-0.69,6.37,-0.34,0.00,0.41,0.38,-1.62,1100,1100,1100,1100,1033,1500,1508,10534,760
132063,9,-0.01,0.67,0.17,-0.016,-0.081,0.882,-1.86,0.21,0.00,0.00,1.86,-0.21,0.00,6.51,-0.75,6.51,-1.42,0.00,0.37,-0.40,-2.82,1100,1100,1100,1100,1033,1500,1508,10529,760
132075,9,-0.39,-1.30,0.14,-0.010,0.001,0.901,-1.99,0.16,0.00,0.00,1.99,-0.16,0.00,6.95,-0.56,7.34,0.74,0.00,0.49,0.53,-1.61,1100,1100,1100,1100,1033,1500,1508,10521,760
132087,9,0.52,0.74,0.20,0.013,-0.094,0.892,-2.06,-0.02,0.00,0.00,2.06,0.02,0.00,7.22,0.06,6.69,-0.68,0.00,0.10,-0.29,-1.89,1100,1100,1100,1100,1033,1500,1508,10517,760
132099,9,0.08,-1.56,-0.12,0.040,-0.053,0.839,-1.83,0.48,0.00,0.00,1.83,-0.48,0.00,6.42,-1.67,6.34,-0.11,0.00,0.25,0.59,2.34,1100,1100,1100,1100,1033,1500,1508,10509,760
132111,9,0.34,-0.90,0.41,0.017,-0.078,0.917,-2.23,0.59,0.00,0.00,2.23,-0.59,0.00,7.79,-2.07,7.45,-1.17,0.00,0.20,0.16,-4.84,1100,1100,1100,1100,1033,1500,1508,10525,760
132123,9,0.51,0.98,-0.20,-0.046,-0.028,0.855,-1.93,-0.19,0.00,0.00,1.93,0.19,0.00,6.75,0.68,6.24,-0.31,0.00,0.04,-0.54,2.23,1100,1100,1100,1100,1033,1500,1508,10521,760
132135,9,-0.09,-0.48,0.18,0.039,-0.028,0.907,-2.11,0.02,0.00,0.00,2.11,-0.02,0.00,7.39,-0.08,7.48,0.40,0.00,0.38,0.33,-1.07,1100,1100,1100,1100,1033,1500,1508,10529,760
132147,9,0.28,0.41,-0.13,0.030,-0.079,0.868,-2.28,0.22,0.00,0.00,2.28,-0.22,0.00,7.99,-0.79,7.71,-1.20,0.00,0.21,-0.18,0.94,1100,1100,1100,1100,1033,1500,1508,10529,760
132159,9,-0.21,0.80,-0.25,-0.026,-0.032,0.911,-2.03,-0.26,0.00,0.00,2.03,0.26,0.00,7.10,0.90,7.32,0.10,0.00,0.43,-0.31,3.98,1100,1100,1100,1100,1033,1500,1508,10534,760
132171,9,0.30,0.20,0.60,0.005,-0.045,0.899,-2.07,-0.39,0.00,0.00,2.07,0.39,0.00,7.24,1.37,6.94,1.18,0.00,0.19,0.18,-7.79,1100,1100,1100,1100,1035,1500,1508,10529,760
132183,9,0.47,-0.11,-0.94,0.003,-0.043,0.880,-2.01,-0.24,0.00,0.00,2.01,0.24,0.00,7.03,0.83,6.55,0.94,0.00,0.08,0.11,11.22,1100,1100,1100,1100,1036,1500,1508,10534,760
132195,9,-0.29,-1.66,0.63,-0.029,-0.043,0.907,-2.04,-0.29,0.00,0.00,2.04,0.29,0.00,7.16,1.01,7.44,2.67,0.00,0.45,0.72,-8.79,1100,1100,1100,1100,1036,1500,1508,10529,760
132207,9,-0.03,0.09,-0.36,0.043,-0.074,0.874,-2.21,-0.22,0.00,0.00,2.21,0.22,0.00,7.73,0.77,7.76,0.68,0.00,0.39,-0.05,3.77,1100,1100,1100,1100,1042,1500,1508,10529,760
132219,9,0.14,0.82,0.36,-0.010,-0.086,0.864,-2.22,-0.43,0.00,0.00,2.22,0.43,0.00,7.77,1.50,7.63,0.68,0.00,0.25,-0.35,-3.56,1100,1100,1100,1100,1042,1500,1508,10529,760
132231,9,0.15,-0.66,-0.25,0.039,-0.039,0.903,-2.17,-0.04,0.00,0.00,2.17,0.04,0.00,7.61,0.14,7.46,0.79,0.00,0.30,0.40,1.72,1100,1100,1100,1100,1042,1500,1508,10529,760
132243,9,0.65,1.09,-0.26,-0.026,-0.037,0.895,-2.08,-0.43,0.00,0.00,2.08,0.43,0.00,7.29,1.52,6.65,0.43,0.00,0.01,-0.49,2.75,1100,1100,1100,1100,1046,1500,1508,10525,760
132255,9,-0.41,-2.21,0.66,0.055,-0.032,0.860,-2.06,0.45,0.00,0.00,2.06,-0.45,0.00,7.22,-1.57,7.64,0.64,0.00,0.54,0.86,-8.11,1100,1100,1100,1100,1046,1500,1508,10517,760
132267,9,0.02,-0.39,-0.51,0.059,-0.086,0.862,-2.48,0.30,0.00,0.00,2.48,-0.30,0.00,8.70,-1.07,8.68,-0.68,0.00,0.39,-0.01,7.25,1100,1100,1100,1100,1047,1500,1508,10521,760
132279,9,-0.40,-0.13,-0.18,-0.041,-0.092,0.878,-2.42,0.30,0.00,0.00,2.42,-0.30,0.00,8.46,-1.04,8.86,-0.92,0.00,0.53,-0.39,1.46,1100,1100,1100,1100,1047,1500,1508,10513,760
132291,9,0.61,0.09,-0.10,0.037,-0.061,0.920,-2.55,0.10,0.00,0.00,2.55,-0.10,0.00,8.94,-0.35,8.33,-0.43,0.00,0.10,-0.12,-0.29,1100,1100,1100,1100,1048,1500,1508,10504,760
132303,9,0.21,0.74,-0.01,-0.072,-0.074,0.879,-2.39,-0.01,0.00,0.00,2.39,0.01,0.00,8.35,0.05,8.14,-0.69,0.00,0.25,-0.50,-0.68,1100,1100,1100,1100,1053,1500,1509,10509,760
132315,9,0.49,-1.10,-0.20,-0.031,-0.013,0.960,-2.21,-0.36,0.00,0.00,2.21,0.36,0.00,7.72,1.25,7.24,2.35,0.00,0.11,0.62,1.93,1100,1100,1100,1100,1053,1500,1509,10517,760
132327,9,0.49,1.94,0.03,-0.053,-0.118,0.875,-2.42,-1.10,0.00,0.00,2.42,1.10,0.00,8.46,3.86,7.97,1.92,0.00,0.14,-0.49,-1.08,1100,1100,1100,1100,1053,1500,1509,10525,760
132339,9,-0.26,-0.15,-0.02,0.041,-0.030,0.884,-2.06,-0.57,0.00,0.00,2.06,0.57,0.00,7.21,2.01,7.48,2.16,0.00,0.44,0.41,0.03,1100,1100,1100,1100,1053,1500,1509,10517,760
132351,9,0.75,-1.40,0.28,0.032,-0.057,0.898,-2.31,-0.31,0.00,0.00,2.31,0.31,0.00,8.10,1.07,7.35,2.47,0.00,0.08,0.87,-4.07,1100,1100,1100,1100,1056,1500,1508,10517,760
132363,9,0.42,-0.25,0.17,-0.031,-0.062,0.869,-2.11,-0.24,0.00,0.00,2.11,0.24,0.00,7.39,0.84,6.97,1.09,0.00,0.14,0.02,-2.26,1100,1100,1100,1100,1057,1500,1508,10517,760
132375,9,0.00,-1.43,0.06,-0.004,0.010,0.923,-1.84,-0.66,0.00,0.00,1.84,0.66,0.00,6.45,2.30,6.45,3.73,0.00,0.35,0.79,1.14,1100,1100,1100,1100,1057,1500,1508,10521,760
132387,9,0.44,0.25,-0.66,0.028,-0.082,0.849,-1.98,-0.40,0.00,0.00,1.98,0.40,0.00,6.94,1.38,6.49,1.14,0.00,0.18,-0.09,7.39,1100,1100,1100,1100,1070,1500,1508,10521,760
132399,9,0.13,-0.59,-0.69,0.014,-0.085,0.905,-2.14,-0.09,0.00,0.00,2.14,0.09,0.00,7.48,0.32,7.35,0.91,0.00,0.28,0.13,6.98,1100,1100,1100,1100,1070,1500,1508,10521,760
132411,9,0.01,-0.56,0.79,0.015,-0.069,0.893,-2.28,0.25,0.00,0.00,2.28,-0.25,0.00,7.99,-0.88,7.98,-0.32,0.00,0.38,0.03,-11.19,1100,1100,1100,1100,1071,1500,1508,10525,760
132423,9,0.75,-0.21,-0.32,0.041,-0.029,0.846,-2.11,0.45,0.00,0.00,2.11,-0.45,0.00,7.37,-1.59,6.62,-1.38,0.00,-0.05,-0.15,4.97,1100,1100,1100,1100,1073,1500,1508,10521,760
132435,9,-0.28,-0.91,0.18,-0.025,-0.059,0.912,-2.22,0.34,0.00,0.00,2.22,-0.34,0.00,7.78,-1.21,8.06,-0.29,0.00,0.47,0.21,-1.45,1100,1100,1100,1100,1073,1500,1508,10529,760
132447,9,0.04,1.32,-0.31,-0.001,-0.065,0.895,-2.24,-0.22,0.00,0.00,2.24,0.22,0.00,7.85,0.77,7.82,-0.54,0.00,0.35,-0.55,2.50,1100,1100,1100,1100,1073,1500,1508,10525,760
132459,9,-0.29,1.32,-0.24,-0.028,-0.060,0.893,-2.17,-0.38,0.00,0.00,2.17,0.38,0.00,7.61,1.35,7.90,0.03,0.00,0.46,-0.50,3.03,1100,1100,1100,1100,1073,1500,1508,10517,760
132471,9,-0.34,-0.83,0.29,0.029,-0.048,0.910,-2.16,-0.00,0.00,0.00,2.16,0.00,0.00,7.57,0.01,7.91,0.84,0.00,0.48,0.46,-4.69,1100,1100,1100,1100,1074,1500,1508,10521,760
132483,9,0.24,0.64,-0.49,-0.036,-0.083,0.889,-2.33,-0.51,0.00,0.00,2.33,0.51,0.00,8.16,1.77,7.92,1.13,0.00,0.23,-0.29,5.44,1100,1100,1100,1100,1077,1500,1508,10525,760
132495,9,-0.01,-0.56,0.43,-0.012,-0.024,0.912,-2.14,-0.33,0.00,0.00,2.14,0.33,0.00,7.49,1.17,7.49,1.74,0.00,0.33,0.36,-5.71,1100,1100,1100,1100,1077,1500,1508,10521,760
132507,9,0.09,0.47,-0.43,0.048,-0.090,0.872,-2.47,-0.23,0.00,0.00,2.47,0.23,0.00,8.66,0.81,8.57,0.34,0.00,0.36,0.01,4.85,1100,1100,1100,1100,1077,1500,1508,10521,760
132519,9,-0.21,0.66,0.07,-0.034,-0.066,0.867,-2.13,-0.19,0.00,0.00,2.13,0.19,0.00,7.44,0.66,7.65,0.01,0.00,0.41,-0.31,-0.64,1100,1100,1100,1100,1077,1500,1508,10529,760
132531,9,0.22,0.03,0.08,0.016,-0.050,0.909,-2.25,-0.14,0.00,0.00,2.25,0.14,0.00,7.89,0.47,7.67,0.45,0.00,0.27,0.14,-1.93,1100,1100,1100,1100,1077,1500,1508,10529,760
132543,9,0.66,0.87,0.06,-0.020,-0.066,0.883,-2.09,-0.22,0.00,0.00,2.09,0.22,0.00,7.33,0.77,6.67,-0.10,0.00,-0.01,-0.33,-0.10,1100,1100,1100,1100,1077,1500,1508,10521,760
132555,9,-0.06,-1.65,0.26,0.028,0.005,0.900,-2.06,0.26,0.00,0.00,2.06,-0.26,0.00,7.21,-0.90,7.27,0.75,0.00,0.35,0.80,-2.81,1100,1100,1100,1100,1077,1500,1508,10529,760
132567,9,0.11,0.39,-0.30,0.045,-0.100,0.879,-2.32,0.24,0.00,0.00,2.32,-0.24,0.00,8.13,-0.85,8.02,-1.24,0.00,0.31,-0.13,3.93,1100,1100,1100,1100,1077,1500,1508,10525,760
132579,9,-0.43,-0.70,0.10,0.022,-0.039,0.826,-1.92,0.60,0.00,0.00,1.92,-0.60,0.00,6.71,-2.10,7.14,-1.40,0.00,0.53,0.13,-1.76,1100,1100,1100,1100,1077,1500,1508,10513,760
132591,9,0.31,0.39,0.11,0.034,-0.055,0.925,-2.24,0.59,0.00,0.00,2.24,-0.59,0.00,7.84,-2.06,7.52,-2.45,0.00,0.24,-0.25,-2.09,1100,1100,1100,1100,1078,1500,1508,10513,760
132603,9,0.52,-0.14,-0.26,-0.041,-0.075,0.864,-2.13,0.36,0.00,0.00,2.13,-0.36,0.00,7.44,-1.25,6.92,-1.10,0.00,0.07,-0.11,2.36,1100,1100,1100,1100,1083,1500,1508,10513,760
132615,9,-0.17,-0.26,-0.05,-0.000,-0.013,0.934,-2.06,0.02,0.00,0.00,2.06,-0.02,0.00,7.19,-0.09,7.36,0.18,0.00,0.41,0.17,0.50,1100,1100,1100,1100,1083,1500,1508,10509,760
132627,9,0.66,-0.26,-0.22,0.014,-0.088,0.850,-2.27,0.00,0.00,0.00,2.27,-0.00,0.00,7.93,-0.01,7.27,0.25,0.00,0.08,0.16,2.35,1100,1100,1100,1100,1083,1500,1508,10513,760
132639,9,0.18,-0.23,-0.51,0.027,-0.056,0.877,-2.12,0.36,0.00,0.00,2.12,-0.36,0.00,7.42,-1.27,7.24,-1.04,0.00,0.25,-0.06,5.89,1100,1100,1100,1100,1083,1500,1508,10513,760
132651,9,-0.01,0.81,0.59,0.012,-0.072,0.900,-2.38,0.08,0.00,0.00,2.38,-0.08,0.00,8.33,-0.29,8.33,-1.10,0.00,0.39,-0.38,-8.72,1100,1100,1100,1100,1095,1500,1508,10529,760
132663,9,1.12,-0.33,-0.46,0.027,-0.033,0.853,-2.08,0.43,0.00,0.00,2.08,-0.43,0.00,7.27,-1.52,6.15,-1.19,0.00,-0.18,0.11,5.29,1100,1100,1100,1100,1097,1500,1508,10525,760
132675,9,-0.28,-0.99,0.26,0.011,-0.010,0.913,-2.24,0.51,0.00,0.00,2.24,-0.51,0.00,7.85,-1.77,8.13,-0.78,0.00,0.50,0.34,-3.36,1100,1100,1100,1100,1097,1500,1508,10521,760
132687,9,-0.28,-0.14,-0.59,0.028,-0.070,0.851,-2.28,0.48,0.00,0.00,2.28,-0.48,0.00,7.98,-1.67,8.26,-1.53,0.00,0.51,-0.08,5.89,1100,1100,1100,1100,1101,1500,1508,10517,760
132699,9,-0.83,0.89,-0.24,0.002,-0.050,0.873,-2.21,0.04,0.00,0.00,2.21,-0.04,0.00,7.75,-0.13,8.58,-1.01,0.00,0.70,-0.45,1.51,1100,1100,1100,1100,1101,1500,1508,10521,760
132711,9,-0.25,0.46,0.03,0.020,-0.059,0.906,-2.41,0.32,0.00,0.00,2.41,-0.32,0.00,8.43,-1.13,8.68,-1.59,0.00,0.54,-0.19,-3.28,1100,1100,1100,1100,1101,1500,1508,10513,760
132723,9,0.72,1.72,-0.14,0.008,-0.055,0.888,-2.12,0.18,0.00,0.00,2.12,-0.18,0.00,7.40,-0.63,6.69,-2.35,0.00,-0.04,-0.73,1.21,1100,1100,1100,1100,1111,1500,1508,10509,760
132735,9,-0.04,-1.69,0.41,-0.027,-0.044,0.869,-1.94,0.50,0.00,0.00,1.94,-0.50,0.00,6.77,-1.73,6.81,-0.04,0.00,0.34,0.73,-5.12,1100,1100,1100,1100,1111,1500,1508,10513,760
132747,9,0.51,0.23,-0.56,0.063,-0.086,0.900,-2.20,0.52,0.00,0.00,2.20,-0.52,0.00,7.68,-1.83,7.17,-2.05,0.00,0.15,-0.21,6.80,1100,1100,1100,1100,1113,1500,1508,10513,760
132759,9,-0.54,0.49,-0.02,-0.035,-0.060,0.857,-2.20,0.43,0.00,0.00,2.20,-0.43,0.00,7.71,-1.49,8.26,-1.98,0.00,0.61,-0.46,-0.77,1100,1100,1100,1100,1113,1500,1508,10513,760
132771,9,0.30,0.05,0.15,0.040,-0.043,0.933,-2.19,0.32,0.00,0.00,2.19,-0.32,0.00,7.65,-1.14,7.35,-1.19,0.00,0.22,0.06,-3.24,1100,1100,1100,1100,1124,1500,1508,10509,760
132783,9,0.89,0.83,-0.11,-0.065,-0.064,0.882,-2.05,-0.10,0.00,0.00,2.05,0.10,0.00,7.19,0.34,6.29,-0.49,0.00,-0.12,-0.39,1.55,1100,1100,1100,1100,1124,1500,1508,10513,760
132795,9,-0.37,-2.15,-0.09,0.014,0.009,0.891,-1.95,0.07,0.00,0.00,1.95,-0.07,0.00,6.81,-0.25,7.17,1.89,0.00,0.51,1.01,0.54,1100,1100,1100,1100,1124,1500,1508,10513,760
132807,9,-0.58,1.97,-0.25,-0.017,-0.114,0.900,-2.37,-0.50,0.00,0.00,2.37,0.50,0.00,8.29,1.74,8.87,-0.23,0.00,0.62,-0.72,1.38,1100,1100,1100,1100,1131,1500,1508,10513,760
132819,9,-0.49,-0.34,0.21,0.015,-0.105,0.868,-2.28,0.05,0.00,0.00,2.28,-0.05,0.00,7.98,-0.17,8.47,0.16,0.00,0.60,0.14,-3.31,1100,1100,1100,1100,1131,1500,1508,10504,760
132831,9,0.40,-0.08,-0.08,0.016,-0.077,0.911,-2.70,0.06,0.00,0.00,2.70,-0.06,0.00,9.44,-0.21,9.04,-0.13,0.00,0.23,0.11,-0.04,1100,1100,1100,1100,1131,1500,1508,10509,760
132843,9,0.72,1.13,-0.57,-0.094,-0.037,0.898,-2.16,-0.39,0.00,0.00,2.16,0.39,0.00,7.56,1.38,6.84,0.25,0.00,-0.05,-0.54,6.22,1100,1100,1100,1100,1148,1500,1508,10521,760
132855,9,0.28,-0.72,0.20,0.009,-0.020,0.913,-2.11,-0.60,0.00,0.00,2.11,0.60,0.00,7.40,2.09,7.12,2.81,0.00,0.21,0.69,-3.77,1100,1100,1100,1100,1148,1500,1508,10517,760
132867,9,0.19,0.91,-0.36,0.022,-0.114,0.866,-2.35,-0.51,0.00,0.00,2.35,0.51,0.00,8.23,1.80,8.04,0.88,0.00,0.30,-0.12,3.38,1100,1100,1100,1100,1150,1500,1508,10517,760
132879,9,-0.18,-0.70,-0.06,0.035,-0.024,0.849,-2.15,-0.20,0.00,0.00,2.15,0.20,0.00,7.51,0.71,7.69,1.41,0.00,0.41,0.42,-0.57,1100,1100,1100,1100,1150,1500,1508,10521,760
132891,9,0.08,0.78,0.25,0.018,-0.068,0.917,-2.40,-0.23,0.00,0.00,2.40,0.23,0.00,8.40,0.80,8.32,0.02,0.00,0.34,-0.26,-4.61,1100,1100,1100,1100,1152,1500,1508,10513,760
132903,25,0.55,0.07,-0.45,-0.007,-0.043,0.850,-2.16,-0.07,0.00,0.00,2.16,0.07,0.00,7.56,0.26,7.01,0.19,0.00,0.09,-0.05,4.60,1100,1100,1100,1100,1154,1500,1508,10496,760
132915,25,-0.28,-0.66,-0.05,-0.000,-0.010,0.921,-2.19,-0.12,0.00,0.00,2.19,0.12,0.00,7.68,0.43,7.96,1.09,0.00,0.52,0.43,-0.13,1100,1100,1100,1100,1154,1500,1508,10479,760
132927,25,0.04,0.44,0.31,0.012,-0.094,0.868,-2.31,-0.18,0.00,0.00,2.31,0.18,0.00,8.10,0.63,8.05,0.19,0.00,0.34,-0.15,-4.34,1100,1100,1100,1100,1156,1500,1508,10479,760
132939,25,-0.27,1.25,-0.14,-0.005,-0.083,0.871,-2.16,-0.21,0.00,0.00,2.16,0.21,0.00,7.56,0.73,7.84,-0.52,0.00,0.44,-0.46,2.32,1100,1100,1100,1100,1156,1500,1508,10459,760
132951,25,0.52,0.24,0.30,-0.008,-0.049,0.925,-2.20,-0.42,0.00,0.00,2.20,0.42,0.00,7.71,1.48,7.18,1.24,0.00,0.13,0.17,-3.88,1158,1161,1161,1158,1162,1500,1508,10454,761
132963,25,0.80,0.29,-0.19,-0.015,-0.043,0.878,-2.18,-0.54,0.00,0.00,2.18,0.54,0.00,7.62,1.90,6.82,1.62,0.00,-0.06,0.17,1.27,1158,1161,1161,1158,1165,1500,1508,10463,761
132975,25,-1.54,-0.63,0.16,0.015,-0.007,0.886,-1.75,-0.41,0.00,0.00,1.75,0.41,0.00,6.12,1.42,7.66,2.05,0.00,1.00,0.53,-2.14,1158,1161,1161,1158,1165,1500,1508,10467,761
132987,25,0.08,-0.63,0.09,-0.021,-0.060,0.940,-2.04,-0.38,0.00,0.00,2.04,0.38,0.00,7.15,1.34,7.07,1.97,0.00,0.36,0.38,-1.77,1158,1161,1161,1158,1170,1500,1508,10454,761
132999,25,2.43,1.15,-0.96,-0.003,-0.073,0.901,-2.03,-0.65,0.00,0.00,2.03,0.65,0.00,7.10,2.28,4.68,1.13,0.00,-0.91,-0.16,10.96,1158,1161,1161,1158,1170,1500,1508,10442,761
133011,25,-1.14,-0.74,0.02,0.001,0.073,0.863,-1.56,-0.07,0.00,0.00,1.56,0.07,0.00,5.47,0.24,6.62,0.98,0.00,0.75,0.19,-0.68,1158,1161,1161,1158,1173,1500,1508,10442,761
133023,25,0.23,-2.80,0.58,-0.001,-0.058,0.942,-2.21,0.37,0.00,0.00,2.21,-0.37,0.00,7.72,-1.30,7.49,1.51,0.00,0.37,1.07,-6.73,1158,1161,1161,1158,1174,1500,1508,10442,761
133035,25,1.93,2.22,-0.56,-0.013,-0.195,0.947,-2.69,0.31,0.00,0.00,2.69,-0.31,0.00,9.42,-1.07,7.49,-3.30,0.00,-0.59,-1.17,8.48,1158,1161,1161,1158,1174,1500,1508,10446,761
133047,25,-2.02,1.43,0.01,-0.007,0.030,0.815,-1.88,0.05,0.00,0.00,1.88,-0.05,0.00,6.57,-0.19,8.59,-1.62,0.00,1.29,-1.15,-0.33,1173,1177,1179,1171,1176,1500,1508,10454,761
133059,25,-0.01,-6.42,0.16,0.077,0.041,0.882,-1.98,0.81,0.00,0.00,1.98,-0.81,0.00,6.91,-2.85,6.93,3.57,0.00,0.50,2.70,-4.11,1173,1177,1179,1171,1176,1500,1508,10446,761
133071,25,1.46,2.75,-0.69,0.029,-0.172,0.950,-2.63,0.71,0.00,0.00,2.63,-0.71,0.00,9.19,-2.48,7.73,-5.23,0.00,-0.39,-1.52,5.11,1173,1177,1179,1171,1178,1500,1508,10459,761
133083,25,-1.16,4.79,-0.53,0.021,-0.081,0.762,-1.82,0.27,0.00,0.00,1.82,-0.27,0.00,6.36,-0.96,7.52,-5.75,0.00,0.70,-2.45,3.07,1173,1177,1179,1171,1179,1500,1508,10446,761
133095,25,-1.06,-5.77,-0.50,-0.038,0.116,0.834,-1.18,0.67,0.00,0.00,1.18,-0.67,0.00,4.13,-2.33,5.19,3.43,0.00,0.91,2.49,4.83,1173,1177,1179,1171,1179,1500,1508,10442,761
133107,25,2.68,1.61,-0.72,-0.017,-0.099,1.098,-2.15,0.34,0.00,0.00,2.15,-0.34,0.00,7.52,-1.20,4.84,-2.81,0.00,-0.88,-0.69,7.43,1173,1177,1179,1171,1179,1500,1508,10442,761
133119,25,-0.09,11.03,-2.27,-0.118,-0.252,0.992,-2.75,-0.11,0.00,0.00,2.75,0.11,0.00,9.62,0.38,9.71,-10.65,0.00,0.22,-5.34,23.90,1173,1177,1179,1171,1179,1500,1508,10425,761
133131,25,-5.38,-2.13,-2.83,-0.173,-0.042,0.923,-1.95,-1.51,0.00,0.00,1.95,1.51,0.00,6.83,5.29,12.21,7.42,0.00,2.80,1.67,23.18,1173,1177,1179,1171,1179,1500,1510,10425,761
133143,25,-3.48,-3.03,-3.16,0.063,0.057,0.821,-1.14,-0.10,0.00,0.00,1.14,0.10,0.00,3.99,0.35,7.47,3.38,0.00,2.12,2.57,19.76,1158,1199,1203,1158,1180,1500,1508,10425,761
133155,25,5.93,5.88,-3.58,0.097,-0.046,0.944,-1.55,-0.13,0.00,0.00,1.55,0.13,0.00,5.42,0.47,-0.51,-5.41,0.00,-2.48,-2.48,19.80,1158,1199,1203,1158,1180,1500,1508,10429,761
133167,25,-1.63,2.80,-4.19,-0.036,-0.186,0.774,-1.66,-0.95,0.00,0.00,1.66,0.95,0.00,5.82,3.34,7.45,0.54,0.00,0.80,-1.48,26.13,1158,1199,1203,1158,1184,1500,1508,10421,761
133179,25,-7.85,-8.40,-3.60,0.019,-0.029,0.768,-1.13,-1.16,0.00,0.00,1.13,1.16,0.00,3.96,4.07,11.81,12.48,0.00,3.99,4.95,17.52,1158,1199,1203,1158,1184,1500,1508,10404,761
133191,25,-0.09,2.86,-3.96,0.025,0.111,0.983,-1.75,-1.40,0.00,0.00,1.75,1.40,0.00,6.14,4.91,6.23,2.05,0.00,0.30,-0.12,19.25,1158,1199,1203,1158,1185,1500,1508,10404,761
133203,25,3.76,8.95,-3.53,-0.025,-0.034,1.100,-2.78,-2.16,0.00,0.00,2.78,2.16,0.00,9.74,7.55,5.98,-1.40,0.00,-1.66,-3.22,11.45,1158,1199,1203,1158,1188,1500,1508,10392,761
133215,25,3.95,-2.57,-2.72,0.045,-0.258,0.818,-3.52,-1.23,0.00,0.00,3.52,1.23,0.00,12.31,4.31,8.37,6.88,0.00,-1.84,1.85,5.77,1158,1199,1203,1158,1188,1500,1508,10404,761
133227,25,-6.80,-8.20,-1.85,0.074,-0.129,0.716,-2.86,0.65,0.00,0.00,2.86,-0.65,0.00,10.01,-2.27,16.81,5.92,0.00,3.49,4.09,1.44,1158,1199,1203,1158,1188,1503,1505,10392,761
133239,25,-2.49,4.23,-1.17,-0.043,-0.022,1.003,-3.01,0.12,0.00,0.00,3.01,-0.12,0.00,10.55,-0.44,13.04,-4.67,0.00,1.90,-1.91,-1.83,1158,1199,1203,1158,1188,1503,1505,10409,761
133251,25,4.94,1.68,-0.12,-0.049,0.062,1.015,-3.60,-0.18,0.00,0.00,3.60,0.18,0.00,12.61,0.62,7.67,-1.06,0.00,-1.64,-1.10,-11.40,1184,1188,1193,1188,1189,1500,1508,10409,761
133263,25,5.40,-2.19,-0.72,-0.077,-0.123,0.875,-3.96,-1.69,0.00,0.00,3.96,1.69,0.00,13.87,5.93,8.47,8.12,0.00,-2.20,1.65,-0.50,1184,1188,1193,1188,1189,1500,1508,10413,761
133275,25,-5.22,-1.29,-0.70,-0.047,-0.168,0.740,-3.20,-3.15,0.00,0.00,3.20,3.15,0.00,11.19,11.02,16.42,12.31,0.00,2.75,2.06,2.38,1184,1188,1193,1188,1189,1500,1508,10409,761
133287,25,-3.93,5.36,0.14,-0.164,0.032,0.984,-2.58,-4.10,0.00,0.00,2.58,4.10,0.00,9.04,14.35,12.96,8.98,0.00,2.24,-0.99,-5.78,1184,1188,1193,1188,1194,1500,1508,10409,761
133299,25,2.00,2.54,1.80,-0.039,0.125,1.053,-2.91,-3.42,0.00,0.00,2.91,3.42,0.00,10.19,11.96,8.19,9.42,0.00,-0.34,0.02,-22.39,1184,1188,1193,1188,1194,1500,1508,10400,761
133311,25,7.76,0.22,2.23,0.068,-0.115,0.903,-3.54,-1.61,0.00,0.00,3.54,1.61,0.00,12.40,5.62,4.64,5.40,0.00,-3.21,0.50,-19.76,1184,1188,1193,1188,1194,1500,1508,10392,761
133323,17,-0.04,-0.83,2.44,0.096,-0.323,0.741,-3.57,-0.31,0.00,0.00,3.57,0.31,0.00,12.50,1.08,12.54,1.90,0.00,0.20,-0.03,-14.21,1184,1188,1193,1188,1202,1506,1502,10396,761
133335,17,-11.26,-6.19,5.08,0.028,-0.049,0.741,-1.40,1.62,0.00,0.00,1.40,-1.62,0.00,4.92,-5.68,16.18,0.51,0.00,5.51,1.89,-42.60,1184,1188,1193,1188,1202,1506,1502,10409,761
133347,17,-0.42,1.46,4.01,-0.056,0.293,0.924,-0.74,0.99,0.00,0.00,0.74,-0.99,0.00,2.63,-3.49,3.05,-4.95,0.00,0.89,-1.27,-23.37,1226,1181,1174,1225,1202,1500,1508,10409,762
133359,17,11.62,12.50,3.97,-0.096,0.013,1.072,-2.05,-0.56,0.00,0.00,2.05,0.56,0.00,7.22,1.93,-4.40,-10.56,0.00,-5.03,-5.37,-17.68,1226,1181,1174,1225,1202,1500,1508,10413,762
133371,17,7.96,3.01,4.37,0.077,-0.408,0.750,-2.78,-1.15,0.00,0.00,2.78,1.15,0.00,9.80,4.02,1.84,1.01,0.00,-4.00,-0.39,-21.47,1226,1181,1174,1225,1202,1500,1508,10417,762
133383,17,-9.22,-3.72,3.87,0.199,-0.377,0.779,-2.39,-0.89,0.00,0.00,2.39,0.89,0.00,8.46,3.12,17.68,6.84,0.00,4.35,3.04,-17.74,1226,1181,1174,1225,1202,1500,1508,10409,762
133395,17,-7.89,-0.32,2.52,-0.141,0.165,0.940,-0.81,-1.22,0.00,0.00,0.81,1.22,0.00,2.94,4.28,10.82,4.60,0.00,4.21,0.87,-3.99,1226,1181,1174,1225,1202,1500,1508,10417,762
133407,17,3.25,3.78,1.10,-0.297,0.123,0.953,-1.74,-2.42,0.00,0.00,1.74,2.42,0.00,6.20,8.49,2.95,4.71,0.00,-0.73,-0.91,8.34,1226,1181,1174,1225,1207,1500,1508,10400,762
133419,17,9.14,0.90,1.62,-0.123,0.056,0.926,-1.98,-2.51,0.00,0.00,1.98,2.51,0.00,7.06,8.84,-2.08,7.94,0.00,-4.04,0.31,-2.02,1226,1181,1174,1225,1207,1500,1508,10392,762
133431,17,-1.62,3.14,-0.09,0.179,-0.160,0.913,-2.41,-0.91,0.00,0.00,2.41,0.91,0.00,8.59,3.26,10.21,0.12,0.00,0.93,-1.45,13.63,1226,1181,1174,1225,1207,1499,1509,10380,762
133443,17,-1.69,1.35,0.62,0.239,-0.004,0.807,-1.59,-0.20,0.00,0.00,1.59,0.20,0.00,5.73,0.79,7.42,-0.56,0.00,1.20,-0.44,-2.66,1205,1210,1211,1206,1209,1500,1508,10384,762
133455,17,4.31,1.63,-1.09,-0.027,-0.031,0.898,-2.14,-0.45,0.00,0.00,2.14,0.45,0.00,7.69,1.65,3.38,0.02,0.00,-1.46,-0.53,14.47,1205,1210,1211,1206,1209,1500,1508,10384,762
133467,17,0.05,-4.02,-1.44,0.052,-0.216,0.738,-2.98,0.87,0.00,0.00,2.98,-0.87,0.00,10.64,-2.98,10.60,1.04,0.00,0.33,2.49,16.14,1205,1210,1211,1206,1209,1500,1508,10388,762
133479,17,-4.31,2.35,-1.64,-0.125,-0.160,1.016,-3.26,0.42,0.00,0.00,3.26,-0.42,0.00,11.64,-1.40,15.95,-3.75,0.00,2.54,-0.97,16.43,1205,1210,1211,1206,1209,1500,1508,10375,762
133491,17,-5.70,0.16,-0.41,0.217,0.069,0.767,-2.61,1.83,0.00,0.00,2.61,-1.83,0.00,9.40,-6.35,15.09,-6.51,0.00,3.34,-0.29,-3.00,1205,1210,1211,1206,1209,1500,1509,10375,762
133503,17,3.82,-5.17,-0.01,0.155,0.201,0.828,-2.47,2.65,0.00,0.00,2.47,-2.65,0.00,8.97,-9.23,5.15,-4.06,0.00,-1.19,1.20,-8.12,1205,1210,1211,1206,1209,1500,1509,10380,762
133515,17,7.95,-3.78,-0.32,0.146,-0.053,0.869,-3.30,2.85,0.00,0.00,3.30,-2.85,0.00,11.90,-9.95,3.95,-6.17,0.00,-3.28,0.77,-1.84,1205,1210,1211,1206,1209,1500,1509,10384,762
133528,17,4.08,-1.94,-0.48,-0.012,-0.167,0.930,-3.00,2.22,0.00,0.00,3.00,-2.22,0.00,10.86,-7.78,6.79,-5.84,0.00,-1.76,0.29,3.47,1205,1210,1211,1206,1211,1500,1508,10384,762
133539,17,-3.18,4.34,-0.96,-0.025,-0.250,0.871,-2.94,0.92,0.00,0.00,2.94,-0.92,0.00,10.69,-3.23,13.87,-7.57,0.00,1.70,-2.09,9.90,1205,1210,1211,1206,1211,1500,1508,10392,762
133551,17,-8.86,-2.65,1.84,0.001,-0.083,0.788,-1.98,1.21,0.00,0.00,1.98,-1.21,0.00,7.34,-4.26,16.20,-1.62,0.00,4.64,1.23,-23.32,1209,1215,1211,1207,1211,1500,1508,10384,762
133563,17,-3.88,-0.39,0.72,-0.087,0.097,0.968,-2.17,0.59,0.00,0.00,2.17,-0.59,0.00,8.03,-2.11,11.91,-1.72,0.00,2.62,0.46,-7.23,1209,1215,1211,1207,1217,1500,1508,10375,762
133575,17,5.65,-2.85,1.58,0.094,0.071,0.881,-2.21,2.56,0.00,0.00,2.21,-2.56,0.00,8.21,-9.04,2.55,-6.19,0.00,-1.89,1.06,-13.06,1209,1215,1211,1207,1217,1500,1508,10367,762
133587,17,9.00,7.30,0.54,0.118,-0.063,0.889,-3.11,2.17,0.00,0.00,3.11,-2.17,0.00,11.36,-7.68,2.36,-14.98,0.00,-3.90,-4.05,-0.51,1209,1215,1211,1207,1219,1500,1508,10380,762
133599,17,1.83,-4.16,-0.08,0.128,-0.357,0.764,-3.96,2.43,0.00,0.00,3.96,-2.43,0.00,14.36,-8.62,12.53,-4.46,0.00,-0.64,1.24,7.65,1209,1215,1211,1207,1219,1500,1508,10396,762
133611,17,-6.05,0.51,0.87,-0.008,-0.221,0.868,-3.23,0.12,0.00,0.00,3.23,-0.12,0.00,11.85,-0.52,17.90,-1.03,0.00,3.26,0.10,-8.34,1209,1215,1211,1207,1221,1500,1508,10392,762
133623,17,-6.33,-5.75,0.65,-0.244,-0.146,0.933,-3.01,-0.18,0.00,0.00,3.01,0.18,0.00,11.12,0.50,17.45,6.24,0.00,3.72,2.66,-6.49,1209,1215,1211,1207,1221,1500,1508,10380,762
133635,17,-3.14,-1.00,1.40,-0.087,-0.020,0.891,-2.69,-0.16,0.00,0.00,2.69,0.16,0.00,10.00,0.42,13.14,1.42,0.00,2.38,0.55,-12.26,1209,1215,1211,1207,1221,1500,1508,10396,762
133647,17,0.28,3.20,1.63,-0.125,0.095,0.993,-2.83,0.38,0.00,0.00,2.83,-0.38,0.00,10.52,-1.47,10.24,-4.67,0.00,0.70,-1.94,-10.11,1240,1205,1205,1238,1223,1500,1508,10392,762
133659,17,5.57,-2.48,2.87,0.155,0.032,0.778,-2.82,1.50,0.00,0.00,2.82,-1.50,0.00,10.52,-5.39,4.95,-2.92,0.00,-2.07,0.85,-19.75,1240,1205,1205,1238,1223,1500,1508,10380,762
133671,17,1.17,2.32,3.43,0.045,-0.114,0.890,-3.20,0.68,0.00,0.00,3.20,-0.68,0.00,11.90,-2.51,10.73,-4.83,0.00,-0.01,-1.65,-23.77,1240,1205,1205,1238,1227,1500,1508,10363,762
133683,17,-0.50,-3.33,3.60,0.156,-0.069,0.882,-3.04,1.16,0.00,0.00,3.04,-1.16,0.00,11.35,-4.21,11.85,-0.87,0.00,0.92,0.95,-24.24,1240,1205,1205,1238,1228,1500,1508,10359,762
133695,17,-0.77,-2.22,3.46,0.206,-0.070,0.774,-3.07,1.83,0.00,0.00,3.07,-1.83,0.00,11.50,-6.58,12.27,-4.36,0.00,0.90,0.39,-20.80,1240,1205,1205,1238,1228,1500,1508,10367,762
133707,17,2.79,-2.31,1.64,-0.047,-0.051,0.933,-2.82,1.47,0.00,0.00,2.82,-1.47,0.00,10.65,-5.33,7.87,-3.02,0.00,-0.75,0.53,1.87,1240,1205,1205,1238,1230,1500,1508,10371,762
133719,17,1.64,1.48,0.70,-0.089,-0.169,0.880,-2.63,1.22,0.00,0.00,2.63,-1.22,0.00,10.00,-4.45,8.36,-5.93,0.00,-0.39,-0.63,10.27,1240,1205,1205,1238,1230,1500,1508,10363,762
133731,17,-4.38,0.24,0.84,-0.063,-0.194,0.817,-2.07,2.06,0.00,0.00,2.07,-2.06,0.00,8.07,-7.44,12.45,-7.68,0.00,2.34,-0.31,4.76,1240,1205,1205,1238,1230,1500,1508,10359,762
133743,17,-6.99,5.24,0.98,-0.122,0.043,0.947,-1.02,0.93,0.00,0.00,1.02,-0.93,0.00,4.40,-3.49,11.39,-8.73,0.00,3.69,-2.47,-0.41,1227,1228,1229,1234,1230,1500,1508,10355,762
133755,17,-3.64,0.10,1.40,0.184,0.108,0.825,-0.84,0.99,0.00,0.00,0.84,-0.99,0.00,3.80,-3.71,7.44,-3.81,0.00,2.26,0.14,-7.87,1227,1228,1229,1234,1230,1500,1508,10342,762
133767,17,5.77,-3.99,1.04,0.106,0.137,0.778,-1.03,1.50,0.00,0.00,1.03,-1.50,0.00,4.46,-5.49,-1.30,-1.50,0.00,-2.27,1.49,-5.25,1227,1228,1229,1234,1231,1500,1508,10359,762
133779,17,6.64,-4.77,0.45,0.033,0.003,0.919,-1.94,1.45,0.00,0.00,1.94,-1.45,0.00,7.66,-5.34,1.02,-0.57,0.00,-2.57,1.56,-0.77,1227,1228,1229,1234,1231,1500,1508,10367,762
133791,17,7.65,-2.16,0.60,-0.003,-0.124,0.983,-2.62,1.23,0.00,0.00,2.62,-1.23,0.00,10.08,-4.59,2.43,-2.43,0.00,-3.16,0.35,-3.12,1227,1228,1229,1234,1236,1500,1508,10359,762
133803,17,3.13,4.03,0.63,0.045,-0.278,0.893,-3.27,1.43,0.00,0.00,3.27,-1.43,0.00,12.38,-5.28,9.24,-9.31,0.00,-1.17,-2.57,-0.96,1227,1228,1229,1234,1236,1500,1509,10363,762
133815,17,-2.51,0.56,1.86,-0.027,-0.305,0.834,-2.89,0.01,0.00,0.00,2.89,-0.01,0.00,11.05,-0.34,13.56,-0.90,0.00,1.60,-0.16,-14.44,1227,1228,1229,1234,1236,1500,1509,10375,762
133827,17,-7.47,3.12,1.88,-0.098,-0.170,0.886,-2.09,-1.63,0.00,0.00,2.09,1.63,0.00,8.28,5.44,15.75,2.31,0.00,3.90,-0.56,-12.81,1227,1228,1229,1234,1237,1500,1508,10359,762
133839,17,-5.92,-3.78,1.48,-0.132,-0.052,0.875,-1.64,-0.62,0.00,0.00,1.64,0.62,0.00,6.71,1.87,12.62,5.66,0.00,3.25,2.51,-7.50,1227,1228,1229,1234,1237,1500,1508,10359,762
133851,17,-5.51,0.71,0.93,-0.236,-0.009,1.036,-1.57,-0.73,0.00,0.00,1.57,0.73,0.00,6.48,2.28,11.99,1.57,0.00,3.17,0.21,1.30,1251,1221,1223,1251,1237,1500,1508,10363,762
133863,17,-3.04,2.15,1.29,-0.115,0.150,0.906,-1.66,1.77,0.00,0.00,1.66,-1.77,0.00,6.84,-6.49,9.88,-8.64,0.00,2.14,-1.59,-4.26,1251,1221,1223,1251,1239,1500,1508,10367,762
133875,17,0.32,8.06,0.66,0.089,0.197,0.916,-1.83,1.63,0.00,0.00,1.83,-1.63,0.00,7.46,-6.00,7.14,-14.06,0.00,0.52,-4.27,3.33,1251,1221,1223,1251,1239,1500,1508,10375,762
133887,17,6.89,-4.23,0.86,0.198,0.199,0.773,-3.08,4.09,0.00,0.00,3.08,-4.09,0.00,11.85,-14.64,4.97,-10.41,0.00,-2.54,0.51,0.12,1251,1221,1223,1251,1241,1500,1509,10380,762
133899,17,5.79,5.09,2.07,0.074,0.028,0.969,-2.70,1.04,0.00,0.00,2.70,-1.04,0.00,10.56,-3.98,4.77,-9.06,0.00,-2.27,-2.99,-14.92,1251,1221,1223,1251,1241,1500,1509,10375,762
133911,17,3.87,-6.48,1.34,0.323,-0.121,0.697,-3.08,1.72,0.00,0.00,3.08,-1.72,0.00,11.93,-6.36,8.06,0.12,0.00,-1.21,3.06,-5.35,1251,1221,1223,1251,1242,1500,1508,10363,762
133923,17,4.59,-10.08,0.57,0.186,-0.093,0.759,-2.66,2.51,0.00,0.00,2.66,-2.51,0.00,10.48,-9.17,5.89,0.91,0.00,-1.71,4.05,2.07,1251,1221,1223,1251,1244,1500,1508,10359,762
133935,17,3.31,-5.35,-0.06,-0.155,-0.223,0.976,-2.71,1.86,0.00,0.00,2.71,-1.86,0.00,10.65,-6.90,7.34,-1.56,0.00,-1.21,1.65,5.58,1251,1221,1223,1251,1244,1500,1508,10359,762
133947,17,-0.05,3.08,1.44,-0.119,-0.272,1.008,-2.38,1.24,0.00,0.00,2.38,-1.24,0.00,9.53,-4.76,9.58,-7.84,0.00,0.35,-1.47,-14.76,1236,1247,1246,1245,1244,1500,1509,10359,762
133959,17,-4.81,-0.52,0.78,-0.067,-0.284,0.851,-2.28,3.49,0.00,0.00,2.28,-3.49,0.00,9.19,-12.65,14.00,-12.13,0.00,2.71,-0.71,-4.20,1236,1247,1246,1245,1244,1500,1509,10350,762
133971,17,-4.26,6.03,1.40,-0.038,-0.098,0.880,-1.60,2.68,0.00,0.00,1.60,-2.68,0.00,6.82,-9.85,11.07,-15.88,0.00,2.39,-3.42,-10.73,1236,1247,1246,1245,1251,1500,1508,10338,762
133983,17,-5.03,2.31,1.00,0.081,-0.119,0.848,-1.42,2.62,0.00,0.00,1.42,-2.62,0.00,6.20,-9.66,11.24,-11.98,0.00,2.97,-1.83,-2.95,1236,1247,1246,1245,1254,1500,1508,10338,762
133995,17,-4.68,4.01,0.30,0.068,-0.030,0.805,-1.85,1.12,0.00,0.00,1.85,-1.12,0.00,7.75,-4.41,12.43,-8.42,0.00,2.96,-1.99,4.15,1236,1247,1246,1245,1254,1500,1508,10325,762
134007,17,-2.85,-4.23,1.47,0.118,0.141,0.739,-1.26,1.52,0.00,0.00,1.26,-1.52,0.00,5.71,-5.84,8.56,-1.62,0.00,1.94,2.26,-10.09,1236,1247,1246,1245,1255,1500,1508,10317,762
134019,17,0.32,-5.97,1.13,-0.226,0.120,0.962,-1.73,1.25,0.00,0.00,1.73,-1.25,0.00,7.36,-4.90,7.04,1.07,0.00,0.38,2.51,-3.98,1236,1247,1246,1245,1255,1500,1508,10317,762
134031,17,-0.36,8.20,0.71,-0.291,0.123,1.123,-1.73,0.17,0.00,0.00,1.73,-0.17,0.00,7.37,-1.16,7.73,-9.36,0.00,0.93,-3.71,-1.24,1236,1247,1246,1245,1255,1500,1508,10334,762
134043,17,-1.51,12.17,1.89,-0.172,0.156,0.970,-0.99,-0.53,0.00,0.00,0.99,0.53,0.00,4.80,1.31,6.30,-10.86,0.00,1.43,-3.65,-15.60,1264,1244,1239,1271,1255,1500,1508,10325,762
134055,17,-1.18,2.81,2.12,0.049,0.199,0.852,-0.76,2.52,0.00,0.00,0.76,-2.52,0.00,4.02,-9.39,5.20,-12.20,0.00,1.34,-1.06,-13.54,1264,1244,1239,1271,1255,1500,1508,10321,762
134067,17,2.89,8.17,2.45,0.182,0.231,0.982,-1.35,1.41,0.00,0.00,1.35,-1.41,0.00,6.11,-5.52,3.22,-13.69,0.00,-0.79,-3.76,-16.49,1264,1244,1239,1271,1257,1500,1508,10309,762
134079,17,7.01,-2.75,3.52,0.552,0.244,0.617,-0.70,3.36,0.00,0.00,0.70,-3.36,0.00,3.84,-12.33,-3.17,-9.59,0.00,-2.77,1.17,-25.19,1264,1244,1239,1271,1257,1500,1508,10330,762
134091,17,9.48,-11.29,2.32,0.116,0.022,0.726,-1.43,1.67,0.00,0.00,1.43,-1.67,0.00,6.42,-6.45,-3.06,4.84,0.00,-4.04,4.00,-7.37,1264,1244,1239,1271,1257,1500,1508,10342,762
134103,17,8.79,-0.12,1.75,0.087,-0.171,0.885,-2.09,-0.29,0.00,0.00,2.09,0.29,0.00,8.71,0.40,-0.07,0.52,0.00,-4.09,0.74,-1.28,1264,1244,1239,1271,1259,1500,1508,10330,762
134115,17,7.22,-14.60,3.62,0.042,-0.219,0.746,-1.93,1.58,0.00,0.00,1.93,-1.58,0.00,8.18,-6.16,0.96,8.44,0.00,-3.15,6.82,-24.30,1264,1244,1239,1271,1259,1500,1508,10330,762
134127,17,4.66,-0.27,2.92,-0.430,-0.367,1.110,-1.54,-0.10,0.00,0.00,1.54,0.10,0.00,6.82,-0.29,2.16,-0.01,0.00,-1.78,-0.47,-13.84,1264,1244,1239,1271,1260,1500,1508,10334,762
134139,17,-1.73,5.45,2.75,-0.047,-0.424,0.946,-1.40,0.40,0.00,0.00,1.40,-0.40,0.00,6.35,-2.05,8.08,-7.50,0.00,1.36,-2.35,-14.80,1264,1244,1239,1271,1260,1500,1508,10309,762
134151,17,-3.29,1.02,2.80,-0.024,-0.288,0.921,-1.36,0.19,0.00,0.00,1.36,-0.19,0.00,6.19,-1.29,9.47,-2.31,0.00,2.12,0.22,-18.30,1260,1261,1257,1260,1260,1501,1507,10305,762
134163,17,-4.52,2.92,3.21,0.029,-0.186,0.901,-1.02,0.50,0.00,0.00,1.02,-0.50,0.00,5.01,-2.39,9.53,-5.31,0.00,2.60,-1.08,-23.16,1260,1261,1257,1260,1266,1500,1508,10309,762
134175,17,-2.74,3.26,2.49,0.013,-0.117,0.919,-1.12,0.22,0.00,0.00,1.12,-0.22,0.00,5.39,-1.42,8.13,-4.68,0.00,1.90,-1.18,-15.13,1260,1261,1257,1260,1266,1500,1508,10334,762
134187,17,-3.69,-2.64,2.11,0.115,-0.118,0.848,-1.36,0.83,0.00,0.00,1.36,-0.83,0.00,6.21,-3.54,9.91,-0.90,0.00,2.42,1.03,-9.31,1260,1261,1257,1260,1266,1501,1508,10350,762
134199,17,-1.40,-4.22,2.06,0.063,-0.151,0.802,-2.26,1.22,0.00,0.00,2.26,-1.22,0.00,9.40,-4.93,10.79,-0.71,0.00,1.18,1.23,-8.23,1260,1261,1257,1260,1266,1501,1508,10321,762
134211,17,-0.55,0.67,2.37,-0.133,-0.079,0.969,-2.28,0.25,0.00,0.00,2.28,-0.25,0.00,9.48,-1.55,10.03,-2.22,0.00,0.79,-0.94,-8.99,1260,1261,1257,1260,1269,1500,1509,10313,762
134223,17,-0.65,2.54,3.74,-0.117,-0.104,1.020,-2.28,-0.67,0.00,0.00,2.28,0.67,0.00,9.53,1.68,10.18,-0.87,0.00,0.80,-0.87,-20.27,1260,1261,1257,1260,1270,1500,1508,10300,762
134235,17,-2.17,2.24,5.52,0.056,-0.132,0.837,-1.85,0.79,0.00,0.00,1.85,-0.79,0.00,8.03,-3.45,10.20,-5.69,0.00,1.59,-0.67,-33.37,1260,1261,1257,1260,1270,1500,1508,10296,762
134247,17,-5.99,0.29,6.59,0.032,-0.199,0.694,-1.98,3.11,0.00,0.00,1.98,-3.11,0.00,8.51,-11.57,14.50,-11.86,0.00,3.28,-0.76,-37.58,1317,1221,1223,1317,1270,1500,1508,10275,770
134259,17,-8.76,0.86,6.85,-0.069,-0.058,0.857,-0.86,2.25,0.00,0.00,0.86,-2.25,0.00,4.59,-8.59,13.36,-9.44,0.00,4.40,-1.02,-34.88,1317,1221,1223,1317,1270,1500,1508,10296,770
134271,17,-10.70,1.64,5.62,-0.086,0.026,0.844,-0.39,0.72,0.00,0.00,0.39,-0.72,0.00,2.95,-3.24,13.65,-4.88,0.00,5.57,-1.07,-19.26,1317,1221,1223,1317,1270,1500,1508,10300,770
134283,17,-8.86,1.96,4.67,-0.043,0.046,0.854,-0.74,0.20,0.00,0.00,0.74,-0.20,0.00,4.21,-1.45,13.06,-3.41,0.00,4.88,-1.35,-11.89,1317,1221,1223,1317,1271,1500,1508,10288,770
134295,17,-7.47,0.97,4.89,-0.038,0.123,0.846,-0.82,0.03,0.00,0.00,0.82,-0.03,0.00,4.50,-0.84,11.97,-1.80,0.00,4.17,-0.63,-19.12,1317,1221,1223,1317,1271,1500,1508,10292,770
134307,17,-6.21,1.78,4.51,-0.246,0.100,1.010,-1.11,-1.20,0.00,0.00,1.11,1.20,0.00,5.54,3.47,11.74,1.69,0.00,3.36,-0.29,-15.53,1317,1221,1223,1317,1271,1500,1508,10288,770
134319,17,-3.19,-2.08,3.63,-0.205,0.103,0.898,-1.28,-1.08,0.00,0.00,1.28,1.08,0.00,6.15,3.06,9.34,5.14,0.00,2.12,1.59,-8.38,1317,1221,1223,1317,1271,1500,1508,10305,770
134331,17,-6.17,4.14,3.73,-0.390,-0.001,1.032,-2.67,0.12,0.00,0.00,2.67,-0.12,0.00,11.02,-1.17,17.19,-5.31,0.00,3.68,-2.33,-14.03,1317,1221,1223,1317,1274,1500,1508,10309,770
134343,17,-7.85,2.04,5.93,0.069,0.130,0.816,-1.20,2.18,0.00,0.00,1.20,-2.18,0.00,5.90,-8.40,13.75,-10.44,0.00,4.39,-1.26,-38.93,1305,1239,1242,1312,1275,1501,1507,10296,900
134355,17,-8.29,-3.74,4.20,0.150,0.134,0.671,-0.82,5.80,0.00,0.00,0.82,-5.80,0.00,4.61,-21.10,12.89,-17.36,0.00,4.81,-0.38,-15.36,1305,1239,1242,1312,1275,1501,1507,10284,900
134367,17,-5.98,2.37,2.75,0.048,0.322,0.832,-0.13,4.25,0.00,0.00,0.13,-4.25,0.00,2.20,-15.73,8.18,-18.10,0.00,3.96,-3.83,-3.43,1305,1239,1242,1312,1275,1500,1508,10284,900
134379,17,-4.63,5.60,2.31,0.050,0.264,0.842,0.10,2.21,0.00,0.00,-0.10,-2.21,0.00,1.42,-8.59,6.05,-14.18,0.00,3.06,-3.97,-2.64,1305,1239,1242,1312,1275,1500,1508,10288,900
134391,17,-2.92,1.03,1.90,0.059,0.278,0.759,-0.40,2.16,0.00,0.00,0.40,-2.16,0.00,3.18,-8.43,6.11,-9.46,0.00,1.82,-0.52,-0.67,1305,1239,1242,1312,1277,1500,1508,10296,900
134403,17,-1.02,-1.17,3.27,-0.155,0.145,0.942,-1.76,1.79,0.00,0.00,1.76,-1.79,0.00,7.96,-7.16,8.98,-5.99,0.00,0.60,0.95,-16.96,1305,1239,1242,1312,1277,1500,1508,10292,900
134415,17,-1.85,5.95,4.94,-0.342,-0.054,1.052,-2.44,0.01,0.00,0.00,2.44,-0.01,0.00,10.36,-0.95,12.21,-6.90,0.00,0.98,-1.90,-29.79,1305,1239,1242,1312,1277,1500,1508,10313,900
134427,17,-2.33,5.23,5.08,-0.102,-0.071,0.867,-2.64,0.03,0.00,0.00,2.64,-0.03,0.00,11.07,-1.02,13.40,-6.25,0.00,1.54,-1.64,-23.75,1305,1239,1242,1312,1284,1500,1509,10300,900
134439,17,-3.51,6.94,4.95,-0.042,-0.105,0.852,-2.82,1.54,0.00,0.00,2.82,-1.54,0.00,11.73,-6.33,15.24,-13.27,0.00,2.15,-3.30,-17.10,1305,1239,1242,1312,1284,1500,1509,10288,900
134451,17,-5.25,5.84,4.86,0.117,-0.042,0.950,-2.32,1.27,0.00,0.00,2.32,-1.27,0.00,10.01,-5.39,15.27,-11.23,0.00,2.91,-2.68,-15.44,1318,1249,1250,1319,1285,1500,1508,10288,888
134463,17,-3.72,-2.43,4.54,0.223,0.016,0.787,-1.43,2.18,0.00,0.00,1.43,-2.18,0.00,6.92,-8.59,10.63,-6.16,0.00,2.41,0.83,-11.32,1318,1249,1250,1319,1286,1500,1508,10267,888
134475,17,-5.09,-4.04,4.09,0.209,-0.058,0.687,-1.53,2.50,0.00,0.00,1.53,-2.50,0.00,7.28,-9.72,12.37,-5.68,0.00,3.17,1.51,-8.82,1318,1249,1250,1319,1286,1500,1508,10271,888
134487,17,-5.44,-6.93,4.39,0.106,-0.228,0.815,-3.02,2.51,0.00,0.00,3.02,-2.51,0.00,12.52,-9.80,17.96,-2.87,0.00,3.24,3.05,-15.79,1318,1249,1250,1319,1286,1500,1508,10267,888
134499,17,-2.29,-5.16,4.94,-0.044,-0.197,0.983,-3.61,1.32,0.00,0.00,3.61,-1.32,0.00,14.62,-5.65,16.90,-0.49,0.00,1.65,2.77,-23.25,1318,1249,1250,1319,1286,1500,1508,10259,888
134511,17,-2.89,-6.55,6.64,-0.106,-0.195,0.971,-2.96,1.30,0.00,0.00,2.96,-1.30,0.00,12.37,-5.59,15.26,0.96,0.00,1.99,3.38,-39.24,1318,1249,1250,1319,1286,1500,1508,10263,888
134523,17,-4.18,-6.75,6.65,0.038,-0.281,0.761,-2.93,3.26,0.00,0.00,2.93,-3.26,0.00,12.29,-12.49,16.47,-5.74,0.00,2.67,2.83,-32.97,1318,1249,1250,1319,1286,1500,1508,10255,888
134535,17,-4.32,-9.84,5.83,-0.110,-0.432,0.930,-3.83,4.96,0.00,0.00,3.83,-4.96,0.00,15.50,-18.47,19.81,-8.63,0.00,2.50,2.82,-21.66,1318,1249,1250,1319,1286,1500,1508,10259,888
134547,17,-2.75,-4.66,6.56,-0.175,-0.388,0.962,-3.62,3.37,0.00,0.00,3.62,-3.37,0.00,14.79,-12.96,17.54,-8.30,0.00,1.75,0.33,-32.84,1305,1263,1262,1312,1286,1500,1508,10267,762
134559,17,-2.72,0.31,7.74,-0.070,-0.420,0.892,-2.90,2.45,0.00,0.00,2.90,-2.45,0.00,12.26,-9.77,14.98,-10.07,0.00,1.96,-1.41,-46.81,1305,1263,1262,1312,1286,1500,1508,10275,762
134571,17,-2.35,-0.19,9.42,0.124,-0.499,0.809,-2.81,2.84,0.00,0.00,2.81,-2.84,0.00,11.98,-11.18,14.33,-10.99,0.00,2.16,-0.42,-64.51,1305,1263,1262,1312,1286,1500,1508,10271,762
134583,17,-2.87,-3.55,10.88,0.089,-0.364,0.871,-2.80,3.00,0.00,0.00,2.80,-3.00,0.00,11.98,-11.75,14.85,-8.20,0.00,2.54,0.97,-77.13,1305,1263,1262,1312,1285,1500,1508,10271,762
134595,17,0.19,0.29,12.33,-0.257,-0.183,1.139,-2.53,-0.25,0.00,0.00,2.53,0.25,0.00,11.06,-0.40,10.87,-0.70,0.00,1.29,-0.47,-85.10,1305,1263,1262,1312,1285,1500,1508,10259,762
134607,17,1.43,2.23,13.30,-0.065,0.048,1.067,-1.62,-2.90,0.00,0.00,1.62,2.90,0.00,7.89,8.92,6.46,6.70,0.00,0.83,0.12,-85.01,1305,1263,1262,1312,1286,1500,1508,10250,762
134619,17,4.07,-8.79,12.78,0.197,-0.053,0.748,-2.36,-0.42,0.00,0.00,2.36,0.42,0.00,10.51,0.23,6.44,9.01,0.00,-0.67,4.25,-69.66,1305,1263,1262,1312,1286,1500,1508,10263,762
134631,17,5.37,-1.97,12.46,-0.175,0.044,0.936,-2.10,0.92,0.00,0.00,2.10,-0.92,0.00,9.60,-4.46,4.23,-2.49,0.00,-1.58,0.17,-61.86,1305,1263,1262,1312,1286,1500,1508,10234,762
134643,17,-0.18,8.98,13.05,-0.281,-0.051,1.033,-2.29,1.47,0.00,0.00,2.29,-1.47,0.00,10.28,-6.40,10.46,-15.38,0.00,0.13,-4.45,-65.13,1348,1222,1216,1356,1286,1500,1508,10238,762
134655,17,1.25,13.94,14.58,-0.312,-0.180,1.143,-2.92,2.27,0.00,0.00,2.92,-2.27,0.00,12.51,-9.24,11.26,-23.18,0.00,-0.52,-6.01,-78.22,1348,1222,1216,1356,1286,1500,1508,10259,762
134667,17,-3.66,9.09,16.74,-0.033,-0.118,0.853,-1.96,2.61,0.00,0.00,1.96,-2.61,0.00,9.15,-10.43,12.81,-19.52,0.00,1.86,-2.79,-93.57,1348,1222,1216,1356,1286,1500,1509,10259,762
134679,17,-6.95,13.45,16.44,-0.161,-0.058,0.974,-2.28,1.67,0.00,0.00,2.28,-1.67,0.00,10.32,-7.17,17.27,-20.62,0.00,3.73,-5.52,-81.84,1348,1222,1216,1356,1286,1500,1509,10267,762
134691,17,-6.83,9.17,17.13,0.013,0.045,0.932,-1.40,0.04,0.00,0.00,1.40,-0.04,0.00,7.26,-1.46,14.10,-10.63,0.00,3.97,-3.15,-50.09,1348,1222,1216,1356,1286,1500,1509,10263,762
134703,17,-5.16,3.29,16.89,-0.068,-0.013,1.051,-1.89,-0.44,0.00,0.00,1.89,0.44,0.00,8.98,0.21,14.14,-3.08,0.00,3.15,-0.24,-43.83,1348,1222,1216,1356,1286,1500,1508,10271,762
134715,17,1.35,-3.77,17.87,-0.193,-0.175,1.101,-2.73,-1.23,0.00,0.00,2.73,1.23,0.00,11.95,2.98,10.59,6.75,0.00,0.07,3.63,-52.69,1348,1222,1216,1356,1286,1500,1508,10271,762
134727,17,1.23,-14.66,20.16,-0.303,-0.332,0.929,-3.02,0.54,0.00,0.00,3.02,-0.54,0.00,12.99,-3.23,11.76,11.42,0.00,-0.13,7.06,-74.86,1348,1222,1216,1356,1286,1500,1509,10271,762
134739,17,2.05,0.72,19.85,-0.254,-0.386,0.917,-3.31,0.15,0.00,0.00,3.31,-0.15,0.00,14.03,-1.90,11.98,-2.62,0.00,-0.84,0.13,-63.25,1348,1222,1216,1356,1286,1500,1509,10296,762
134752,17,5.98,-1.27,20.53,0.142,0.032,0.766,-0.57,1.62,0.00,0.00,0.57,-1.62,0.00,4.44,-7.03,-1.54,-5.77,0.00,-2.85,0.93,-60.12,1352,1225,1222,1351,1289,1500,1508,10275,762
134763,17,1.95,-9.40,21.47,0.293,-0.146,0.549,-0.43,3.75,0.00,0.00,0.43,-3.75,0.00,3.96,-14.52,2.00,-5.12,0.00,-0.38,3.06,-66.44,1352,1225,1222,1351,1290,1500,1508,10284,762
134775,17,4.83,-3.40,22.22,0.123,0.050,0.767,-0.47,2.84,0.00,0.00,0.47,-2.84,0.00,4.10,-11.36,-0.73,-7.97,0.00,-1.70,-1.07,-68.72,1352,1225,1222,1351,1290,1500,1508,10292,762
134787,17,7.76,0.89,21.73,-0.007,0.102,0.830,-0.54,0.27,0.00,0.00,0.54,-0.27,0.00,4.36,-2.37,-3.40,-3.26,0.00,-2.54,-0.66,-56.50,1352,1225,1222,1351,1290,1500,1508,10288,762
134799,17,3.62,-3.81,21.97,-0.048,0.086,0.825,-0.46,-1.46,0.00,0.00,0.46,1.46,0.00,4.06,3.69,0.45,7.50,0.00,-0.44,3.45,-55.61,1352,1225,1222,1351,1290,1500,1508,10259,762
134811,17,5.78,-4.50,22.45,-0.012,-0.005,0.870,-1.62,-0.16,0.00,0.00,1.62,0.16,0.00,8.16,-0.86,2.38,3.64,0.00,-1.44,1.99,-54.55,1352,1225,1222,1351,1291,1500,1509,10255,762
134823,17,0.31,0.43,24.44,0.067,-0.122,0.914,-2.26,2.67,0.00,0.00,2.26,-2.67,0.00,10.41,-10.79,10.10,-11.23,0.00,1.26,-1.65,-72.06,1352,1225,1222,1351,1290,1500,1509,10255,762
134835,17,-1.67,5.58,27.32,0.079,-0.159,0.998,-2.11,4.49,0.00,0.00,2.11,-4.49,0.00,9.89,-17.19,11.57,-22.76,0.00,1.95,-3.83,-98.52,1352,1225,1222,1351,1290,1500,1509,10255,762
134847,17,-0.52,-0.93,28.73,0.181,-0.130,0.871,-1.41,4.38,0.00,0.00,1.41,-4.38,0.00,7.47,-16.85,7.99,-15.92,0.00,1.17,-0.22,-107.27,1381,1198,1198,1383,1291,1500,1508,10250,762
134859,17,0.94,0.71,30.99,0.321,-0.027,0.772,-1.13,4.88,0.00,0.00,1.13,-4.88,0.00,6.51,-18.63,5.57,-19.34,0.00,0.35,-1.07,-125.98,1381,1198,1198,1383,1291,1500,1508,10246,762
134871,17,4.85,-1.04,31.61,0.312,0.139,0.804,-0.34,5.68,0.00,0.00,0.34,-5.68,0.00,3.74,-21.49,-1.11,-20.45,0.00,-1.52,-0.45,-120.02,1381,1198,1198,1383,1291,1500,1508,10246,762
134883,17,4.97,-1.31,30.78,0.263,0.195,0.697,-0.71,7.06,0.00,0.00,0.71,-7.06,0.00,5.03,-26.39,0.07,-25.08,0.00,-1.13,-0.32,-101.31,1381,1198,1198,1383,1291,1500,1508,10242,762
134895,17,0.08,1.85,30.09,-0.185,0.118,0.838,-1.49,4.26,0.00,0.00,1.49,-4.26,0.00,7.79,-16.64,7.71,-18.48,0.00,1.18,-1.10,-92.02,1381,1198,1198,1383,1291,1500,1508,10242,762
134907,17,-4.32,3.78,32.07,-0.103,-0.078,0.868,-1.76,3.27,0.00,0.00,1.76,-3.27,0.00,8.75,-13.20,13.07,-16.98,0.00,3.20,-1.89,-111.83,1381,1198,1198,1383,1291,1500,1508,10238,762
134919,17,-9.85,13.21,34.84,-0.221,-0.227,1.141,-1.95,2.99,0.00,0.00,1.95,-2.99,0.00,9.45,-12.24,19.30,-25.45,0.00,5.58,-6.56,-139.39,1381,1198,1198,1383,1291,1500,1508,10238,762
134931,17,-3.97,0.10,36.45,0.123,-0.300,0.812,-2.34,4.16,0.00,0.00,2.34,-4.16,0.00,10.83,-16.38,14.80,-16.48,0.00,2.60,-0.08,-151.76,1381,1198,1198,1383,1291,1500,1508,10255,762
134943,17,2.84,-0.71,36.11,-0.064,-0.278,0.911,-3.44,4.41,0.00,0.00,3.44,-4.41,0.00,14.70,-17.32,11.87,-16.60,0.00,-0.84,-0.26,-139.37,1423,1157,1158,1424,1291,1500,1508,10250,762
134955,17,5.04,10.26,36.58,-0.359,-0.140,1.057,-2.71,1.09,0.00,0.00,2.71,-1.09,0.00,12.16,-5.71,7.13,-15.97,0.00,-2.18,-3.61,-136.03,1423,1157,1158,1424,1291,1500,1508,10271,762
134967,17,-0.07,2.17,37.27,-0.025,-0.212,0.692,-3.09,1.12,0.00,0.00,3.09,-1.12,0.00,13.51,-5.83,13.58,-8.00,0.00,0.45,1.70,-133.35,1423,1157,1158,1424,1291,1500,1508,10267,762
134980,17,-2.61,-5.01,38.10,0.039,-0.081,0.893,-3.48,1.79,0.00,0.00,3.48,-1.79,0.00,14.91,-8.18,17.52,-3.17,0.00,2.22,2.09,-132.37,1423,1157,1158,1424,1291,1500,1508,10259,762
134991,17,2.36,-0.93,43.45,-0.005,-0.003,0.962,-2.73,-0.32,0.00,0.00,2.73,0.32,0.00,12.33,-0.80,9.97,0.13,0.00,-0.18,-0.19,-180.45,1423,1157,1158,1424,1291,1494,1510,10255,762
135003,17,9.82,-19.52,47.29,0.298,-0.212,0.716,-4.27,1.07,0.00,0.00,4.27,-1.07,0.00,17.73,-5.67,7.91,13.84,0.00,-3.64,8.24,-203.93,1423,1157,1158,1424,1291,1500,1508,10242,762
135015,17,1.63,-0.04,51.85,0.153,-0.075,0.714,-4.34,2.49,0.00,0.00,4.34,-2.49,0.00,18.03,-10.65,16.40,-10.61,0.00,0.59,-2.05,-240.31,1423,1157,1158,1424,1291,1500,1508,10217,762
135027,17,-6.43,18.48,57.00,-0.007,0.206,0.788,-1.84,2.16,0.00,0.00,1.84,-2.16,0.00,9.30,-9.53,15.73,-28.01,0.00,4.84,-8.85,-277.75,1423,1157,1158,1424,1291,1506,1502,10196,762
135039,17,-3.74,7.60,58.50,-0.169,-0.003,0.999,-2.94,1.61,0.00,0.00,2.94,-1.61,0.00,13.21,-7.62,16.95,-15.22,0.00,3.26,-2.98,-265.91,1423,1157,1158,1424,1291,1506,1502,10201,762
135051,17,3.43,0.92,63.68,-0.119,-0.340,1.002,-3.61,-0.42,0.00,0.00,3.61,0.42,0.00,15.56,-0.51,12.13,-1.44,0.00,-1.46,2.59,-297.82,1499,1100,1100,1499,1291,1500,1508,10184,762
135063,17,-0.48,3.64,64.70,0.020,0.002,1.010,-2.02,-0.24,0.00,0.00,2.02,0.24,0.00,10.01,-1.16,10.49,-4.80,0.00,0.62,0.66,-278.27,1499,1100,1100,1499,1291,1501,1507,10159,762
135075,17,-4.61,11.82,70.47,-0.062,0.222,0.963,-0.97,-0.59,0.00,0.00,0.97,0.59,0.00,6.35,0.09,10.96,-11.73,0.00,3.13,-3.33,-322.68,1499,1100,1100,1499,1291,1501,1507,10138,762
135087,17,0.64,-9.26,75.21,-0.230,-0.239,1.025,-3.03,-1.18,0.00,0.00,3.03,1.18,0.00,13.62,2.15,12.98,11.41,0.00,0.09,5.16,-347.86,1499,1100,1100,1499,1291,1500,1508,10134,762
135099,17,-4.84,-5.41,81.65,0.417,-0.110,0.684,-2.24,1.07,0.00,0.00,2.24,-1.07,0.00,10.87,-5.72,15.71,-0.32,0.00,2.01,3.05,-350.00,1499,1100,1100,1499,1291,1500,1508,10151,762
135111,17,-8.92,-0.05,85.13,-0.235,0.080,1.090,-1.85,2.89,0.00,0.00,1.85,-2.89,0.00,9.51,-12.11,18.43,-12.06,0.00,4.01,-1.64,-350.00,1499,1100,1100,1499,1291,1500,1508,10134,762
135123,17,-3.60,-0.74,90.61,-0.315,-0.064,1.156,-2.62,-1.08,0.00,0.00,2.62,1.08,0.00,12.22,1.77,15.82,2.51,0.00,0.52,-0.55,-350.00,1499,1100,1100,1499,1291,1500,1508,10151,762
135135,17,-10.09,-2.19,95.23,0.256,-0.107,0.824,-2.21,0.10,0.00,0.00,2.21,-0.10,0.00,10.82,-2.35,20.91,-0.16,0.00,2.82,0.80,-350.00,1499,1100,1100,1499,1291,1500,1508,10167,762
135147,17,-12.09,4.57,98.58,-0.219,-0.014,1.272,-2.18,0.58,0.00,0.00,2.18,-0.58,0.00,10.74,-4.04,22.82,-8.61,0.00,3.36,-3.17,-350.00,1500,1100,1100,1500,1291,1500,1508,10176,762
135159,17,-9.93,-0.65,103.93,0.218,-0.057,0.801,-2.54,1.59,0.00,0.00,2.54,-1.59,0.00,12.03,-7.57,21.96,-6.92,0.00,1.28,0.02,-350.00,1500,1100,1100,1500,1291,1500,1508,10184,762
135171,17,-17.75,10.53,108.22,-0.253,-0.034,1.086,-2.11,-0.71,0.00,0.00,2.11,0.71,0.00,10.53,0.46,28.27,-10.07,0.00,3.98,-4.54,-350.00,1500,1100,1100,1500,1291,1500,1508,10201,762
135183,17,-14.55,-1.86,112.27,-0.025,-0.193,1.006,-2.71,-0.87,0.00,0.00,2.71,0.87,0.00,12.65,1.05,27.20,2.91,0.00,1.90,2.38,-350.00,1500,1100,1100,1500,1291,1500,1508,10196,762
135195,17,-18.56,5.97,117.41,0.147,0.014,0.877,-2.00,-0.43,0.00,0.00,2.00,0.43,0.00,10.20,-0.49,28.76,-6.46,0.00,2.63,-1.75,-350.00,1500,1100,1100,1500,1291,1500,1508,10192,762
135207,17,-26.74,9.68,121.36,-0.138,-0.022,0.995,-2.19,-0.06,0.00,0.00,2.19,0.06,0.00,10.89,-1.77,37.62,-11.45,0.00,5.42,-2.88,-350.00,1500,1100,1100,1500,1291,1500,1508,10201,762
135219,17,-25.25,3.83,126.02,-0.085,-0.104,1.002,-2.39,-0.38,0.00,0.00,2.39,0.38,0.00,11.58,-0.65,36.83,-4.48,0.00,3.05,0.25,-350.00,1500,1100,1100,1500,1291,1500,1508,10213,762
135231,17,-30.20,6.24,129.25,0.325,-0.012,0.615,-1.84,1.90,0.00,0.00,1.84,-1.90,0.00,9.70,-8.66,39.90,-14.90,0.00,3.99,-0.66,-350.00,1500,1100,1100,1500,1291,1500,1508,10209,762
135243,17,-33.62,18.04,133.72,-0.349,0.028,1.134,-2.77,0.51,0.00,0.00,2.77,-0.51,0.00,12.97,-3.81,46.59,-21.85,0.00,4.33,-5.89,-350.00,1500,1100,1100,1500,1291,1500,1508,10217,762
135255,17,-35.85,-2.89,138.90,0.083,-0.202,0.746,-4.01,1.90,0.00,0.00,4.01,-1.90,0.00,17.33,-8.69,53.18,-5.80,0.00,4.27,4.10,-350.00,1500,1100,1100,1500,1291,1500,1508,10201,762
135267,17,-37.82,17.12,141.89,0.057,-0.014,0.891,-3.86,1.11,0.00,0.00,3.86,-1.11,0.00,16.86,-5.92,54.68,-23.04,0.00,4.19,-5.11,-350.00,1500,1100,1100,1500,1291,1500,1508,10201,762
135279,17,-38.02,1.06,147.34,-0.092,-0.077,0.903,-3.63,2.58,0.00,0.00,3.63,-2.58,0.00,16.08,-11.08,54.10,-12.14,0.00,3.37,1.90,-350.00,1500,1100,1100,1500,1291,1500,1508,10188,762
135291,17,-39.54,4.38,149.16,0.035,-0.130,0.870,-4.99,2.47,0.00,0.00,4.99,-2.47,0.00,20.88,-10.75,60.43,-15.12,0.00,3.74,-0.51,-350.00,1500,1100,1100,1500,1291,1500,1508,10196,762
135303,17,-40.70,10.81,153.84,-0.019,-0.007,0.981,-4.65,1.90,0.00,0.00,4.65,-1.90,0.00,19.76,-8.75,60.46,-19.56,0.00,3.63,-2.88,-350.00,1500,1100,1100,1500,1291,1500,1508,10201,762
135315,17,-43.16,5.54,157.99,-0.186,-0.030,0.993,-4.68,0.19,0.00,0.00,4.68,-0.19,0.00,19.90,-2.77,63.05,-8.31,0.00,4.17,0.17,-350.00,1500,1100,1100,1500,1291,1500,1508,10201,762
135327,17,-44.13,8.97,163.16,0.385,-0.039,0.597,-4.38,2.67,0.00,0.00,4.38,-2.67,0.00,18.91,-11.48,63.04,-20.45,0.00,4.13,-1.11,-350.00,1500,1100,1100,1500,1291,1500,1508,10192,762
135339,17,-43.54,4.59,166.61,-0.399,-0.230,1.086,-5.26,2.22,0.00,0.00,5.26,-2.22,0.00,22.02,-9.92,65.56,-14.50,0.00,3.64,-0.89,-350.00,1500,1100,1100,1500,1291,1500,1508,10188,762
135351,17,-40.23,11.21,169.78,0.083,-0.169,0.781,-5.82,0.15,0.00,0.00,5.82,-0.15,0.00,24.03,-2.68,64.26,-13.89,0.00,2.09,-1.56,-350.00,1500,1100,1100,1500,1291,1500,1508,10184,762
135363,17,-44.91,19.10,174.72,-0.112,0.023,0.870,-5.61,-0.90,0.00,0.00,5.61,0.90,0.00,23.35,0.99,68.25,-18.12,0.00,4.23,-4.84,-350.00,1500,1100,1100,1500,1291,1500,1508,10184,762
135375,17,-40.67,-4.84,178.93,-0.126,-0.239,0.824,-5.55,0.62,0.00,0.00,5.55,-0.62,0.00,23.18,-4.32,63.85,0.52,0.00,2.48,5.08,-350.00,1500,1100,1100,1500,1291,1500,1508,10176,762
135387,17,-35.36,13.10,178.11,0.259,-0.281,0.690,-7.15,1.07,0.00,0.00,7.15,-1.07,0.00,28.85,-5.92,64.20,-19.02,0.00,0.45,-3.48,-350.00,1500,1100,1100,1500,1291,1500,1508,10180,762
135399,17,-31.04,24.72,177.62,-0.228,0.020,1.058,-7.80,1.40,0.00,0.00,7.80,-1.40,0.00,31.18,-7.08,62.23,-31.80,0.00,0.22,-7.73,-350.00,1500,1100,1100,1500,1291,1500,1508,10184,762
135411,17,-27.34,21.55,179.04,-0.089,-0.228,0.761,-8.92,1.23,0.00,0.00,8.92,-1.23,0.00,35.20,-6.48,62.54,-28.03,0.00,0.03,-3.20,-350.00,1500,1100,1100,1500,1291,1500,1508,10188,762
135423,17,-25.94,29.47,180.81,0.548,-0.012,0.469,-7.65,6.10,0.00,0.00,7.65,-6.10,0.00,30.84,-23.58,56.77,-53.06,0.00,0.74,-5.41,-350.00,1500,1100,1100,1500,1291,1500,1508,10196,762
135435,17,-25.23,33.98,182.33,-0.414,-0.036,1.085,-7.90,5.36,0.00,0.00,7.90,-5.36,0.00,31.79,-21.05,57.02,-55.03,0.00,1.68,-7.01,-350.00,1500,1100,1100,1500,1291,1500,1508,10184,762
135447,17,-24.15,30.94,185.37,-0.003,-0.134,0.741,-8.36,3.24,0.00,0.00,8.36,-3.24,0.00,33.48,-13.65,57.63,-44.58,0.00,1.89,-2.55,-350.00,1500,1100,1100,1500,1291,1500,1508,10192,762
135459,17,-24.50,37.28,188.40,-0.011,0.051,0.860,-7.23,2.84,0.00,0.00,7.23,-2.84,0.00,29.59,-12.29,54.10,-49.57,0.00,2.63,-5.09,-350.00,1500,1100,1100,1500,1291,1500,1508,10196,762
135471,17,-23.64,29.63,191.82,-0.040,-0.079,0.883,-6.71,2.62,0.00,0.00,6.71,-2.62,0.00,27.84,-11.55,51.48,-41.17,0.00,2.41,-1.00,-350.00,1500,1100,1100,1500,1291,1500,1508,10184,762
135483,17,-23.43,21.12,195.32,0.328,-0.073,0.495,-6.77,7.01,0.00,0.00,6.77,-7.01,0.00,28.13,-26.95,51.56,-48.07,0.00,2.75,1.62,-350.00,1500,1100,1100,1500,1291,1500,1508,10180,762
135495,17,-23.44,39.90,196.07,-0.440,-0.199,1.066,-6.66,3.13,0.00,0.00,6.66,-3.13,0.00,27.79,-13.43,51.23,-53.33,0.00,2.87,-7.44,-350.00,1500,1100,1100,1500,1291,1500,1508,10159,762
135507,17,-18.98,27.22,198.65,0.264,-0.128,0.694,-6.58,3.20,0.00,0.00,6.58,-3.20,0.00,27.59,-13.69,46.57,-40.91,0.00,1.06,0.90,-350.00,1500,1100,1100,1500,1291,1501,1508,10159,762
135519,17,-20.90,31.71,202.91,0.227,0.001,0.544,-5.41,5.87,0.00,0.00,5.41,-5.87,0.00,23.53,-23.09,44.43,-54.80,0.00,2.27,-2.64,-350.00,1500,1100,1100,1500,1291,1501,1508,10167,762
135531,17,-16.57,45.45,201.76,-0.312,-0.177,1.168,-6.57,2.90,0.00,0.00,6.57,-2.90,0.00,27.68,-12.73,44.24,-58.17,0.00,0.86,-8.07,-350.00,1500,1100,1100,1500,1291,1500,1508,10167,762
135543,17,-7.98,37.84,202.30,0.163,-0.155,0.689,-7.25,4.12,0.00,0.00,7.25,-4.12,0.00,30.10,-17.03,38.09,-54.87,0.00,-1.40,-2.50,-350.00,1500,1100,1100,1500,1291,1500,1508,10176,762
135555,17,-9.55,61.54,203.97,0.023,0.067,0.809,-5.98,2.11,0.00,0.00,5.98,-2.11,0.00,25.72,-10.02,35.27,-71.56,0.00,0.40,-10.75,-350.00,1500,1100,1100,1500,1291,1500,1508,10196,762
135567,17,-10.49,48.67,207.65,-0.184,-0.015,0.958,-6.23,3.37,0.00,0.00,6.23,-3.37,0.00,26.67,-14.45,37.16,-63.12,0.00,1.56,-3.80,-350.00,1500,1100,1100,1500,1291,1500,1508,10196,762
135579,17,-10.15,50.11,208.33,0.039,-0.264,0.744,-5.52,3.10,0.00,0.00,5.52,-3.10,0.00,24.23,-13.55,34.38,-63.67,0.00,1.42,-2.62,-350.00,1500,1100,1100,1500,1291,1500,1508,10184,762
135591,17,-11.13,74.31,210.07,-0.147,0.050,1.024,-5.15,-0.17,0.00,0.00,5.15,0.17,0.00,22.97,-2.11,34.10,-76.42,0.00,1.92,-11.19,-350.00,1500,1100,1100,1500,1291,1500,1508,10176,762
135603,17,-12.43,54.54,214.57,-0.113,-0.061,0.869,-4.61,0.72,0.00,0.00,4.61,-0.72,0.00,21.13,-5.21,33.56,-59.75,0.00,2.48,-0.81,-350.00,1500,1100,1100,1500,1291,1500,1508,10192,762
135615,17,-11.45,59.02,216.77,0.295,-0.067,0.647,-4.61,3.07,0.00,0.00,4.61,-3.07,0.00,21.17,-13.48,32.63,-72.51,0.00,1.98,-3.06,-350.00,1500,1100,1100,1500,1291,1500,1508,10201,762
135627,17,-11.15,60.38,218.93,-0.078,-0.061,0.921,-5.30,4.34,0.00,0.00,5.30,-4.34,0.00,23.63,-17.95,34.78,-78.33,0.00,1.95,-4.48,-350.00,1500,1100,1100,1500,1291,1500,1508,10192,762
135639,17,-9.07,69.40,222.07,-0.260,-0.203,1.005,-5.77,1.83,0.00,0.00,5.77,-1.83,0.00,25.36,-9.21,34.43,-78.61,0.00,1.35,-7.22,-350.00,1500,1100,1100,1500,1291,1500,1508,10167,762
135651,17,-3.33,71.15,224.33,0.183,-0.076,0.760,-5.93,2.72,0.00,0.00,5.93,-2.72,0.00,25.96,-12.35,29.29,-83.50,0.00,-0.31,-6.20,-350.00,1500,1100,1100,1500,1291,1500,1508,10171,762
135663,17,2.98,54.29,226.88,0.002,-0.222,0.782,-6.17,5.93,0.00,0.00,6.17,-5.93,0.00,26.86,-23.62,23.88,-77.91,0.00,-1.54,0.52,-350.00,1500,1100,1100,1500,1291,1500,1508,10167,762
135675,17,4.15,74.53,230.37,-0.077,-0.047,0.905,-5.65,3.79,0.00,0.00,5.65,-3.79,0.00,25.09,-16.19,20.95,-90.71,0.00,-0.60,-8.56,-350.00,1500,1100,1100,1500,1291,1500,1508,10167,762
135687,17,5.15,68.12,233.23,-0.214,-0.023,0.905,-5.27,3.09,0.00,0.00,5.27,-3.09,0.00,23.80,-13.75,18.65,-81.87,0.00,0.53,-5.12,-350.00,1500,1100,1100,1500,1291,1500,1508,10167,762
135699,17,12.54,58.52,236.98,0.033,-0.305,0.819,-5.66,2.03,0.00,0.00,5.66,-2.03,0.00,25.23,-10.06,12.69,-68.58,0.00,-1.42,-0.11,-350.00,1500,1100,1100,1500,1291,1500,1508,10167,762
135711,17,14.83,64.65,238.91,0.170,-0.037,0.844,-5.90,4.60,0.00,0.00,5.90,-4.60,0.00,26.14,-19.09,11.30,-83.75,0.00,-0.81,-5.15,-350.00,1500,1100,1100,1500,1291,1500,1508,10171,762
135723,17,16.28,55.84,244.88,-0.154,-0.090,0.881,-5.59,5.32,0.00,0.00,5.59,-5.32,0.00,25.10,-21.65,8.82,-77.49,0.00,-0.06,-1.96,-350.00,1500,1100,1100,1500,1291,1500,1508,10176,762
135735,17,21.43,56.25,246.82,-0.115,-0.258,0.928,-6.31,3.41,0.00,0.00,6.31,-3.41,0.00,27.67,-15.05,6.23,-71.30,0.00,-1.42,-2.56,-350.00,1500,1100,1100,1500,1291,1500,1508,10167,762
135747,17,22.49,63.07,250.80,0.012,0.005,0.829,-5.40,2.68,0.00,0.00,5.40,-2.68,0.00,24.55,-12.52,2.06,-75.59,0.00,-0.88,-5.59,-350.00,1500,1100,1100,1500,1291,1500,1508,10171,762
135759,17,22.90,61.14,254.99,-0.267,-0.032,1.017,-4.59,1.10,0.00,0.00,4.59,-1.10,0.00,21.74,-6.99,-1.15,-68.13,0.00,-0.08,-4.29,-350.00,1500,1100,1100,1500,1291,1500,1508,10159,762
135771,17,27.24,46.85,258.64,0.320,-0.157,0.524,-5.44,5.36,0.00,0.00,5.44,-5.36,0.00,24.80,-21.92,-2.44,-68.78,0.00,-1.25,1.25,-350.00,1500,1100,1100,1500,1291,1500,1508,10159,762
135783,17,24.12,65.38,261.32,-0.265,0.015,1.034,-4.30,2.63,0.00,0.00,4.30,-2.63,0.00,20.85,-12.43,-3.27,-77.81,0.00,0.57,-8.05,-350.00,1500,1100,1100,1500,1291,1499,1508,10159,762
135795,17,27.35,64.32,264.83,-0.243,-0.081,0.985,-4.20,-0.13,0.00,0.00,4.20,0.13,0.00,20.53,-2.75,-6.83,-67.07,0.00,-0.53,-5.10,-350.00,1500,1100,1100,1500,1291,1499,1508,10155,762
135807,17,26.55,57.58,269.06,0.313,-0.055,0.522,-3.43,3.01,0.00,0.00,3.43,-3.01,0.00,17.87,-13.76,-8.68,-71.34,0.00,0.14,-1.83,-350.00,1500,1100,1100,1500,1291,1500,1508,10167,762
135819,17,29.07,62.93,270.77,-0.239,-0.073,1.096,-3.45,2.26,0.00,0.00,3.45,-2.26,0.00,17.98,-11.17,-11.09,-74.09,0.00,-0.54,-5.48,-350.00,1500,1100,1100,1500,1291,1500,1508,10159,762
135831,17,32.01,50.95,275.18,0.122,-0.087,0.697,-2.90,3.59,0.00,0.00,2.90,-3.59,0.00,16.08,-15.85,-15.93,-66.80,0.00,-1.37,0.14,-350.00,1500,1100,1100,1500,1292,1500,1508,10151,762
135843,17,30.47,71.13,278.17,-0.159,-0.002,0.876,-2.35,0.85,0.00,0.00,2.35,-0.85,0.00,14.16,-6.28,-16.31,-77.41,0.00,0.19,-8.56,-350.00,1500,1100,1100,1500,1294,1500,1508,10155,762
135855,17,35.33,56.59,281.60,-0.014,-0.138,0.884,-2.08,2.10,0.00,0.00,2.08,-2.10,0.00,13.24,-10.68,-22.09,-67.27,0.00,-1.58,-1.57,-350.00,1500,1100,1100,1500,1294,1500,1508,10163,762
135867,17,38.02,48.74,285.03,0.184,-0.038,0.657,-1.10,4.95,0.00,0.00,1.10,-4.95,0.00,9.85,-20.67,-28.17,-69.41,0.00,-2.02,0.31,-350.00,1500,1100,1100,1500,1294,1500,1508,10167,762
135879,17,37.19,66.54,287.36,-0.277,0.006,0.873,-1.12,1.78,0.00,0.00,1.12,-1.78,0.00,9.92,-9.61,-27.28,-76.15,0.00,-0.87,-7.96,-350.00,1500,1100,1100,1500,1294,1500,1508,10167,762
135891,17,44.62,56.87,291.08,-0.348,-0.099,1.021,-1.29,-1.36,0.00,0.00,1.29,1.36,0.00,10.52,1.37,-34.10,-55.51,0.00,-3.12,-2.27,-350.00,1500,1100,1100,1500,1303,1504,1504,10180,762
135903,17,50.05,42.05,293.06,0.363,-0.061,0.535,-1.34,2.48,0.00,0.00,1.34,-2.48,0.00,10.70,-12.06,-39.35,-54.11,0.00,-4.12,2.74,-350.00,1500,1100,1100,1500,1305,1500,1509,10180,762
135915,17,47.43,53.48,296.09,-0.135,0.081,0.854,-0.67,1.36,0.00,0.00,0.67,-1.36,0.00,8.37,-8.16,-39.06,-61.64,0.00,-1.57,-4.20,-350.00,1500,1100,1100,1500,1305,1500,1509,10171,762
135927,17,52.59,45.54,299.60,-0.217,-0.076,0.926,-0.99,-0.41,0.00,0.00,0.99,0.41,0.00,9.52,-1.98,-43.07,-47.52,0.00,-3.03,-0.88,-350.00,1500,1100,1100,1500,1306,1500,1508,10192,762
135939,17,51.97,52.36,301.10,0.136,-0.088,0.756,-0.76,-0.27,0.00,0.00,0.76,0.27,0.00,8.70,-2.47,-43.27,-54.83,0.00,-2.07,-3.64,-350.00,1500,1100,1100,1500,1306,1500,1508,10167,762
135951,17,50.36,49.98,305.58,0.082,0.051,0.828,0.06,1.62,0.00,0.00,-0.06,-1.62,0.00,5.84,-9.07,-44.52,-59.04,0.00,-1.11,-2.89,-350.00,1500,1100,1100,1500,1306,1500,1508,10155,762
135963,17,52.55,37.46,308.72,-0.159,-0.057,0.835,0.26,3.00,0.00,0.00,-0.26,-3.00,0.00,5.14,-13.94,-47.40,-51.40,0.00,-1.97,0.43,-350.00,1500,1100,1100,1500,1306,1500,1508,10151,762
135975,17,53.39,54.81,310.08,-0.251,-0.043,1.057,0.40,-0.68,0.00,0.00,-0.40,0.68,0.00,4.66,-1.08,-48.74,-55.89,0.00,-2.12,-6.77,-350.00,1500,1100,1100,1500,1306,1500,1508,10163,762
135987,17,52.60,42.05,313.64,0.024,0.031,0.906,0.94,-0.97,0.00,0.00,-0.94,0.97,0.00,2.73,-0.06,-49.87,-42.11,0.00,-1.53,-0.11,-350.00,1500,1100,1100,1500,1306,1499,1508,10151,762
135999,17,47.73,23.13,314.79,-0.155,0.348,1.070,3.09,1.51,0.00,0.00,-3.09,-1.51,0.00,-4.79,-8.74,-52.52,-31.87,0.00,0.35,5.16,-350.00,1500,1100,1100,1500,1306,1499,1508,10167,762
136011,17,35.67,-10.05,311.29,-0.699,0.039,2.035,3.61,-2.33,0.00,0.00,-3.61,2.33,0.00,-6.66,4.72,-42.33,14.77,0.00,2.26,13.78,-350.00,1500,1100,1100,1500,1306,1500,1508,10167,762
136023,17,42.78,-11.52,305.78,-0.264,0.152,1.416,4.61,-5.85,0.00,0.00,-4.61,5.85,0.00,-10.18,17.06,-52.95,28.58,0.00,-2.99,8.21,-350.00,1500,1100,1100,1500,1307,1500,1508,10171,762
136035,17,45.11,-14.43,299.98,-0.064,0.171,0.824,4.47,-5.82,0.00,0.00,-4.47,5.82,0.00,-9.75,17.02,-54.86,31.45,0.00,-3.60,3.64,-350.00,1500,1100,1100,1500,1307,1500,1508,10167,762
136047,17,36.01,-26.22,298.52,-0.194,-0.212,1.154,4.87,-4.26,0.00,0.00,-4.87,4.26,0.00,-11.19,11.63,-47.20,37.85,0.00,1.20,5.58,-350.00,1500,1100,1100,1500,1307,1500,1508,10171,763
136059,17,29.05,-32.64,297.51,0.321,-0.107,0.702,5.89,-1.52,0.00,0.00,-5.89,1.52,0.00,-14.80,2.05,-43.86,34.69,0.00,2.15,6.42,-350.00,1500,1100,1100,1500,1307,1500,1508,10163,763
136071,17,2.84,10.32,297.22,-0.179,0.015,1.020,5.95,-3.41,0.00,0.00,-5.95,3.41,0.00,-15.10,8.69,-17.94,-1.63,0.00,10.03,-12.16,-350.00,1500,1100,1100,1500,1307,1500,1508,10167,763
136083,17,-0.93,-9.36,299.96,0.193,-0.137,0.670,5.79,0.67,0.00,0.00,-5.79,-0.67,0.00,-14.60,-5.59,-13.67,3.77,0.00,7.39,-0.46,-350.00,1500,1100,1100,1500,1309,1500,1508,10155,763
136095,17,-1.87,-12.90,302.27,0.543,-0.028,0.411,5.81,6.16,0.00,0.00,-5.81,-6.16,0.00,-14.73,-24.83,-12.85,-11.93,0.00,4.28,0.98,-350.00,1500,1100,1100,1500,1309,1500,1508,10142,763
136107,17,-11.00,10.74,304.05,-0.254,0.123,1.067,4.95,2.64,0.00,0.00,-4.95,-2.64,0.00,-11.75,-12.55,-0.75,-23.29,0.00,5.85,-8.86,-350.00,1500,1100,1100,1500,1316,1500,1508,10151,763
136119,17,-11.78,8.31,307.83,-0.298,-0.036,0.986,3.86,-1.08,0.00,0.00,-3.86,1.08,0.00,-7.98,0.49,3.80,-7.82,0.00,4.20,-3.20,-350.00,1500,1100,1100,1500,1316,1500,1508,10167,763
136131,17,-14.82,18.40,309.69,0.278,0.043,0.639,3.89,-0.44,0.00,0.00,-3.89,0.44,0.00,-8.12,-1.75,6.69,-20.15,0.00,3.59,-4.86,-350.00,1500,1100,1100,1500,1316,1500,1508,10167,763
136143,17,-20.25,11.48,313.23,0.018,0.090,0.750,4.54,3.46,0.00,0.00,-4.54,-3.46,0.00,-10.43,-15.42,9.82,-26.90,0.00,4.29,-1.80,-350.00,1500,1100,1100,1500,1320,1500,1508,10167,762
136155,17,-22.98,20.20,316.52,-0.128,-0.024,0.872,3.63,2.98,0.00,0.00,-3.63,-2.98,0.00,-7.30,-13.78,15.67,-33.98,0.00,3.93,-5.44,-350.00,1500,1100,1100,1500,1320,1500,1508,10163,762
136167,17,-24.93,39.00,317.43,-0.227,-0.009,1.006,2.46,-0.35,0.00,0.00,-2.46,0.35,0.00,-3.23,-2.15,21.70,-41.15,0.00,3.59,-10.54,-350.00,1500,1100,1100,1500,1321,1500,1508,10167,762
136179,17,-24.81,32.65,321.60,0.045,0.020,0.842,2.40,-0.68,0.00,0.00,-2.40,0.68,0.00,-3.04,-0.97,21.77,-33.63,0.00,2.25,-4.11,-350.00,1500,1100,1100,1500,1321,1500,1508,10163,762
136191,17,-28.11,28.20,324.65,0.297,0.114,0.613,2.71,4.44,0.00,0.00,-2.71,-4.44,0.00,-4.15,-18.90,23.96,-47.09,0.00,2.97,-2.66,-350.00,1500,1100,1100,1500,1321,1500,1508,10171,762
136203,17,-28.23,35.10,328.19,-0.087,-0.036,0.868,2.26,4.99,0.00,0.00,-2.26,-4.99,0.00,-2.61,-20.88,25.62,-55.98,0.00,2.55,-5.79,-350.00,1500,1100,1100,1500,1322,1500,1508,10171,762
136215,17,-5.56,29.06,325.64,-0.413,0.051,1.450,0.72,0.08,0.00,0.00,-0.72,-0.08,0.00,2.78,-3.72,8.34,-32.77,0.00,-6.73,-0.55,-350.00,1500,1100,1100,1500,1322,1500,1508,10167,762
136227,17,-13.29,29.98,328.95,0.080,0.082,0.811,0.76,0.54,0.00,0.00,-0.76,-0.54,0.00,2.64,-5.32,15.93,-35.30,0.00,-0.31,-1.25,-350.00,1500,1100,1100,1500,1327,1500,1508,10159,762
136239,17,-11.87,27.17,333.48,-0.160,-0.051,0.934,1.24,1.24,0.00,0.00,-1.24,-1.24,0.00,0.96,-7.79,12.82,-34.96,0.00,0.16,-1.36,-350.00,1500,1100,1100,1500,1327,1500,1508,10155,762
136251,17,-10.14,17.49,334.84,0.150,-0.120,0.839,0.69,3.95,0.00,0.00,-0.69,-3.95,0.00,2.86,-17.29,13.00,-34.78,0.00,-0.37,1.34,-350.00,1500,1100,1100,1500,1327,1500,1508,10142,767
136263,17,-10.57,30.50,336.19,-0.164,0.231,0.941,1.18,0.76,0.00,0.00,-1.18,-0.76,0.00,1.14,-6.14,11.71,-36.64,0.00,0.53,-4.16,-350.00,1500,1100,1100,1500,1331,1500,1509,10151,767
136275,17,-6.61,28.81,338.41,-0.240,-0.130,1.036,-0.03,-2.35,0.00,0.00,0.03,2.35,0.00,5.36,4.73,11.97,-24.08,0.00,-0.21,-2.19,-350.00,1500,1100,1100,1500,1331,1500,1509,10146,767
136287,17,1.67,9.09,340.79,0.320,0.144,0.632,1.38,0.31,0.00,0.00,-1.38,-0.31,0.00,0.42,-4.54,-1.25,-13.63,0.00,-3.06,5.75,-350.00,1500,1100,1100,1500,1333,1500,1508,10155,767
136299,17,-3.81,20.74,341.52,-0.354,-0.000,1.051,0.78,-1.19,0.00,0.00,-0.78,1.19,0.00,2.53,0.70,6.34,-20.04,0.00,0.78,-2.29,-350.00,1500,1100,1100,1500,1333,1500,1508,10159,767
136311,17,-5.76,17.42,346.63,0.053,-0.077,0.741,0.31,-1.75,0.00,0.00,-0.31,1.75,0.00,4.16,2.67,9.92,-14.76,0.00,1.79,0.09,-350.00,1500,1100,1100,1500,1333,1500,1508,10142,767
136323,17,-10.88,27.17,348.95,-0.068,0.082,0.905,0.72,-1.86,0.00,0.00,-0.72,1.86,0.00,2.71,3.08,13.59,-24.09,0.00,3.32,-4.58,-350.00,1500,1100,1100,1500,1334,1500,1508,10134,767
136335,17,-12.87,18.87,351.69,-0.043,-0.099,0.852,0.07,-0.79,0.00,0.00,-0.07,0.79,0.00,5.00,-0.66,17.87,-19.53,0.00,3.08,-0.42,-350.00,1500,1100,1100,1500,1334,1500,1508,10134,767
136347,17,-13.63,18.39,355.86,-0.009,0.041,0.783,0.29,-1.25,0.00,0.00,-0.29,1.25,0.00,4.22,0.95,17.85,-17.44,0.00,2.63,-0.45,-350.00,1500,1100,1100,1500,1342,1500,1508,10126,762
136359,17,-20.04,39.26,357.16,-0.521,-0.080,1.181,-0.41,-5.47,0.00,0.00,0.41,5.47,0.00,6.67,15.75,26.71,-23.51,0.00,4.55,-8.92,-350.00,1500,1100,1100,1500,1342,1500,1508,10134,762
136371,17,-15.77,10.12,360.49,0.160,-0.100,0.745,-0.67,-3.16,0.00,0.00,0.67,3.16,0.00,7.61,7.72,23.39,-2.40,0.00,1.69,5.55,-350.00,1500,1100,1100,1500,1345,1500,1508,10146,762
136383,17,-18.07,19.65,363.00,0.035,-0.041,0.697,-0.19,-2.40,0.00,0.00,0.19,2.40,0.00,5.92,5.10,23.99,-14.56,0.00,2.24,-1.29,-350.00,1500,1100,1100,1500,1346,1500,1508,10146,762
136395,17,-10.76,46.11,360.84,-0.417,-0.137,1.411,-1.50,-4.84,0.00,0.00,1.50,4.84,0.00,10.52,13.68,21.29,-32.42,0.00,-0.50,-11.47,-350.00,1500,1100,1100,1500,1346,1500,1508,10155,762
136407,17,-2.11,29.18,360.21,-0.134,-0.226,0.723,-2.91,-4.64,0.00,0.00,2.91,4.64,0.00,15.47,13.00,17.57,-16.18,0.00,-2.39,-1.01,-350.00,1500,1100,1100,1500,1346,1500,1508,10155,762
136419,17,-1.46,44.22,361.91,0.075,0.010,0.737,-2.02,-5.53,0.00,0.00,2.02,5.53,0.00,12.37,16.18,13.83,-28.04,0.00,-1.04,-5.61,-350.00,1500,1100,1100,1500,1346,1500,1508,10151,762
136431,17,-2.09,39.44,365.74,-0.407,-0.022,1.092,-2.48,-4.60,0.00,0.00,2.48,4.60,0.00,14.02,12.96,16.11,-26.47,0.00,0.42,-3.91,-350.00,1500,1100,1100,1500,1346,1500,1508,10138,762
136443,17,-1.27,29.10,366.71,-0.298,-0.230,0.742,-3.46,-6.36,0.00,0.00,3.46,6.36,0.00,17.47,19.16,18.75,-9.93,0.00,0.57,1.08,-350.00,1500,1100,1100,1500,1347,1500,1508,10146,762
136455,17,-2.79,44.78,369.04,0.107,0.092,0.821,-2.79,-6.16,0.00,0.00,2.79,6.16,0.00,15.14,18.53,17.93,-26.25,0.00,1.60,-5.20,-350.00,1500,1100,1100,1500,1347,1500,1508,10151,762
136467,17,-2.74,23.69,372.79,-0.240,-0.048,0.799,-2.42,-2.90,0.00,0.00,2.42,2.90,0.00,13.88,7.16,16.62,-16.53,0.00,1.69,2.25,-350.00,1500,1100,1100,1500,1347,1500,1508,10151,762
136479,17,-1.87,28.90,373.95,-0.096,-0.080,0.774,-3.10,-4.29,0.00,0.00,3.10,4.29,0.00,16.28,12.06,18.15,-16.83,0.00,1.43,-0.94,-350.00,1500,1100,1100,1500,1347,1500,1508,10121,762
136491,17,-2.50,29.62,375.24,-0.191,-0.023,0.914,-3.55,-4.49,0.00,0.00,3.55,4.49,0.00,17.88,12.81,20.39,-16.82,0.00,1.97,-2.01,-350.00,1500,1100,1100,1500,1347,1500,1508,10138,762
136503,17,-3.14,30.91,377.76,-0.358,-0.147,0.848,-3.52,-7.26,0.00,0.00,3.52,7.26,0.00,17.83,22.55,20.97,-8.36,0.00,2.39,-2.13,-350.00,1500,1100,1100,1500,1347,1500,1509,10151,762
136515,17,-3.07,33.65,379.68,0.138,-0.037,0.689,-3.51,-6.27,0.00,0.00,3.51,6.27,0.00,17.81,19.16,20.88,-14.48,0.00,2.18,-2.56,-350.00,1500,1100,1100,1500,1347,1500,1509,10146,762
136527,17,-2.90,21.44,381.46,-0.269,-0.212,0.825,-3.18,-2.67,0.00,0.00,3.18,2.67,0.00,16.70,6.60,19.60,-14.83,0.00,2.01,1.05,-350.00,1500,1100,1100,1500,1347,1500,1508,10151,762
136539,17,-3.16,44.73,382.74,-0.097,-0.214,0.802,-4.14,-5.84,0.00,0.00,4.14,5.84,0.00,20.09,17.74,23.26,-26.99,0.00,1.69,-7.15,-350.00,1500,1100,1100,1500,1347,1500,1508,10146,762
136551,17,-7.85,48.83,384.00,-0.267,-0.133,0.988,-5.38,-6.86,0.00,0.00,5.38,6.86,0.00,24.47,21.37,32.31,-27.45,0.00,3.73,-6.49,-350.00,1500,1100,1100,1500,1347,1500,1508,10167,762
136563,17,-1.47,27.91,388.95,0.117,-0.196,0.624,-5.18,-3.86,0.00,0.00,5.18,3.86,0.00,23.84,10.94,25.31,-16.98,0.00,0.21,3.24,-350.00,1500,1100,1100,1500,1347,1500,1508,10167,762
136575,17,-5.21,56.75,388.40,-0.236,-0.059,0.971,-4.55,-5.79,0.00,0.00,4.55,5.79,0.00,21.68,17.73,26.89,-39.01,0.00,1.60,-10.22,-350.00,1500,1100,1100,1500,1347,1500,1508,10159,762
136587,17,-4.66,43.74,392.65,-0.215,-0.045,0.820,-5.55,-3.30,0.00,0.00,5.55,3.30,0.00,25.22,9.05,29.87,-34.70,0.00,1.65,-3.04,-350.00,1500,1100,1100,1500,1347,1500,1508,10159,762
136599,17,-1.64,42.86,393.58,-0.240,-0.218,0.838,-6.12,-4.80,0.00,0.00,6.12,4.80,0.00,27.26,14.34,28.90,-28.52,0.00,0.41,-2.27,-350.00,1500,1100,1100,1500,1347,1500,1508,10159,762
136611,17,-1.09,59.11,394.91,0.165,-0.045,0.771,-6.33,-3.62,0.00,0.00,6.33,3.62,0.00,28.06,10.26,29.15,-48.85,0.00,0.21,-8.37,-350.00,1500,1100,1100,1500,1347,1500,1508,10146,762
136623,17,3.55,46.35,396.39,-0.195,-0.020,0.850,-6.56,-0.17,0.00,0.00,6.56,0.17,0.00,28.94,-1.81,25.40,-48.16,0.00,-0.56,-2.82,-350.00,1500,1100,1100,1500,1347,1500,1509,10138,762
136635,17,14.17,59.94,395.06,-0.054,-0.241,0.795,-7.81,-1.32,0.00,0.00,7.81,1.32,0.00,33.37,2.22,19.21,-57.72,0.00,-3.63,-6.61,-350.00,1500,1100,1100,1500,1347,1500,1509,10126,762
136647,17,12.95,70.16,397.13,0.002,0.030,0.838,-6.96,-1.48,0.00,0.00,6.96,1.48,0.00,30.48,2.78,17.53,-67.39,0.00,-0.95,-8.40,-350.00,1500,1100,1100,1500,1347,1500,1508,10138,762
136659,17,17.88,61.75,399.54,-0.392,-0.084,0.977,-6.61,-2.84,0.00,0.00,6.61,2.84,0.00,29.30,7.58,11.43,-54.16,0.00,-1.38,-3.92,-350.00,1500,1100,1100,1500,1347,1500,1508,10138,762
136671,17,19.58,65.09,401.14,0.212,-0.096,0.696,-6.39,-2.22,0.00,0.00,6.39,2.22,0.00,28.60,5.44,9.02,-59.65,0.00,-0.91,-3.85,-350.00,1500,1100,1100,1500,1347,1500,1508,10138,762
136683,17,22.89,56.81,403.36,-0.184,-0.064,0.954,-6.36,-0.30,0.00,0.00,6.36,0.30,0.00,28.57,-1.27,5.68,-58.08,0.00,-1.05,-1.69,-350.00,1500,1100,1100,1500,1347,1500,1508,10134,762
136695,17,25.23,64.51,405.29,-0.209,-0.126,1.029,-5.99,-1.76,0.00,0.00,5.99,1.76,0.00,27.34,3.85,2.11,-60.66,0.00,-0.94,-5.36,-350.00,1500,1100,1100,1500,1347,1500,1508,10134,762
136707,17,26.04,63.72,408.48,0.036,-0.007,0.776,-5.42,-1.11,0.00,0.00,5.42,1.11,0.00,25.37,1.59,-0.66,-62.13,0.00,0.01,-4.25,-350.00,1500,1100,1100,1500,1347,1500,1508,10130,762
136719,17,31.49,59.39,410.02,-0.289,-0.246,1.066,-4.90,-1.67,0.00,0.00,4.90,1.67,0.00,23.60,3.55,-7.89,-55.84,0.00,-1.62,-3.03,-350.00,1500,1100,1100,1500,1347,1500,1508,10142,762
136731,17,33.01,58.47,412.24,0.135,-0.090,0.802,-4.84,-1.15,0.00,0.00,4.84,1.15,0.00,23.45,1.74,-9.56,-56.73,0.00,-1.29,-2.18,-350.00,1500,1100,1100,1500,1347,1500,1508,10146,762
136743,17,32.19,61.76,415.94,-0.235,-0.056,0.808,-3.99,-1.66,0.00,0.00,3.99,1.66,0.00,20.52,3.54,-11.68,-58.22,0.00,0.08,-4.58,-350.00,1500,1100,1100,1500,1347,1500,1508,10146,762
136755,17,37.20,62.74,418.33,-0.325,-0.280,1.104,-4.27,-4.81,0.00,0.00,4.27,4.81,0.00,21.52,14.61,-15.68,-48.13,0.00,-1.30,-3.69,-350.00,1500,1100,1100,1500,1347,1500,1508,10142,762
136767,17,40.46,51.72,420.66,0.308,-0.135,0.576,-3.90,-1.00,0.00,0.00,3.90,1.00,0.00,20.26,1.30,-20.20,-50.42,0.00,-1.85,0.71,-350.00,1500,1100,1100,1500,1347,1500,1508,10134,762
136779,17,37.95,60.27,423.62,-0.193,-0.049,0.862,-2.86,-1.59,0.00,0.00,2.86,1.59,0.00,16.69,3.39,-21.26,-56.89,0.00,0.16,-4.38,-350.00,1500,1100,1100,1500,1347,1500,1508,10130,762
136791,17,43.36,56.09,427.00,-0.242,-0.189,0.986,-3.00,-2.87,0.00,0.00,3.00,2.87,0.00,17.19,7.89,-26.17,-48.20,0.00,-1.76,-2.34,-350.00,1500,1100,1100,1500,1347,1500,1508,10134,762
136803,17,45.33,72.34,425.38,-0.443,0.305,1.388,-0.85,-4.26,0.00,0.00,0.85,4.26,0.00,9.68,12.77,-35.65,-59.57,0.00,-2.13,-9.08,-350.00,1500,1100,1100,1500,1348,1500,1508,10126,762
136815,17,-2.90,43.29,425.42,-0.204,-0.162,1.886,1.45,-5.72,0.00,0.00,-1.45,5.72,0.00,1.60,17.92,4.50,-25.37,0.00,14.05,3.03,-350.00,1500,1100,1100,1500,1348,1500,1508,10142,762
136827,17,-3.98,-0.55,424.96,-0.051,-0.092,0.303,-0.28,-2.00,0.00,0.00,0.28,2.00,0.00,7.65,4.94,11.63,5.50,0.00,7.88,12.68,-350.00,1500,1100,1100,1500,1348,1500,1508,10134,762
136839,17,-7.74,10.42,427.41,0.039,-0.013,0.742,0.82,-3.00,0.00,0.00,-0.82,3.00,0.00,3.79,8.45,11.53,-1.96,0.00,4.60,0.79,-350.00,1500,1100,1100,1500,1348,1500,1508,10126,762
136851,17,-0.96,-9.46,428.39,-0.141,-0.182,1.521,-0.37,-4.17,0.00,0.00,0.37,4.17,0.00,7.96,12.58,8.91,22.04,0.00,-1.24,8.80,-350.00,1500,1100,1100,1500,1348,1500,1508,10126,762
136863,17,4.76,-15.66,430.27,-0.079,0.060,0.382,1.34,-4.66,0.00,0.00,-1.34,4.66,0.00,1.96,14.35,-2.80,30.01,0.00,-1.76,5.34,-350.00,1500,1100,1100,1500,1351,1500,1508,10126,762
136875,17,6.67,-7.30,430.69,-0.383,0.046,0.991,1.38,-8.48,0.00,0.00,-1.38,8.48,0.00,1.82,27.80,-4.86,35.10,0.00,-0.90,0.00,-350.00,1500,1100,1100,1500,1351,1500,1508,10138,762
136887,17,7.19,-17.17,433.75,-0.076,-0.091,0.954,0.98,-7.98,0.00,0.00,-0.98,7.98,0.00,3.20,26.14,-3.98,43.31,0.00,-0.33,4.26,-350.00,1500,1100,1100,1500,1351,1500,1508,10121,762
136899,17,-3.07,8.54,436.23,-0.130,0.191,0.646,2.47,-10.91,0.00,0.00,-2.47,10.91,0.00,-2.04,36.48,1.03,27.94,0.00,3.84,-5.78,-350.00,1500,1100,1100,1500,1351,1500,1508,10130,762
136911,17,2.96,3.68,435.94,-0.098,-0.036,1.069,0.31,-6.91,0.00,0.00,-0.31,6.91,0.00,5.53,22.54,2.57,18.86,0.00,0.42,-3.36,-350.00,1500,1100,1100,1500,1353,1500,1508,10134,762
136923,17,8.81,1.86,435.75,0.091,-0.154,0.730,0.12,-3.66,0.00,0.00,-0.12,3.66,0.00,6.19,11.22,-2.62,9.36,0.00,-1.19,-0.93,-350.00,1500,1100,1100,1500,1354,1500,1508,10134,762
136935,17,16.24,50.28,433.92,-0.267,0.133,0.961,0.19,-7.43,0.00,0.00,-0.19,7.43,0.00,5.96,24.49,-10.28,-25.79,0.00,-3.01,-17.29,-350.00,1500,1100,1100,1500,1354,1500,1508,10134,762
136947,17,14.28,27.46,437.38,-0.132,-0.054,0.980,0.30,-4.46,0.00,0.00,-0.30,4.46,0.00,5.54,14.13,-8.74,-13.33,0.00,-0.55,-2.89,-350.00,1500,1100,1100,1500,1354,1500,1508,10134,763
136959,17,17.20,22.25,439.16,0.227,-0.045,0.584,0.07,0.02,0.00,0.00,-0.07,-0.02,0.00,6.35,-1.54,-10.85,-23.79,0.00,-0.91,-0.41,-350.00,1500,1100,1100,1500,1354,1500,1508,10134,763
136971,17,16.50,41.20,441.45,-0.321,0.113,1.050,0.75,-3.30,0.00,0.00,-0.75,3.30,0.00,3.96,10.11,-12.54,-31.09,0.00,0.04,-8.24,-350.00,1500,1100,1100,1500,1354,1500,1508,10134,763
136983,17,17.13,35.55,444.77,-0.421,-0.011,1.087,0.56,-6.04,0.00,0.00,-0.56,6.04,0.00,4.64,19.72,-12.49,-15.83,0.00,0.31,-3.00,-350.00,1500,1100,1100,1500,1354,1500,1508,10130,763
136995,17,18.11,31.29,447.80,0.324,0.022,0.560,0.98,-3.27,0.00,0.00,-0.98,3.27,0.00,3.15,10.09,-14.96,-21.20,0.00,-0.06,-0.29,-350.00,1500,1100,1100,1500,1354,1500,1508,10151,763
137007,17,16.62,23.45,451.10,-0.030,0.051,0.816,2.15,1.22,0.00,0.00,-2.15,-1.22,0.00,-0.96,-5.62,-17.58,-29.07,0.00,0.67,0.27,-350.00,1500,1100,1100,1500,1355,1500,1508,10159,763
137019,17,16.92,35.34,454.09,-0.325,-0.069,0.995,1.51,-2.12,0.00,0.00,-1.51,2.12,0.00,1.26,6.07,-15.66,-29.28,0.00,0.49,-5.27,-350.00,1500,1100,1100,1500,1355,1500,1508,10151,763
137031,17,15.91,44.70,455.90,-0.197,-0.005,0.942,1.04,-4.83,0.00,0.00,-1.04,4.83,0.00,2.89,15.61,-13.01,-29.08,0.00,1.08,-6.88,-350.00,1500,1100,1100,1500,1355,1500,1508,10142,763
137043,17,15.25,25.96,460.24,0.093,-0.054,0.782,2.06,-2.78,0.00,0.00,-2.06,2.78,0.00,-0.67,8.45,-15.93,-17.51,0.00,0.79,2.07,-350.00,1500,1100,1100,1500,1355,1500,1508,10151,762
137055,17,12.54,32.08,462.36,-0.062,0.029,0.857,2.41,-2.49,0.00,0.00,-2.41,2.49,0.00,-1.91,7.48,-14.45,-24.60,0.00,1.36,-2.77,-350.00,1500,1100,1100,1500,1355,1500,1508,10142,762
137067,17,5.62,41.07,464.52,-0.418,-0.037,1.015,2.03,-4.52,0.00,0.00,-2.03,4.52,0.00,-0.63,14.61,-6.25,-26.47,0.00,3.80,-6.36,-350.00,1500,1100,1100,1500,1355,1500,1508,10151,762
137079,17,7.74,33.88,466.98,-0.023,-0.141,0.853,1.44,-5.93,0.00,0.00,-1.44,5.93,0.00,1.42,19.61,-6.32,-14.27,0.00,1.74,-0.47,-350.00,1500,1100,1100,1500,1355,1500,1508,10134,762
137091,17,4.49,39.41,469.61,0.136,0.019,0.668,2.33,-3.73,0.00,0.00,-2.33,3.73,0.00,-1.72,11.94,-6.21,-27.47,0.00,1.79,-3.64,-350.00,1500,1100,1100,1500,1357,1500,1510,10126,762
137103,17,-2.52,45.50,472.20,-0.371,0.029,0.964,2.28,-3.49,0.00,0.00,-2.28,3.49,0.00,-1.55,11.13,0.98,-34.37,0.00,4.00,-6.26,-350.00,1500,1100,1100,1500,1361,1500,1508,10134,762
137115,17,-0.24,45.74,474.14,-0.300,-0.223,0.835,0.77,-6.17,0.00,0.00,-0.77,6.17,0.00,3.70,20.57,3.94,-25.17,0.00,1.88,-4.04,-350.00,1500,1100,1100,1500,1361,1500,1508,10126,762
137127,17,-4.92,62.67,476.56,0.009,0.045,0.795,1.23,-6.83,0.00,0.00,-1.23,6.83,0.00,2.09,22.96,7.01,-39.71,0.00,2.77,-9.01,-350.00,1500,1100,1100,1500,1361,1500,1508,10130,762
137139,17,-4.85,48.17,480.75,-0.144,0.093,0.820,1.52,-3.50,0.00,0.00,-1.52,3.50,0.00,1.07,11.33,5.92,-36.84,0.00,1.88,-2.04,-350.00,1500,1100,1100,1500,1361,1500,1508,10134,762
137151,17,-6.11,47.23,482.99,-0.244,-0.107,0.787,0.95,-4.28,0.00,0.00,-0.95,4.28,0.00,3.06,14.09,9.16,-33.15,0.00,1.85,-1.95,-350.00,1500,1100,1100,1500,1363,1500,1508,10134,762
137163,17,-5.97,68.70,484.16,-0.282,0.040,1.043,0.27,-7.06,0.00,0.00,-0.27,7.06,0.00,5.44,23.87,11.40,-44.82,0.00,1.59,-9.59,-350.00,1500,1100,1100,1500,1364,1500,1508,10134,762
137175,17,-0.84,52.96,486.42,-0.380,-0.006,0.936,-0.18,-8.29,0.00,0.00,0.18,8.29,0.00,7.00,28.27,7.83,-24.69,0.00,-0.67,-0.79,-350.00,1500,1100,1100,1500,1364,1500,1508,10126,762
137187,17,10.78,55.24,474.65,0.361,-0.538,0.904,-0.08,-6.69,0.00,0.00,0.08,6.69,0.00,6.65,22.75,-4.13,-32.49,0.00,-1.65,-4.73,-350.00,1500,1100,1100,1500,1368,1500,1508,10121,762
137199,17,43.35,52.70,459.50,-0.156,0.066,0.562,1.87,3.46,0.00,0.00,-1.87,-3.46,0.00,-0.21,-12.82,-43.56,-65.52,0.00,-12.46,-9.59,-350.00,1500,1100,1100,1500,1368,1500,1508,10142,762
137211,17,41.15,45.79,459.74,-0.767,0.248,1.185,0.20,1.93,0.00,0.00,-0.20,-1.93,0.00,5.63,-7.49,-35.53,-53.28,0.00,-6.65,-7.44,-350.00,1500,1100,1100,1500,1368,1500,1508,10138,762
137223,17,35.82,30.92,461.24,-0.018,-0.025,0.638,0.05,-0.03,0.00,0.00,-0.05,0.03,0.00,6.17,-0.65,-29.66,-31.57,0.00,-1.19,-0.23,-350.00,1500,1100,1100,1500,1369,1500,1509,10138,762
137235,17,37.25,12.98,464.64,-0.182,-0.026,0.574,0.71,-1.82,0.00,0.00,-0.71,1.82,0.00,3.84,5.65,-33.42,-7.33,0.00,-1.23,5.70,-350.00,1500,1100,1100,1500,1369,1500,1509,10138,762
137247,17,35.05,9.74,466.49,-0.114,-0.143,0.904,-0.17,-1.93,0.00,0.00,0.17,1.93,0.00,6.93,6.05,-28.12,-3.69,0.00,-0.70,3.87,-350.00,1500,1100,1100,1500,1369,1500,1509,10142,763
137259,17,25.78,28.72,469.19,-0.448,-0.052,0.897,0.14,-6.16,0.00,0.00,-0.14,6.16,0.00,5.85,20.89,-19.92,-7.84,0.00,2.92,-5.05,-350.00,1500,1100,1100,1500,1369,1500,1509,10151,763
137271,17,25.31,19.82,473.00,-0.246,-0.103,0.819,0.23,-8.92,0.00,0.00,-0.23,8.92,0.00,5.52,30.63,-19.78,10.81,0.00,1.83,0.06,-350.00,1500,1100,1100,1500,1371,1500,1508,10146,763
137283,17,23.75,6.53,473.72,0.250,-0.090,0.654,0.56,-4.55,0.00,0.00,-0.56,4.55,0.00,4.36,15.37,-19.39,8.84,0.00,1.28,3.64,-350.00,1500,1100,1100,1500,1371,1500,1508,10151,763
137295,17,17.89,19.97,475.27,-0.469,-0.102,0.986,0.14,-7.34,0.00,0.00,-0.14,7.34,0.00,5.81,25.21,-12.07,5.24,0.00,2.79,-3.64,-350.00,1500,1100,1100,1500,1371,1500,1508,10146,763
137307,17,20.09,9.00,477.01,-0.120,-0.017,0.876,-0.09,-8.75,0.00,0.00,0.09,8.75,0.00,6.63,30.21,-13.46,21.21,0.00,0.56,2.45,-350.00,1500,1100,1100,1500,1376,1500,1508,10134,763
137319,17,15.40,13.52,479.45,-0.118,-0.092,0.824,0.05,-9.16,0.00,0.00,-0.05,9.16,0.00,6.13,31.76,-9.27,18.25,0.00,1.73,-0.54,-350.00,1500,1100,1100,1500,1376,1500,1508,10134,763
137331,17,13.61,13.70,480.52,-0.158,-0.004,0.975,-0.08,-9.05,0.00,0.00,0.08,9.05,0.00,6.60,31.46,-7.01,17.76,0.00,1.51,-0.76,-350.00,1500,1100,1100,1500,1378,1500,1508,10134,763
137343,17,12.71,3.45,483.81,-0.159,-0.051,0.735,-0.64,-6.69,0.00,0.00,0.64,6.69,0.00,8.55,23.27,-4.16,19.82,0.00,1.10,2.04,-350.00,1500,1100,1100,1500,1380,1500,1508,10134,762
137355,17,8.85,26.99,484.02,-0.384,-0.068,1.011,-0.80,-10.06,0.00,0.00,0.80,10.06,0.00,9.14,35.15,0.28,8.16,0.00,2.10,-7.32,-350.00,1500,1100,1100,1500,1380,1500,1508,10134,762
137367,17,10.42,16.61,486.60,0.033,-0.036,0.854,-1.33,-7.96,0.00,0.00,1.33,7.96,0.00,10.99,27.87,0.58,11.26,0.00,0.64,-1.25,-350.00,1500,1100,1100,1500,1391,1500,1509,10121,762
137379,17,5.02,9.39,491.46,0.304,0.144,0.370,1.86,-0.73,0.00,0.00,-1.86,0.73,0.00,-0.19,2.62,-5.21,-6.77,0.00,2.22,-0.01,-350.00,1500,1100,1100,1500,1391,1500,1509,10134,762
137391,17,6.38,20.68,491.65,-0.678,-0.098,1.161,0.19,-4.61,0.00,0.00,-0.19,4.61,0.00,5.66,16.23,-0.72,-4.45,0.00,1.21,-5.74,-350.00,1500,1100,1100,1500,1392,1500,1509,10134,762
137403,17,10.01,5.28,493.60,0.161,-0.078,0.655,-0.69,-3.73,0.00,0.00,0.69,3.73,0.00,8.75,13.17,-1.26,7.89,0.00,-0.51,2.98,-350.00,1500,1100,1100,1500,1392,1500,1508,10134,762
137415,17,3.67,30.51,496.91,-0.296,0.117,0.910,-0.22,-6.77,0.00,0.00,0.22,6.77,0.00,7.11,23.89,3.44,-6.63,0.00,2.44,-8.00,-350.00,1500,1100,1100,1500,1392,1500,1508,10138,762
137427,17,5.98,19.12,499.80,-0.311,-0.059,1.017,-0.84,-7.88,0.00,0.00,0.84,7.88,0.00,9.27,27.84,3.30,8.73,0.00,1.08,-1.08,-350.00,1500,1100,1100,1500,1392,1500,1508,10121,762
