time_ms,flags,gyro_x,gyro_y,gyro_z,accel_x,accel_y,accel_z,roll,pitch,angle_sp_roll,angle_sp_pitch,angle_err_roll,angle_err_pitch,angle_i_roll,rate_sp_roll,rate_sp_pitch,rate_err_roll,rate_err_pitch,rate_i_roll,pid_roll,pid_pitch,pid_yaw,m1,m2,m3,m4,rc_thr,rc_roll,rc_pitch,battery_mv,loop_us
89419,9,0.11,-0.06,-0.06,0.001,-0.053,0.888,-1.86,-0.21,0.00,0.00,1.86,0.21,0.00,6.50,0.72,6.38,0.78,0.00,0.22,0.04,0.54,1000,1000,1000,1000,1026,1482,1505,10633,760
89431,9,0.09,-0.03,-0.07,0.001,-0.053,0.889,-1.87,-0.20,0.00,0.00,1.87,0.20,0.00,6.54,0.71,6.45,0.74,0.00,0.25,0.03,0.58,1000,1000,1000,1000,1026,1482,1507,10633,760
89443,9,0.05,-0.03,-0.10,0.000,-0.052,0.889,-1.87,-0.20,0.00,0.00,1.87,0.20,0.00,6.54,0.71,6.48,0.74,0.00,0.27,0.03,0.70,1100,1100,1100,1100,1026,1502,1505,10633,760
89455,9,0.09,-0.03,-0.05,-0.001,-0.054,0.891,-1.88,-0.24,0.00,0.00,1.88,0.24,0.00,6.57,0.84,6.48,0.87,0.00,0.25,0.03,0.06,1100,1100,1100,1100,1026,1502,1505,10633,760
89467,9,0.09,0.02,-0.05,0.001,-0.051,0.893,-1.87,-0.25,0.00,0.00,1.87,0.25,0.00,6.56,0.86,6.47,0.84,0.00,0.26,0.02,0.10,1100,1100,1100,1100,1026,1502,1505,10633,760
89479,9,0.10,-0.01,-0.07,0.001,-0.052,0.892,-1.87,-0.24,0.00,0.00,1.87,0.24,0.00,6.53,0.85,6.43,0.86,0.00,0.25,0.03,0.45,1100,1100,1100,1100,1026,1502,1505,10633,760
89492,9,0.11,-0.03,-0.08,0.001,-0.053,0.890,-1.88,-0.23,0.00,0.00,1.88,0.23,0.00,6.57,0.82,6.46,0.84,0.00,0.25,0.04,0.51,1100,1100,1100,1100,1026,1502,1505,10633,760
89503,9,0.07,-0.01,-0.08,0.001,-0.053,0.887,-1.89,-0.23,0.00,0.00,1.89,0.23,0.00,6.61,0.80,6.54,0.81,0.00,0.27,0.03,0.44,1100,1100,1100,1100,1026,1500,1507,10633,760
89515,9,0.09,-0.03,-0.04,0.001,-0.053,0.889,-1.90,-0.22,0.00,0.00,1.90,0.22,0.00,6.64,0.79,6.55,0.81,0.00,0.26,0.04,0.07,1100,1100,1100,1100,1026,1500,1507,10633,760
89527,9,0.13,-0.06,0.01,-0.000,-0.053,0.890,-1.90,-0.22,0.00,0.00,1.90,0.22,0.00,6.64,0.78,6.51,0.84,0.00,0.24,0.05,-0.41,1100,1100,1100,1100,1026,1499,1508,10633,760
89539,9,0.11,-0.04,0.02,0.002,-0.052,0.888,-1.89,-0.22,0.00,0.00,1.89,0.22,0.00,6.60,0.76,6.49,0.80,0.00,0.26,0.04,-0.36,1100,1100,1100,1100,1026,1499,1508,10629,760
89551,9,0.13,-0.02,-0.03,0.002,-0.053,0.889,-1.88,-0.21,0.00,0.00,1.88,0.21,0.00,6.59,0.75,6.46,0.76,0.00,0.25,0.03,0.29,1100,1100,1100,1100,1026,1501,1506,10629,760
89563,9,0.12,-0.06,-0.04,0.003,-0.052,0.888,-1.88,-0.20,0.00,0.00,1.88,0.20,0.00,6.58,0.69,6.46,0.75,0.00,0.26,0.04,0.28,1100,1100,1100,1100,1026,1501,1506,10629,760
89575,9,0.08,-0.06,-0.09,0.001,-0.052,0.886,-1.89,-0.21,0.00,0.00,1.89,0.21,0.00,6.62,0.73,6.54,0.79,0.00,0.27,0.04,0.77,1100,1100,1100,1100,1026,1501,1506,10629,760
89587,9,0.05,-0.03,-0.05,0.001,-0.052,0.887,-1.90,-0.23,0.00,0.00,1.90,0.23,0.00,6.65,0.82,6.60,0.84,0.00,0.28,0.02,0.16,1100,1100,1100,1100,1026,1501,1506,10629,760
89599,9,0.09,0.02,0.05,0.002,-0.052,0.890,-1.91,-0.24,0.00,0.00,1.91,0.24,0.00,6.68,0.84,6.59,0.82,0.00,0.26,0.01,-0.93,1100,1100,1100,1100,1026,1501,1506,10629,760
89611,9,0.13,-0.00,0.08,0.001,-0.053,0.888,-1.91,-0.25,0.00,0.00,1.91,0.25,0.00,6.70,0.86,6.57,0.86,0.00,0.25,0.03,-0.87,1100,1100,1100,1100,1026,1500,1507,10625,760
89623,9,0.11,-0.03,-0.12,0.004,-0.053,0.890,-1.91,-0.21,0.00,0.00,1.91,0.21,0.00,6.68,0.73,6.57,0.76,0.00,0.26,0.03,1.62,1100,1100,1100,1100,1026,1501,1506,10625,760
89635,9,0.05,0.04,-0.25,-0.002,-0.055,0.893,-1.92,-0.20,0.00,0.00,1.92,0.20,0.00,6.70,0.71,6.65,0.68,0.00,0.28,0.00,2.36,1100,1100,1100,1100,1026,1501,1506,10617,760
89647,9,-0.06,0.15,0.30,-0.000,-0.051,0.892,-1.89,-0.24,0.00,0.00,1.89,0.24,0.00,6.62,0.84,6.68,0.68,0.00,0.32,-0.03,-4.19,1100,1100,1100,1100,1026,1501,1506,10617,760
89659,9,-0.07,0.02,0.64,0.003,-0.048,0.891,-1.89,-0.23,0.00,0.00,1.89,0.23,0.00,6.60,0.80,6.67,0.79,0.00,0.32,0.01,-6.15,1100,1100,1100,1100,1026,1501,1506,10604,760
89671,9,0.17,-0.40,0.08,0.001,-0.048,0.889,-1.82,-0.26,0.00,0.00,1.82,0.26,0.00,6.36,0.90,6.19,1.30,0.00,0.19,0.20,1.79,1100,1100,1100,1100,1026,1501,1506,10617,760
89683,9,-0.17,-0.02,-0.48,0.006,-0.059,0.891,-1.81,-0.21,0.00,0.00,1.81,0.21,0.00,6.34,0.73,6.52,0.75,0.00,0.36,-0.00,6.47,1100,1100,1100,1100,1026,1501,1506,10604,760
89695,9,-0.16,0.41,-0.24,-0.007,-0.069,0.895,-1.92,-0.25,0.00,0.00,1.92,0.25,0.00,6.72,0.86,6.88,0.46,0.00,0.36,-0.19,1.29,1100,1100,1100,1100,1026,1501,1506,10592,760
89707,9,0.11,0.01,0.26,-0.003,-0.066,0.893,-2.01,-0.24,0.00,0.00,2.01,0.24,0.00,7.05,0.82,6.94,0.81,0.00,0.24,-0.01,-3.87,1100,1100,1100,1100,1026,1500,1507,10571,760
89719,9,0.09,-0.78,0.43,0.024,-0.072,0.874,-2.13,-0.03,0.00,0.00,2.13,0.03,0.00,7.45,0.10,7.36,0.88,0.00,0.28,0.26,-4.01,1100,1100,1100,1100,1026,1500,1507,10546,760
89731,9,0.09,-0.15,-0.20,0.016,-0.060,0.884,-2.13,0.32,0.00,0.00,2.13,-0.32,0.00,7.45,-1.12,7.36,-0.97,0.00,0.30,-0.20,3.80,1100,1100,1100,1100,1026,1501,1506,10546,760
89743,9,0.23,0.13,-0.43,-0.007,-0.043,0.894,-2.00,0.14,0.00,0.00,2.00,-0.14,0.00,7.01,-0.49,6.78,-0.62,0.00,0.21,-0.22,4.61,1100,1100,1100,1100,1026,1501,1506,10538,760
89755,9,0.19,0.14,-0.03,0.003,-0.037,0.901,-1.94,-0.10,0.00,0.00,1.94,0.10,0.00,6.79,0.34,6.60,0.20,0.00,0.23,-0.08,-1.05,1100,1100,1100,1100,1026,1501,1506,10529,760
89767,9,0.07,0.43,0.25,-0.003,-0.051,0.888,-1.92,-0.39,0.00,0.00,1.92,0.39,0.00,6.72,1.37,6.64,0.94,0.00,0.31,-0.03,-3.43,1100,1100,1100,1100,1026,1501,1506,10525,760
89779,9,0.24,-0.15,0.05,0.017,-0.048,0.890,-1.91,-0.29,0.00,0.00,1.91,0.29,0.00,6.69,1.02,6.45,1.17,0.00,0.21,0.18,0.13,1100,1100,1100,1100,1026,1501,1506,10513,760
89791,9,0.09,-0.32,-0.25,0.017,-0.039,0.877,-1.89,-0.21,0.00,0.00,1.89,0.21,0.00,6.61,0.72,6.52,1.04,0.00,0.24,0.19,2.75,1100,1100,1100,1100,1026,1501,1506,10500,760
89803,25,-0.00,0.26,-0.29,-0.013,-0.052,0.902,-1.87,-0.18,0.00,0.00,1.87,0.18,0.00,6.55,0.64,6.55,0.38,0.00,0.27,-0.12,2.32,1100,1100,1100,1100,1026,1500,1506,10496,760
89815,9,-0.14,0.12,0.41,-0.005,-0.071,0.895,-1.97,-0.20,0.00,0.00,1.97,0.20,0.00,6.90,0.71,7.04,0.59,0.00,0.36,0.02,-5.70,1100,1100,1100,1100,1026,1500,1506,10509,760
89827,9,0.07,0.05,0.76,-0.006,-0.053,0.890,-1.95,-0.25,0.00,0.00,1.95,0.25,0.00,6.84,0.86,6.77,0.81,0.00,0.24,0.09,-7.44,1100,1100,1100,1100,1026,1500,1506,10517,760
89839,9,0.27,0.35,-0.18,-0.012,-0.048,0.892,-1.78,-0.26,0.00,0.00,1.78,0.26,0.00,6.22,0.92,5.95,0.58,0.00,0.15,-0.06,4.80,1100,1100,1100,1100,1026,1500,1506,10529,760
89851,9,-0.27,0.19,-1.11,-0.006,-0.067,0.899,-1.88,-0.17,0.00,0.00,1.88,0.17,0.00,6.59,0.58,6.86,0.38,0.00,0.39,0.03,12.55,1100,1100,1100,1100,1026,1500,1507,10529,760
89863,9,-0.58,0.11,-0.27,-0.028,-0.052,0.915,-1.86,-0.47,0.00,0.00,1.86,0.47,0.00,6.52,1.63,7.10,1.53,0.00,0.42,0.14,-0.62,1100,1100,1100,1100,1026,1500,1507,10534,760
89875,9,0.62,2.05,1.02,-0.032,-0.045,0.906,-1.59,-0.70,0.00,0.00,1.59,0.70,0.00,5.55,2.44,4.93,0.39,0.00,-0.12,-0.62,-13.20,1100,1100,1100,1100,1026,1500,1507,10529,760
89887,9,0.01,1.68,0.34,0.008,-0.077,0.874,-1.71,-0.65,0.00,0.00,1.71,0.65,0.00,6.00,2.29,5.99,0.61,0.00,0.31,-0.12,-0.93,1100,1100,1100,1100,1026,1500,1506,10546,760
89899,9,-1.35,-0.55,-0.97,0.000,-0.047,0.932,-1.98,-0.41,0.00,0.00,1.98,0.41,0.00,6.92,1.44,8.27,1.99,0.00,0.83,0.62,12.25,1100,1100,1100,1100,1026,1500,1506,10546,760
89911,9,0.39,0.26,-0.38,-0.034,-0.011,0.873,-1.50,-0.81,0.00,0.00,1.50,0.81,0.00,5.26,2.84,4.87,2.57,0.00,-0.15,0.06,1.84,1100,1100,1100,1100,1026,1500,1507,10546,760
89923,9,1.03,1.99,0.35,0.038,-0.086,0.853,-1.72,-0.43,0.00,0.00,1.72,0.43,0.00,6.04,1.50,5.00,-0.49,0.00,-0.16,-0.59,-5.72,1100,1100,1100,1100,1026,1500,1507,10542,760
89935,9,-1.56,-0.26,0.54,-0.001,-0.063,0.977,-2.13,-0.19,0.00,0.00,2.13,0.19,0.00,7.44,0.66,9.00,0.91,0.00,1.02,0.44,-5.55,1100,1100,1100,1100,1026,1500,1507,10534,760
89947,9,0.13,0.13,-0.16,-0.038,0.001,0.823,-1.53,-0.80,0.00,0.00,1.53,0.80,0.00,5.37,2.81,5.25,2.67,0.00,-0.04,0.13,3.87,1100,1100,1100,1100,1026,1500,1507,10538,760
89959,9,1.16,0.96,-1.05,0.033,-0.056,0.889,-1.54,-0.79,0.00,0.00,1.54,0.79,0.00,5.38,2.78,4.21,1.82,0.00,-0.25,-0.01,10.92,1100,1100,1100,1100,1026,1500,1507,10546,760
89971,9,-0.55,-0.68,0.19,0.012,-0.070,0.951,-1.93,-0.42,0.00,0.00,1.93,0.42,0.00,6.77,1.47,7.32,2.15,0.00,0.53,0.57,-5.24,1100,1100,1100,1100,1026,1500,1507,10538,760
89983,9,0.47,-0.24,0.61,-0.015,-0.052,0.804,-1.99,-0.61,0.00,0.00,1.99,0.61,0.00,6.98,2.12,6.51,2.36,0.00,-0.00,0.22,-7.16,1100,1100,1100,1100,1026,1500,1507,10529,760
89995,9,-1.04,0.68,0.43,-0.033,-0.038,0.973,-1.67,-0.80,0.00,0.00,1.67,0.80,0.00,5.85,2.79,6.89,2.11,0.00,0.69,-0.17,-3.05,1100,1100,1100,1100,1026,1500,1507,10529,760
90007,9,0.67,-0.27,-0.59,0.040,-0.088,0.828,-1.91,-0.31,0.00,0.00,1.91,0.31,0.00,6.67,1.09,6.00,1.36,0.00,-0.02,0.28,9.01,1100,1100,1100,1100,1026,1500,1507,10529,760
90019,9,-0.58,-1.15,-0.44,0.029,-0.038,0.886,-1.98,0.39,0.00,0.00,1.98,-0.39,0.00,6.94,-1.35,7.51,-0.20,0.00,0.61,0.28,3.82,1100,1100,1100,1100,1026,1500,1507,10554,760
90031,9,-0.29,0.91,0.26,-0.014,-0.023,0.879,-1.76,-0.02,0.00,0.00,1.76,0.02,0.00,6.16,0.07,6.45,-0.83,0.00,0.20,-0.55,-4.47,1100,1100,1100,1100,1026,1500,1507,10554,760
90043,9,-0.38,0.19,0.50,0.037,-0.077,0.893,-1.88,0.31,0.00,0.00,1.88,-0.31,0.00,6.57,-1.10,6.95,-1.28,0.00,0.54,-0.17,-5.70,1100,1100,1100,1100,1026,1500,1507,10546,760
90055,9,0.18,1.05,-0.25,-0.007,-0.058,0.877,-2.06,0.02,0.00,0.00,2.06,-0.02,0.00,7.21,-0.06,7.03,-1.11,0.00,0.15,-0.43,4.69,1100,1100,1100,1100,1026,1500,1507,10558,760
90067,9,-0.78,-0.77,-0.26,0.013,-0.022,0.912,-2.02,0.15,0.00,0.00,2.02,-0.15,0.00,7.07,-0.51,7.85,0.26,0.00,0.64,0.38,2.37,1100,1100,1100,1100,1026,1500,1507,10554,760
90079,9,0.97,0.71,-0.63,-0.000,-0.038,0.844,-1.70,-0.17,0.00,0.00,1.70,0.17,0.00,5.95,0.58,4.98,-0.13,0.00,-0.31,-0.36,5.75,1100,1100,1100,1100,1026,1500,1507,10546,760
90091,9,-0.55,-0.84,0.82,0.071,-0.039,0.877,-1.76,0.54,0.00,0.00,1.76,-0.54,0.00,6.17,-1.91,6.72,-1.06,0.00,0.76,0.27,-11.22,1100,1100,1100,1100,1026,1500,1507,10538,760
90103,9,-0.15,0.84,0.10,-0.018,-0.052,0.894,-1.98,0.18,0.00,0.00,1.98,-0.18,0.00,6.93,-0.62,7.08,-1.47,0.00,0.31,-0.54,0.69,1100,1100,1100,1100,1026,1500,1507,10534,760
90115,9,-0.38,-0.77,-0.06,0.014,0.008,0.881,-1.58,0.12,0.00,0.00,1.58,-0.12,0.00,5.54,-0.42,5.93,0.35,0.00,0.43,0.34,1.87,1100,1100,1100,1100,1026,1500,1507,10529,760
90127,9,0.25,2.16,-0.85,-0.012,-0.089,0.890,-1.79,-0.30,0.00,0.00,1.79,0.30,0.00,6.26,1.05,6.01,-1.11,0.00,0.05,-0.81,9.46,1100,1100,1100,1100,1026,1500,1507,10534,760
90139,9,-1.10,-0.02,0.01,-0.009,-0.007,0.900,-1.69,-0.33,0.00,0.00,1.69,0.33,0.00,5.93,1.16,7.03,1.18,0.00,0.81,0.33,-2.14,1100,1100,1100,1100,1026,1500,1507,10554,760
90151,9,0.36,0.81,0.35,-0.025,-0.112,0.897,-2.16,-0.81,0.00,0.00,2.16,0.81,0.00,7.54,2.82,7.18,2.01,0.00,-0.01,0.02,-4.78,1100,1100,1100,1100,1026,1500,1507,10558,760
90163,9,-1.21,-1.11,0.75,0.040,0.014,0.864,-1.47,-0.14,0.00,0.00,1.47,0.14,0.00,5.14,0.49,6.35,1.60,0.00,0.83,0.46,-6.92,1100,1100,1100,1100,1026,1500,1507,10554,760
90175,9,1.62,1.03,-0.12,-0.048,-0.102,0.937,-2.00,-0.79,0.00,0.00,2.00,0.79,0.00,6.99,2.78,5.38,1.75,0.00,-0.42,-0.39,3.04,1100,1100,1100,1100,1026,1500,1507,10546,760
90187,9,-1.99,1.80,-0.27,-0.025,-0.043,0.894,-1.73,-0.80,0.00,0.00,1.73,0.80,0.00,6.06,2.80,8.05,0.99,0.00,1.27,-0.71,2.99,1100,1100,1100,1100,1026,1500,1507,10550,760
90199,9,1.30,-1.24,0.00,0.061,0.001,0.890,-1.66,-0.70,0.00,0.00,1.66,0.70,0.00,5.82,2.46,4.52,3.70,0.00,-0.33,0.79,-2.14,1100,1100,1100,1100,1026,1500,1507,10529,760
90211,9,-0.09,0.15,0.28,-0.013,-0.058,0.855,-1.42,-0.41,0.00,0.00,1.42,0.41,0.00,4.95,1.43,5.04,1.28,0.00,0.26,-0.19,-2.86,1100,1100,1100,1100,1026,1500,1507,10529,760
90223,9,0.35,0.27,0.54,0.029,-0.047,0.904,-1.82,-0.56,0.00,0.00,1.82,0.56,0.00,6.38,1.95,6.03,1.68,0.00,0.25,0.05,-5.55,1100,1100,1100,1100,1026,1500,1507,10529,760
90235,9,-0.27,0.07,-0.80,-0.021,-0.028,0.853,-1.66,-0.51,0.00,0.00,1.66,0.51,0.00,5.80,1.79,6.08,1.72,0.00,0.32,-0.03,11.34,1100,1100,1100,1100,1026,1500,1507,10529,760
90247,9,0.52,-1.37,-0.34,0.026,-0.062,0.874,-2.12,-0.40,0.00,0.00,2.12,0.40,0.00,7.41,1.41,6.89,2.78,0.00,0.13,0.62,2.12,1100,1100,1100,1100,1026,1500,1507,10534,760
90259,9,0.90,-0.41,-0.13,-0.028,-0.080,0.895,-2.12,-0.30,0.00,0.00,2.12,0.30,0.00,7.41,1.04,6.51,1.45,0.00,-0.06,-0.02,-0.46,1100,1100,1100,1100,1026,1500,1507,10538,760
90271,9,-0.41,-1.75,0.70,0.039,-0.001,0.837,-1.99,0.18,0.00,0.00,1.99,-0.18,0.00,6.98,-0.64,7.39,1.11,0.00,0.82,0.25,-8.12,1100,1100,1100,1100,1026,1500,1507,10534,760
90283,9,0.13,1.50,0.01,-0.031,-0.089,0.969,-2.01,-0.25,0.00,0.00,2.01,0.25,0.00,7.05,0.87,6.92,-0.63,0.00,0.30,-0.93,1.63,1100,1100,1100,1100,1026,1500,1507,10538,760
90295,9,-1.03,0.46,-0.17,0.066,-0.025,0.867,-1.36,0.49,0.00,0.00,1.36,-0.49,0.00,4.75,-1.73,5.77,-2.19,0.00,0.73,-0.36,2.70,1100,1100,1100,1100,1026,1500,1507,10546,760
90307,9,0.29,-0.80,-0.47,0.042,-0.046,0.874,-1.51,0.81,0.00,0.00,1.51,-0.81,0.00,5.30,-2.84,5.00,-2.04,0.00,0.02,0.18,4.11,1100,1100,1100,1100,1026,1500,1507,10554,760
90319,9,-1.73,1.46,-0.10,-0.039,-0.044,0.874,-1.38,0.33,0.00,0.00,1.38,-0.33,0.00,4.82,-1.17,6.55,-2.63,0.00,0.76,-0.67,0.18,1100,1100,1100,1100,1026,1500,1507,10563,760
90331,9,-0.53,0.28,0.52,0.046,-0.089,0.882,-2.13,0.11,0.00,0.00,2.13,-0.11,0.00,7.46,-0.38,8.00,-0.66,0.00,0.43,0.19,-7.13,1100,1100,1100,1100,1026,1500,1507,10558,760
90343,9,-0.43,-0.36,-0.23,-0.009,-0.136,0.833,-2.55,-0.06,0.00,0.00,2.55,0.06,0.00,8.92,0.20,9.35,0.56,0.00,0.47,0.14,2.99,1100,1100,1100,1100,1026,1501,1506,10563,760
90355,9,-0.30,-0.38,0.18,-0.035,-0.026,0.949,-2.20,-0.24,0.00,0.00,2.20,0.24,0.00,7.69,0.83,7.99,1.21,0.00,0.47,-0.13,-1.73,1100,1100,1100,1100,1026,1501,1506,10563,760
90367,9,2.80,0.46,-0.26,-0.036,-0.059,0.904,-2.31,-0.72,0.00,0.00,2.31,0.72,0.00,8.10,2.51,5.30,2.05,0.00,-0.75,-0.45,2.17,1100,1100,1100,1100,1026,1501,1506,10558,760
90379,9,-1.23,2.54,-0.04,-0.065,-0.099,0.850,-2.35,-1.18,0.00,0.00,2.35,1.18,0.00,8.23,4.13,9.46,1.59,0.00,1.18,-1.03,-0.34,1100,1100,1100,1100,1026,1501,1506,10546,760
90391,9,0.32,0.49,-0.14,-0.006,-0.003,1.008,-1.99,-1.38,0.00,0.00,1.99,1.38,0.00,6.98,4.82,6.66,4.33,0.00,0.34,0.33,0.32,1100,1100,1100,1100,1026,1500,1507,10546,760
90403,9,1.09,1.71,-0.58,0.004,-0.047,0.839,-1.66,-0.95,0.00,0.00,1.66,0.95,0.00,5.82,3.33,4.73,1.62,0.00,-0.21,-0.27,7.22,1100,1100,1100,1100,1026,1499,1507,10546,760
90415,9,-1.55,-1.30,0.72,0.066,-0.021,0.864,-1.65,0.18,0.00,0.00,1.65,-0.18,0.00,5.76,-0.62,7.32,0.68,0.00,1.04,0.66,-9.91,1100,1100,1100,1100,1026,1499,1507,10558,760
90427,9,0.14,-0.93,-0.39,0.025,-0.077,0.853,-1.83,0.65,0.00,0.00,1.83,-0.65,0.00,6.40,-2.27,6.26,-1.35,0.00,0.04,0.36,5.36,1100,1100,1100,1100,1026,1499,1508,10554,760
90439,9,-0.98,-0.36,0.43,-0.100,-0.079,0.960,-1.78,-0.13,0.00,0.00,1.78,0.13,0.00,6.21,0.44,7.19,0.80,0.00,0.49,0.03,-3.96,1100,1100,1100,1100,1026,1499,1508,10542,760
90451,9,1.25,-0.75,-0.29,-0.008,-0.056,0.904,-2.10,-0.86,0.00,0.00,2.10,0.86,0.00,7.35,3.00,6.10,3.75,0.00,-0.27,0.58,2.87,1100,1100,1100,1100,1026,1499,1508,10546,760
90463,9,-0.44,0.89,0.25,0.018,-0.068,0.806,-2.04,-0.78,0.00,0.00,2.04,0.78,0.00,7.12,2.74,7.56,1.85,0.00,0.43,-0.10,-3.14,1100,1100,1100,1100,1026,1506,1501,10550,760
90475,9,0.41,-2.32,0.13,0.061,-0.092,0.929,-2.08,0.02,0.00,0.00,2.08,-0.02,0.00,7.28,-0.09,6.87,2.23,0.00,0.38,0.76,-2.39,1100,1100,1100,1100,1026,1506,1501,10554,760
90487,9,0.50,0.99,-0.41,-0.043,-0.086,0.846,-2.00,-0.12,0.00,0.00,2.00,0.12,0.00,7.01,0.42,6.50,-0.57,0.00,0.10,-0.70,5.66,1100,1100,1100,1100,1026,1506,1501,10550,760
90499,9,-1.15,0.98,-0.02,-0.024,0.005,0.926,-1.72,-0.11,0.00,0.00,1.72,0.11,0.00,6.02,0.38,7.17,-0.60,0.00,1.05,-0.80,-0.36,1100,1100,1100,1100,1026,1506,1501,10546,760
90511,9,1.62,-0.09,-0.29,-0.021,-0.117,0.878,-2.41,-0.60,0.00,0.00,2.41,0.60,0.00,8.45,2.10,6.83,2.19,0.00,-0.42,0.18,2.53,1100,1100,1100,1100,1026,1500,1507,10542,760
90523,9,-2.61,2.35,0.06,-0.091,-0.083,0.925,-2.12,-0.97,0.00,0.00,2.12,0.97,0.00,7.42,3.39,10.03,1.04,0.00,1.38,-0.81,-2.42,1100,1100,1100,1100,1026,1500,1507,10538,760
90535,9,1.82,-0.43,-0.44,0.007,-0.026,0.953,-2.17,-1.37,0.00,0.00,2.17,1.37,0.00,7.58,4.78,5.77,5.21,0.00,-0.52,0.89,3.80,1100,1100,1100,1100,1026,1500,1507,10546,760
90547,9,-0.62,2.07,0.12,-0.043,-0.110,0.855,-2.30,-1.12,0.00,0.00,2.30,1.12,0.00,8.03,3.91,8.65,1.84,0.00,0.42,-0.46,-2.03,1100,1100,1100,1100,1026,1506,1501,10546,760
90559,9,-0.75,-1.67,-0.01,0.087,0.018,0.882,-1.85,-0.20,0.00,0.00,1.85,0.20,0.00,6.47,0.69,7.22,2.36,0.00,0.67,1.05,-0.25,1100,1100,1100,1100,1026,1506,1501,10542,760
90571,9,2.85,-3.20,-0.36,0.026,-0.126,0.871,-2.33,0.33,0.00,0.00,2.33,-0.33,0.00,8.14,-1.15,5.29,2.05,0.00,-1.01,1.20,4.09,1100,1100,1100,1100,1026,1500,1507,10538,760
90583,9,-3.04,0.63,0.23,0.021,-0.037,0.806,-2.08,0.60,0.00,0.00,2.08,-0.60,0.00,7.29,-2.11,10.33,-2.75,0.00,1.95,-0.99,-4.62,1100,1100,1100,1100,1026,1501,1506,10534,760
90595,9,1.02,-0.46,0.23,-0.017,-0.034,0.989,-2.33,0.01,0.00,0.00,2.33,-0.01,0.00,8.15,-0.05,7.14,0.42,0.00,-0.10,-0.12,-2.92,1100,1100,1100,1100,1026,1501,1506,10529,760
90607,9,1.18,0.42,-0.45,-0.045,-0.051,0.897,-1.69,0.08,0.00,0.00,1.69,-0.08,0.00,5.90,-0.29,4.72,-0.70,0.00,-0.36,-0.45,6.35,1100,1100,1100,1100,1026,1500,1507,10534,760
90620,9,1.65,-3.73,0.19,0.067,0.001,0.762,-1.83,0.35,0.00,0.00,1.83,-0.35,0.00,6.39,-1.24,4.74,2.49,0.00,-0.02,1.31,-2.58,1100,1100,1100,1100,1026,1500,1507,10534,760
90631,9,-0.05,-0.42,-0.19,0.001,-0.082,0.881,-1.91,0.70,0.00,0.00,1.91,-0.70,0.00,6.70,-2.46,6.75,-2.03,0.00,0.50,-0.46,2.37,1100,1100,1100,1100,1026,1500,1507,10538,760
90643,9,-0.58,-1.19,0.08,0.008,-0.001,0.969,-1.36,0.57,0.00,0.00,1.36,-0.57,0.00,4.77,-2.00,5.35,-0.81,0.00,0.65,-0.06,0.22,1100,1100,1100,1100,1026,1506,1501,10529,760
90655,9,1.85,-0.75,0.17,-0.022,-0.098,0.939,-1.74,0.20,0.00,0.00,1.74,-0.20,0.00,6.10,-0.69,4.25,0.06,0.00,-0.50,0.11,-2.56,1100,1100,1100,1100,1026,1506,1501,10538,760
90667,9,-2.14,0.96,-0.07,0.057,0.009,0.742,-1.34,0.43,0.00,0.00,1.34,-0.43,0.00,4.68,-1.50,6.82,-2.46,0.00,1.21,-0.56,1.00,1100,1100,1100,1100,1026,1506,1501,10542,760
90679,9,-0.03,-1.59,0.41,0.098,-0.021,0.860,-1.54,1.01,0.00,0.00,1.54,-1.01,0.00,5.40,-3.52,5.43,-1.93,0.00,0.07,0.66,-5.16,1100,1100,1100,1100,1026,1506,1501,10542,760
90691,9,-0.17,0.17,-0.59,-0.038,-0.090,0.954,-1.59,0.59,0.00,0.00,1.59,-0.59,0.00,5.58,-2.05,5.74,-2.22,0.00,0.15,-0.33,7.81,1100,1100,1100,1100,1026,1499,1508,10546,760
90703,9,-1.24,0.46,0.48,-0.007,-0.019,0.828,-1.79,-0.06,0.00,0.00,1.79,0.06,0.00,6.27,0.21,7.51,-0.25,0.00,1.00,-0.52,-5.86,1100,1100,1100,1100,1026,1505,1502,10546,760
90715,9,0.40,1.90,-0.12,-0.047,-0.071,0.910,-2.17,-1.13,0.00,0.00,2.17,1.13,0.00,7.59,3.97,7.19,2.07,0.00,0.04,-0.73,0.77,1100,1100,1100,1100,1026,1505,1502,10550,760
90727,9,0.09,1.32,-0.15,-0.090,-0.086,0.991,-2.26,-1.96,0.00,0.00,2.26,1.96,0.00,7.91,6.85,7.82,5.54,0.00,0.08,0.00,1.89,1100,1100,1100,1100,1026,1500,1507,10546,760
90739,9,1.79,-1.80,-0.10,0.007,-0.020,0.896,-2.00,-1.40,0.00,0.00,2.00,1.40,0.00,7.00,4.89,5.21,6.69,0.00,-0.31,1.09,-0.50,1100,1100,1100,1100,1026,1500,1507,10546,760
90751,9,1.03,1.27,-0.72,-0.069,-0.085,0.840,-2.28,-1.80,0.00,0.00,2.28,1.80,0.00,7.97,6.29,6.94,5.02,0.00,0.10,-0.31,8.13,1100,1100,1100,1100,1026,1500,1507,10546,760
90763,9,-1.86,1.44,0.44,-0.004,-0.022,0.980,-1.89,-1.22,0.00,0.00,1.89,1.22,0.00,6.61,4.26,8.47,2.83,0.00,1.33,-0.37,-6.06,1100,1100,1100,1100,1026,1505,1502,10550,760
90775,9,2.21,-2.03,-0.47,0.059,-0.019,0.861,-1.91,-0.86,0.00,0.00,1.91,0.86,0.00,6.67,3.01,4.46,5.04,0.00,-0.74,1.43,5.17,1100,1100,1100,1100,1026,1505,1502,10546,760
90787,9,-1.69,0.94,0.18,-0.005,-0.145,0.866,-2.07,-0.38,0.00,0.00,2.07,0.38,0.00,7.25,1.33,8.93,0.39,0.00,0.99,-0.31,-2.75,1100,1100,1100,1100,1026,1505,1502,10542,760
90799,9,-2.34,0.97,-0.14,0.037,0.015,0.839,-1.96,-0.35,0.00,0.00,1.96,0.35,0.00,6.87,1.22,9.21,0.25,0.00,1.13,-0.25,-0.13,1100,1100,1100,1100,1026,1505,1502,10538,760
90811,9,0.11,2.25,-0.75,-0.062,-0.072,0.951,-1.93,-0.79,0.00,0.00,1.93,0.79,0.00,6.77,2.78,6.65,0.53,0.00,-0.28,-0.52,8.50,1100,1100,1100,1100,1026,1500,1507,10546,760
90823,9,-0.36,-0.86,0.27,0.083,-0.045,0.819,-2.07,-0.27,0.00,0.00,2.07,0.27,0.00,7.24,0.93,7.60,1.79,0.00,0.50,0.60,-5.84,1100,1100,1100,1100,1026,1501,1506,10546,760
90835,9,2.15,-0.34,0.11,-0.015,-0.092,0.872,-2.60,-0.57,0.00,0.00,2.60,0.57,0.00,9.11,2.01,6.97,2.35,0.00,-0.66,0.32,-1.99,1100,1100,1100,1100,1026,1501,1506,10546,760
90847,9,-1.28,1.05,0.48,-0.021,-0.020,0.939,-1.87,-0.28,0.00,0.00,1.87,0.28,0.00,6.55,0.99,7.82,-0.07,0.00,0.91,-0.61,-4.63,1100,1100,1100,1100,1026,1505,1502,10542,760
90859,9,2.65,-1.75,-0.70,0.029,-0.047,0.907,-2.33,-0.18,0.00,0.00,2.33,0.18,0.00,8.17,0.63,5.52,2.37,0.00,-0.68,0.92,9.34,1100,1100,1100,1100,1026,1505,1502,10546,760
90871,9,-1.11,0.16,-0.22,0.058,-0.023,0.809,-1.74,0.98,0.00,0.00,1.74,-0.98,0.00,6.08,-3.42,7.18,-3.58,0.00,0.75,-0.22,1.79,1100,1100,1100,1100,1027,1500,1507,10542,760
90883,9,-0.81,-2.35,0.05,0.078,0.024,0.869,-1.25,1.43,0.00,0.00,1.25,-1.43,0.00,4.36,-5.00,5.18,-2.65,0.00,0.69,0.67,-2.43,1100,1100,1100,1100,1027,1505,1502,10546,760
90895,9,1.77,-0.46,0.26,-0.033,-0.155,0.926,-1.53,1.06,0.00,0.00,1.53,-1.06,0.00,5.37,-3.72,3.60,-3.27,0.00,-0.63,-0.38,-2.72,1100,1100,1100,1100,1027,1505,1502,10542,760
90907,9,-3.05,0.98,0.52,-0.002,-0.045,0.842,-1.52,0.90,0.00,0.00,1.52,-0.90,0.00,5.31,-3.14,8.35,-4.12,0.00,1.79,-1.00,-5.27,1100,1100,1100,1100,1027,1505,1501,10534,760
90919,9,1.00,0.15,-0.05,0.003,-0.043,0.933,-2.09,0.14,0.00,0.00,2.09,-0.14,0.00,7.32,-0.48,6.32,-0.63,0.00,-0.28,-0.05,1.56,1100,1100,1100,1100,1027,1505,1501,10534,760
90931,9,-1.12,0.57,-0.22,0.005,-0.068,0.832,-1.67,0.53,0.00,0.00,1.67,-0.53,0.00,5.84,-1.86,6.96,-2.43,0.00,0.63,-0.65,2.37,1100,1100,1100,1100,1027,1500,1507,10538,760
90943,9,2.52,-4.60,0.15,0.086,-0.039,0.862,-1.91,1.14,0.00,0.00,1.91,-1.14,0.00,6.67,-3.99,4.15,0.61,0.00,-0.57,1.33,-2.62,1100,1100,1100,1100,1027,1505,1502,10538,760
90955,9,1.48,-0.36,-0.14,-0.062,-0.100,0.900,-1.87,0.80,0.00,0.00,1.87,-0.80,0.00,6.54,-2.80,5.06,-2.44,0.00,-0.13,-0.66,1.98,1100,1100,1100,1100,1027,1505,1502,10538,760
90967,9,-0.53,1.43,-0.15,-0.059,-0.026,0.942,-1.65,0.05,0.00,0.00,1.65,-0.05,0.00,5.77,-0.18,6.30,-1.61,0.00,0.99,-1.12,3.80,1100,1100,1100,1100,1027,1505,1502,10538,760
90979,9,1.23,0.21,0.02,-0.006,-0.068,0.927,-1.82,0.03,0.00,0.00,1.82,-0.03,0.00,6.39,-0.09,5.15,-0.30,0.00,-0.18,-0.22,-0.93,1100,1100,1100,1100,1027,1505,1502,10546,760
90991,9,-2.06,0.25,-0.89,0.037,-0.050,0.809,-1.72,0.72,0.00,0.00,1.72,-0.72,0.00,6.00,-2.51,8.07,-2.77,0.00,1.13,-0.18,9.22,1100,1100,1100,1100,1027,1499,1508,10554,760
91003,9,-0.92,-0.48,0.75,-0.005,-0.060,0.945,-2.06,0.31,0.00,0.00,2.06,-0.31,0.00,7.20,-1.08,8.12,-0.59,0.00,0.36,0.44,-11.63,1100,1100,1100,1100,1027,1504,1503,10546,760
91015,9,-1.11,2.70,-0.39,-0.049,-0.062,0.877,-1.81,-0.34,0.00,0.00,1.81,0.34,0.00,6.35,1.20,7.46,-1.51,0.00,0.32,-0.89,5.32,1100,1100,1100,1100,1027,1504,1503,10546,760
91028,9,0.22,0.39,0.60,-0.029,-0.060,0.894,-2.19,-0.81,0.00,0.00,2.19,0.81,0.00,7.65,2.84,7.43,2.45,0.00,0.09,0.32,-6.18,1100,1100,1100,1100,1027,1500,1507,10554,760
91039,9,2.32,-1.04,-0.72,-0.019,-0.110,0.909,-2.58,-1.33,0.00,0.00,2.58,1.33,0.00,9.03,4.67,6.71,5.71,0.00,-0.59,0.91,7.95,1100,1100,1100,1100,1027,1500,1507,10546,760
91051,9,0.25,0.87,-0.25,-0.045,-0.075,0.838,-2.55,-1.49,0.00,0.00,2.55,1.49,0.00,8.94,5.22,8.69,4.35,0.00,0.52,-0.16,2.05,1100,1100,1100,1100,1027,1500,1507,10546,760
91063,9,-0.74,1.39,0.01,0.015,-0.042,0.992,-2.38,-1.14,0.00,0.00,2.38,1.14,0.00,8.34,3.98,9.08,2.58,0.00,0.88,-0.27,-2.89,1100,1100,1100,1100,1026,1504,1503,10546,760
91075,9,-0.03,2.00,-0.67,-0.005,-0.041,0.905,-2.16,-0.86,0.00,0.00,2.16,0.86,0.00,7.55,3.02,7.58,1.02,0.00,0.21,-0.38,8.16,1100,1100,1100,1100,1026,1504,1503,10542,760
91087,9,-1.64,1.90,0.35,0.007,0.000,0.836,-1.71,-0.62,0.00,0.00,1.71,0.62,0.00,5.97,2.18,7.61,0.28,0.00,1.00,-0.29,-5.50,1100,1100,1100,1100,1027,1500,1507,10538,760
91099,9,1.25,-1.69,-0.91,0.052,-0.039,0.851,-1.82,-0.25,0.00,0.00,1.82,0.25,0.00,6.38,0.87,5.13,2.56,0.00,-0.51,1.25,10.89,1100,1100,1100,1100,1027,1500,1507,10546,760
91111,9,0.54,-2.31,0.43,0.013,-0.117,0.893,-1.96,0.16,0.00,0.00,1.96,-0.16,0.00,6.87,-0.57,6.33,1.74,0.00,-0.13,1.04,-6.37,1100,1100,1100,1100,1027,1500,1507,10546,760
91123,9,1.01,-1.15,-0.25,-0.013,-0.047,0.884,-2.28,-0.45,0.00,0.00,2.28,0.45,0.00,7.98,1.58,6.97,2.73,0.00,0.22,0.23,1.56,1100,1100,1100,1100,1026,1504,1503,10550,760
91135,9,-0.24,3.02,0.02,-0.112,-0.069,0.882,-2.34,-1.20,0.00,0.00,2.34,1.20,0.00,8.18,4.21,8.42,1.19,0.00,0.61,-1.43,-0.50,1100,1100,1100,1100,1026,1504,1503,10542,760
91147,9,-1.14,-0.24,0.11,0.062,-0.037,0.909,-1.85,-0.62,0.00,0.00,1.85,0.62,0.00,6.47,2.16,7.61,2.39,0.00,0.93,0.29,-2.05,1100,1100,1100,1100,1026,1502,1505,10550,760
91159,9,3.17,-1.06,-0.39,-0.017,-0.109,0.897,-2.13,-0.63,0.00,0.00,2.13,0.63,0.00,7.46,2.20,4.29,3.26,0.00,-1.06,0.70,5.26,1100,1100,1100,1100,1026,1502,1505,10542,760
91171,9,-1.00,0.12,0.26,0.000,-0.038,0.860,-1.51,0.16,0.00,0.00,1.51,-0.16,0.00,5.27,-0.57,6.28,-0.70,0.00,1.09,-0.49,-3.92,1100,1100,1100,1100,1026,1500,1507,10534,760
91183,9,1.84,-1.87,-0.19,0.006,-0.000,0.896,-1.82,-0.08,0.00,0.00,1.82,0.08,0.00,6.38,0.30,4.55,2.17,0.00,-0.19,0.46,2.18,1100,1100,1100,1100,1026,1504,1503,10534,760
91195,9,-1.67,2.20,0.02,-0.030,-0.075,0.880,-1.63,0.03,0.00,0.00,1.63,-0.03,0.00,5.69,-0.10,7.37,-2.31,0.00,0.94,-1.25,-0.05,1100,1100,1100,1100,1026,1504,1503,10542,760
91207,9,-2.39,-0.70,-0.18,0.103,0.020,0.895,-1.62,0.72,0.00,0.00,1.62,-0.72,0.00,5.67,-2.53,8.06,-1.83,0.00,1.25,0.21,1.94,1100,1100,1100,1100,1026,1504,1503,10542,760
91219,9,1.10,-1.18,-0.48,0.051,-0.127,0.851,-2.01,1.24,0.00,0.00,2.01,-1.24,0.00,7.05,-4.34,5.95,-3.16,0.00,-0.78,0.50,5.28,1100,1100,1100,1100,1026,1504,1503,10546,760
91231,9,-4.30,1.71,0.50,-0.018,-0.026,0.828,-1.26,1.36,0.00,0.00,1.26,-1.36,0.00,4.41,-4.74,8.71,-6.45,0.00,1.88,-1.12,-6.28,1100,1100,1100,1100,1026,1500,1507,10542,760
91243,9,2.16,-0.67,0.45,-0.024,-0.063,0.931,-1.62,0.21,0.00,0.00,1.62,-0.21,0.00,5.68,-0.75,3.51,-0.07,0.00,-0.98,0.32,-5.29,1100,1100,1100,1100,1026,1500,1507,10538,760
91255,9,0.94,-0.23,0.21,-0.063,-0.073,0.909,-1.52,-0.06,0.00,0.00,1.52,0.06,0.00,5.32,0.21,4.38,0.44,0.00,-0.19,-0.39,-1.66,1100,1100,1100,1100,1026,1500,1507,10542,760
91267,9,3.08,-3.71,0.30,-0.016,-0.064,0.872,-2.13,-0.70,0.00,0.00,2.13,0.70,0.00,7.47,2.47,4.38,6.18,0.00,-0.41,1.27,-2.73,1100,1100,1100,1100,1027,1503,1504,10534,760
91279,9,0.56,0.96,-0.47,-0.022,-0.087,0.895,-2.24,-0.97,0.00,0.00,2.24,0.97,0.00,7.84,3.41,7.28,2.45,0.00,0.58,-0.83,6.36,1100,1100,1100,1100,1027,1503,1504,10546,760
91291,9,-0.96,-1.71,-0.22,0.038,0.018,0.905,-1.85,-0.27,0.00,0.00,1.85,0.27,0.00,6.46,0.93,7.42,2.64,0.00,1.30,0.14,3.62,1100,1100,1100,1100,1027,1500,1507,10542,760
91303,9,1.36,-0.49,0.47,0.040,-0.056,0.905,-1.64,0.08,0.00,0.00,1.64,-0.08,0.00,5.76,-0.29,4.39,0.20,0.00,-0.23,-0.05,-6.49,1100,1100,1100,1100,1026,1503,1504,10538,760
91315,9,-3.48,3.84,-0.11,-0.005,-0.001,0.841,-0.96,0.04,0.00,0.00,0.96,-0.04,0.00,3.36,-0.14,6.84,-3.98,0.00,1.73,-1.76,1.47,1100,1100,1100,1100,1026,1503,1504,10538,760
91327,9,-0.57,0.61,-0.10,0.064,-0.059,0.894,-1.40,0.28,0.00,0.00,1.40,-0.28,0.00,4.89,-0.97,5.46,-1.58,0.00,0.12,0.28,-0.03,1100,1100,1100,1100,1026,1503,1504,10538,760
91339,9,-2.63,3.30,-0.68,-0.073,-0.155,0.864,-2.10,-0.39,0.00,0.00,2.10,0.39,0.00,7.33,1.37,9.96,-1.93,0.00,0.70,-0.56,6.81,1100,1100,1100,1100,1026,1503,1504,10546,760
91351,9,-0.93,0.04,0.95,-0.023,-0.089,0.878,-2.28,-0.25,0.00,0.00,2.28,0.25,0.00,7.99,0.87,8.92,0.82,0.00,0.16,0.67,-10.99,1100,1100,1100,1100,1027,1500,1507,10542,760
91363,9,2.10,-0.61,-0.05,-0.068,-0.051,0.869,-2.63,-1.11,0.00,0.00,2.63,1.11,0.00,9.19,3.88,7.09,4.49,0.00,-0.93,0.64,0.74,1100,1100,1100,1100,1026,1503,1504,10538,760
91375,9,1.75,-1.02,-0.60,-0.102,-0.108,0.924,-2.88,-1.89,0.00,0.00,2.88,1.89,0.00,10.07,6.61,8.32,7.63,0.00,-0.37,0.83,7.95,1100,1100,1100,1100,1026,1503,1504,10534,760
91387,9,3.13,-2.18,0.06,0.020,-0.070,0.987,-2.76,-1.72,0.00,0.00,2.76,1.72,0.00,9.64,6.02,6.51,8.21,0.00,-0.46,1.06,-2.73,1100,1100,1100,1100,1026,1503,1504,10538,760
91399,9,1.57,-0.61,-0.91,0.005,-0.019,0.788,-2.47,-1.29,0.00,0.00,2.47,1.29,0.00,8.65,4.51,7.09,5.12,0.00,0.43,-0.08,11.00,1100,1100,1100,1100,1026,1503,1504,10546,760
91411,9,0.50,-0.12,0.67,0.059,0.032,0.962,-1.95,-0.63,0.00,0.00,1.95,0.63,0.00,6.84,2.21,6.33,2.33,0.00,0.79,-0.31,-9.07,1100,1100,1100,1100,1027,1506,1501,10542,760
91423,9,-0.00,1.46,-0.48,0.043,-0.045,0.849,-1.84,-0.38,0.00,0.00,1.84,0.38,0.00,6.43,1.33,6.43,-0.13,0.00,0.70,-0.58,5.21,1100,1100,1100,1100,1027,1503,1504,10554,760
91435,9,-2.00,4.72,0.10,-0.006,-0.047,0.854,-1.32,-0.10,0.00,0.00,1.32,0.10,0.00,4.63,0.35,6.63,-4.37,0.00,1.06,-1.71,-2.65,1100,1100,1100,1100,1027,1503,1504,10546,760
91447,9,-2.85,2.43,-0.46,0.011,-0.028,0.971,-1.28,-0.03,0.00,0.00,1.28,0.03,0.00,4.48,0.12,7.33,-2.31,0.00,1.04,-0.19,3.08,1100,1100,1100,1100,1027,1500,1507,10550,760
91459,9,-0.26,1.53,-0.26,-0.014,-0.111,0.867,-1.81,-0.12,0.00,0.00,1.81,0.12,0.00,6.34,0.42,6.60,-1.11,0.00,-0.34,0.31,3.24,1100,1100,1100,1100,1027,1500,1507,10542,760
91471,9,-2.00,0.80,0.09,-0.020,-0.057,0.854,-2.34,0.07,0.00,0.00,2.34,-0.07,0.00,8.18,-0.25,10.18,-1.05,0.00,0.73,0.05,-1.81,1100,1100,1100,1100,1027,1506,1501,10542,760
91483,9,3.33,-3.26,-0.29,-0.024,-0.080,0.904,-3.08,-0.49,0.00,0.00,3.08,0.49,0.00,10.79,1.72,7.46,4.98,0.00,-1.34,1.69,3.44,1100,1100,1100,1100,1026,1503,1503,10542,760
91495,9,0.97,-1.74,0.04,-0.070,-0.113,0.917,-3.20,-1.17,0.00,0.00,3.20,1.17,0.00,11.21,4.08,10.24,5.83,0.00,0.03,0.74,-2.00,1100,1100,1100,1100,1026,1503,1503,10538,760
91507,9,2.89,-4.64,-0.24,0.045,-0.028,0.923,-3.14,-1.17,0.00,0.00,3.14,1.17,0.00,10.98,4.11,8.09,8.75,0.00,-0.17,1.76,1.48,1100,1100,1100,1100,1026,1503,1504,10542,760
91519,9,1.29,1.28,0.14,-0.032,-0.053,0.859,-2.49,-1.03,0.00,0.00,2.49,1.03,0.00,8.72,3.62,7.43,2.34,0.00,0.33,-1.06,-2.08,1100,1100,1100,1100,1026,1503,1504,10546,760
91531,9,-1.25,0.42,-0.02,0.051,0.044,0.920,-1.46,-0.29,0.00,0.00,1.46,0.29,0.00,5.12,1.00,6.37,0.58,0.00,1.50,-0.72,0.15,1100,1100,1100,1100,1026,1500,1507,10550,760
91543,9,1.99,1.14,0.10,0.059,-0.079,0.879,-1.55,0.03,0.00,0.00,1.55,-0.03,0.00,5.42,-0.10,3.43,-1.24,0.00,-0.53,-0.35,-1.42,1100,1100,1100,1100,1027,1501,1507,10546,764
91555,9,-4.23,3.00,-0.38,0.016,-0.070,0.849,-1.21,1.26,0.00,0.00,1.21,-1.26,0.00,4.22,-4.40,8.46,-7.40,0.00,1.92,-1.37,3.60,1100,1100,1100,1100,1027,1501,1507,10546,764
91567,9,-0.71,0.16,-0.22,-0.014,-0.055,0.958,-1.82,1.30,0.00,0.00,1.82,-1.30,0.00,6.39,-4.56,7.10,-4.72,0.00,-0.00,0.46,1.43,1100,1100,1100,1100,1027,1502,1505,10542,764
91579,9,-2.03,2.62,-0.72,-0.043,-0.065,0.840,-1.86,0.52,0.00,0.00,1.86,-0.52,0.00,6.51,-1.83,8.54,-4.45,0.00,0.34,-0.52,7.14,1100,1100,1100,1100,1027,1502,1505,10538,764
91591,9,-0.33,-2.77,0.37,0.049,-0.058,0.811,-2.34,0.71,0.00,0.00,2.34,-0.71,0.00,8.20,-2.48,8.52,0.29,0.00,0.10,1.66,-5.92,1100,1100,1100,1100,1027,1505,1502,10538,764
91603,9,2.55,-1.20,0.16,-0.084,-0.167,0.956,-2.77,-0.02,0.00,0.00,2.77,0.02,0.00,9.70,0.07,7.15,1.27,0.00,-1.03,0.47,-1.42,1100,1100,1100,1100,1027,1502,1505,10538,764
91615,9,0.09,-1.95,0.42,0.030,0.001,0.846,-2.25,0.07,0.00,0.00,2.25,-0.07,0.00,7.86,-0.24,7.77,1.71,0.00,0.64,0.41,-3.19,1100,1100,1100,1100,1027,1502,1505,10538,764
91627,9,2.79,-1.16,-0.02,0.050,-0.051,0.952,-2.47,-0.25,0.00,0.00,2.47,0.25,0.00,8.64,0.86,5.85,2.02,0.00,-0.37,0.25,-0.56,1100,1100,1100,1100,1026,1502,1505,10534,764
91639,9,-1.30,1.42,-0.37,-0.025,-0.044,0.857,-1.75,0.15,0.00,0.00,1.75,-0.15,0.00,6.14,-0.52,7.43,-1.94,0.00,1.32,-1.22,4.39,1100,1100,1100,1100,1026,1500,1505,10538,764
91651,9,0.55,-0.78,0.61,0.066,0.040,0.846,-1.15,0.47,0.00,0.00,1.15,-0.47,0.00,4.03,-1.63,3.48,-0.85,0.00,0.35,-0.06,-8.06,1100,1100,1100,1100,1026,1500,1507,10529,839
91663,9,0.69,0.80,-0.45,0.007,-0.098,0.877,-1.38,0.42,0.00,0.00,1.38,-0.42,0.00,4.82,-1.46,4.13,-2.26,0.00,-0.14,-0.34,6.21,1100,1100,1100,1100,1026,1502,1505,10538,839
91675,9,-2.54,2.24,0.43,-0.025,-0.113,0.952,-1.62,0.65,0.00,0.00,1.62,-0.65,0.00,5.68,-2.28,8.22,-4.52,0.00,1.25,-0.84,-4.71,1100,1100,1100,1100,1026,1502,1505,10534,839
91687,9,-0.17,0.84,-0.41,0.038,-0.049,0.911,-1.81,0.84,0.00,0.00,1.81,-0.84,0.00,6.32,-2.95,6.49,-3.79,0.00,0.05,-0.12,3.65,1100,1100,1100,1100,1026,1502,1505,10542,839
91699,9,0.51,-1.67,-0.21,0.026,-0.029,0.728,-1.49,1.24,0.00,0.00,1.49,-1.24,0.00,5.23,-4.34,4.72,-2.67,0.00,-0.34,0.85,2.09,1100,1100,1100,1100,1026,1502,1505,10538,839
91711,9,0.84,-1.94,0.43,0.002,-0.044,0.947,-1.69,1.02,0.00,0.00,1.69,-1.02,0.00,5.93,-3.55,5.09,-1.61,0.00,-0.11,0.56,-5.65,1100,1100,1100,1100,1027,1505,1502,10529,839
91723,9,2.23,-5.06,0.06,0.092,-0.081,0.814,-2.22,1.58,0.00,0.00,2.22,-1.58,0.00,7.78,-5.53,5.55,-0.47,0.00,-0.56,1.62,1.11,1100,1100,1100,1100,1027,1502,1505,10529,839
91735,9,1.36,-3.85,0.42,0.056,-0.004,0.897,-1.66,1.79,0.00,0.00,1.66,-1.79,0.00,5.80,-6.25,4.45,-2.40,0.00,-0.00,0.44,-3.17,1100,1100,1100,1100,1027,1502,1505,10529,839
91747,9,2.35,-1.14,-0.44,-0.037,-0.027,0.910,-1.58,0.83,0.00,0.00,1.58,-0.83,0.00,5.55,-2.89,3.19,-1.75,0.00,-0.11,-0.68,5.61,1100,1100,1100,1100,1027,1502,1505,10529,880
91759,9,0.88,1.54,-0.43,-0.019,-0.046,0.848,-1.45,0.26,0.00,0.00,1.45,-0.26,0.00,5.07,-0.90,4.18,-2.43,0.00,0.37,-1.52,4.05,1100,1100,1100,1100,1027,1502,1505,10529,880
91771,9,0.84,-2.60,0.00,0.030,-0.017,0.916,-1.62,0.16,0.00,0.00,1.62,-0.16,0.00,5.66,-0.56,4.82,2.04,0.00,0.40,0.71,-2.05,1100,1100,1100,1100,1026,1505,1502,10525,880
91783,9,0.59,1.72,-0.08,-0.028,-0.094,0.883,-1.76,-0.06,0.00,0.00,1.76,0.06,0.00,6.15,0.22,5.56,-1.49,0.00,0.10,-0.69,0.55,1100,1100,1100,1100,1027,1502,1505,10525,880
91795,9,-3.80,3.04,0.60,0.047,-0.010,0.894,-1.04,0.89,0.00,0.00,1.04,-0.89,0.00,3.63,-3.12,7.42,-6.16,0.00,1.99,-1.54,-6.04,1100,1100,1100,1100,1027,1502,1505,10525,880
91807,9,0.11,-0.80,-0.35,0.029,-0.043,0.854,-1.47,0.91,0.00,0.00,1.47,-0.91,0.00,5.13,-3.17,5.02,-2.37,0.00,-0.14,0.54,4.37,1100,1100,1100,1100,1027,1502,1505,10521,880
91819,9,-4.63,4.78,-0.15,-0.089,-0.082,0.897,-1.41,0.33,0.00,0.00,1.41,-0.33,0.00,4.94,-1.14,9.57,-5.92,0.00,1.54,-1.77,0.93,1100,1100,1100,1100,1027,1502,1505,10525,880
91831,9,-0.39,-0.19,0.09,0.044,-0.037,0.929,-1.65,0.23,0.00,0.00,1.65,-0.23,0.00,5.77,-0.81,6.16,-0.62,0.00,-0.10,0.73,-1.97,1100,1100,1100,1100,1027,1505,1502,10529,880
91843,9,0.26,0.68,-0.27,-0.078,-0.149,0.847,-2.30,-0.62,0.00,0.00,2.30,0.62,0.00,8.06,2.16,7.80,1.48,0.00,-0.35,0.25,4.05,1100,1100,1100,1100,1027,1501,1506,10534,760
91855,9,-2.12,-0.18,0.09,-0.061,-0.055,0.924,-2.57,-0.90,0.00,0.00,2.57,0.90,0.00,8.98,3.14,11.10,3.33,0.00,1.29,0.20,-0.81,1100,1100,1100,1100,1027,1501,1506,10542,760
91867,9,3.94,-0.99,-0.14,0.022,-0.066,0.922,-2.84,-1.66,0.00,0.00,2.84,1.66,0.00,9.94,5.82,5.99,6.82,0.00,-1.36,0.83,0.10,1100,1100,1100,1100,1027,1501,1506,10534,760
91879,9,-0.48,0.57,0.33,-0.013,-0.112,0.815,-2.59,-1.19,0.00,0.00,2.59,1.19,0.00,9.07,4.18,9.55,3.61,0.00,1.01,-0.46,-5.27,1100,1100,1100,1100,1027,1501,1506,10538,760
91891,9,1.65,-1.00,0.27,0.051,-0.044,0.984,-2.55,-0.45,0.00,0.00,2.55,0.45,0.00,8.93,1.56,7.28,2.56,0.00,0.09,0.25,-4.05,1100,1100,1100,1100,1026,1504,1503,10529,760
91903,9,-0.44,2.46,-0.63,-0.064,-0.033,0.890,-2.05,-0.69,0.00,0.00,2.05,0.69,0.00,7.18,2.41,7.62,-0.05,0.00,0.63,-1.13,8.26,1100,1100,1100,1100,1026,1501,1506,10529,760
91915,9,-0.76,0.98,-0.02,0.053,0.025,0.841,-1.42,-0.35,0.00,0.00,1.42,0.35,0.00,4.98,1.24,5.74,0.27,0.00,0.72,-0.13,0.35,1100,1100,1100,1100,1026,1501,1506,10546,760
91927,9,-0.76,2.42,-0.27,-0.013,-0.063,0.910,-1.67,-0.40,0.00,0.00,1.67,0.40,0.00,5.86,1.40,6.61,-1.02,0.00,0.24,-0.46,2.52,1100,1100,1100,1100,1027,1501,1506,10546,760
91939,9,-1.41,0.55,-0.64,-0.030,-0.078,0.893,-1.80,-0.50,0.00,0.00,1.80,0.50,0.00,6.31,1.75,7.72,1.20,0.00,0.56,0.42,6.79,1100,1100,1100,1100,1027,1501,1506,10546,760
91951,9,-0.09,1.54,-0.12,-0.073,-0.056,0.943,-2.37,-1.67,0.00,0.00,2.37,1.67,0.00,8.31,5.85,8.40,4.30,0.00,-0.03,0.16,-1.54,1100,1100,1100,1100,1027,1504,1503,10538,760
91963,9,-0.98,2.29,0.08,-0.017,-0.030,0.857,-2.09,-1.92,0.00,0.00,2.09,1.92,0.00,7.32,6.72,8.29,4.43,0.00,0.51,-0.14,-1.72,1100,1100,1100,1100,1027,1501,1506,10538,760
91975,9,0.78,0.18,0.40,0.075,-0.023,0.893,-2.16,-1.63,0.00,0.00,2.16,1.63,0.00,7.57,5.71,6.79,5.53,0.00,-0.02,0.75,-4.89,1100,1100,1100,1100,1027,1501,1506,10542,760
91987,9,1.81,-2.01,-0.48,0.016,-0.108,0.856,-2.23,-0.65,0.00,0.00,2.23,0.65,0.00,7.79,2.28,5.98,4.29,0.00,-0.29,1.04,5.86,1100,1100,1100,1100,1027,1501,1506,10538,760
91999,9,-0.28,-1.28,0.36,0.092,-0.022,0.850,-1.70,0.25,0.00,0.00,1.70,-0.25,0.00,5.97,-0.87,6.25,0.41,0.00,0.79,0.06,-4.47,1100,1100,1100,1100,1027,1501,1506,10529,760
92011,9,0.42,-0.99,-0.09,0.052,-0.021,0.904,-1.86,0.96,0.00,0.00,1.86,-0.96,0.00,6.50,-3.37,6.08,-2.38,0.00,0.44,-0.24,0.68,1100,1100,1100,1100,1027,1504,1503,10538,760
92023,9,-0.46,0.22,0.50,0.043,-0.045,0.848,-1.51,1.42,0.00,0.00,1.51,-1.42,0.00,5.28,-4.97,5.74,-5.18,0.00,0.43,-0.70,-4.72,1100,1100,1100,1100,1027,1500,1507,10546,760
92035,9,-0.68,-1.90,0.53,0.043,-0.020,0.849,-1.42,1.76,0.00,0.00,1.42,-1.76,0.00,4.98,-6.16,5.66,-4.26,0.00,0.50,0.20,-5.99,1100,1100,1100,1100,1027,1500,1507,10546,760
92047,9,1.53,-0.77,-0.86,-0.041,-0.114,0.880,-1.67,1.34,0.00,0.00,1.67,-1.34,0.00,5.86,-4.70,4.33,-3.93,0.00,-0.62,-0.06,11.76,1100,1100,1100,1100,1027,1501,1506,10546,760
92059,9,-2.18,2.66,0.04,-0.134,-0.111,1.018,-1.80,0.40,0.00,0.00,1.80,-0.40,0.00,6.29,-1.40,8.47,-4.06,0.00,1.20,-1.49,-0.68,1100,1100,1100,1100,1027,1501,1506,10542,760
92071,9,1.95,-2.41,0.03,0.041,-0.053,0.871,-2.17,0.03,0.00,0.00,2.17,-0.03,0.00,7.60,-0.09,5.65,2.32,0.00,-0.53,1.30,-1.14,1100,1100,1100,1100,1027,1503,1504,10534,760
92083,9,-0.43,0.70,0.18,0.036,-0.050,0.778,-2.01,-0.01,0.00,0.00,2.01,0.01,0.00,7.04,0.02,7.48,-0.68,0.00,0.50,-0.27,-2.34,1100,1100,1100,1100,1027,1500,1507,10529,760
92095,9,-0.67,-1.20,0.10,0.061,-0.027,0.915,-1.94,0.75,0.00,0.00,1.94,-0.75,0.00,6.81,-2.61,7.48,-1.41,0.00,0.78,0.25,-2.08,1100,1100,1100,1100,1027,1500,1507,10538,760
92107,9,1.24,1.06,-0.61,-0.008,-0.076,0.926,-2.00,0.28,0.00,0.00,2.00,-0.28,0.00,7.01,-0.96,5.78,-2.02,0.00,-0.40,-0.60,6.35,1100,1100,1100,1100,1027,1501,1506,10534,760
92119,9,-1.63,-0.52,0.13,0.016,-0.007,0.824,-1.48,0.85,0.00,0.00,1.48,-0.85,0.00,5.18,-2.97,6.81,-2.45,0.00,1.16,-0.23,-2.51,1100,1100,1100,1100,1027,1501,1506,10534,760
92131,9,2.19,-0.14,0.41,0.027,-0.042,0.890,-1.86,0.22,0.00,0.00,1.86,-0.22,0.00,6.52,-0.79,4.33,-0.64,0.00,-0.65,-0.04,-4.86,1100,1100,1100,1100,1026,1503,1504,10550,760
92143,9,-1.12,0.70,-0.05,-0.056,-0.072,0.905,-1.89,-0.12,0.00,0.00,1.89,0.12,0.00,6.62,0.42,7.74,-0.29,0.00,0.79,-0.43,1.24,1100,1100,1100,1100,1027,1500,1507,10550,760
92155,9,1.91,-2.55,-0.41,0.039,-0.086,0.912,-2.47,-0.46,0.00,0.00,2.47,0.46,0.00,8.64,1.60,6.73,4.15,0.00,-0.21,1.16,4.84,1100,1100,1100,1100,1027,1500,1507,10542,760
92167,9,-0.80,3.21,-0.75,-0.103,-0.103,0.863,-2.81,-1.02,0.00,0.00,2.81,1.02,0.00,9.84,3.58,10.64,0.37,0.00,0.80,-1.47,8.06,1100,1100,1100,1100,1027,1500,1507,10534,760
92179,9,-1.07,0.13,0.21,0.042,0.032,0.954,-2.25,-0.51,0.00,0.00,2.25,0.51,0.00,7.86,1.78,8.94,1.65,0.00,0.94,0.17,-3.73,1100,1100,1100,1100,1027,1500,1507,10525,760
92191,9,3.72,-1.04,0.01,-0.015,-0.098,0.947,-2.43,-0.62,0.00,0.00,2.43,0.62,0.00,8.50,2.17,4.78,3.20,0.00,-1.27,0.84,-0.96,1100,1100,1100,1100,1027,1503,1504,10525,760
92203,9,-1.83,0.25,0.16,0.028,-0.075,0.772,-2.04,-0.23,0.00,0.00,2.04,0.23,0.00,7.15,0.79,8.98,0.54,0.00,1.56,-0.18,-2.30,1100,1100,1100,1100,1027,1500,1507,10529,760
92215,9,0.50,1.43,0.02,-0.010,-0.043,0.961,-2.22,-0.77,0.00,0.00,2.22,0.77,0.00,7.76,2.70,7.26,1.27,0.00,0.35,-0.60,-2.09,1100,1100,1100,1100,1027,1500,1507,10529,760
92227,9,-1.35,4.06,-0.70,-0.067,-0.108,0.931,-1.99,-0.69,0.00,0.00,1.99,0.69,0.00,6.98,2.40,8.33,-1.66,0.00,0.78,-1.43,8.02,1100,1100,1100,1100,1027,1500,1507,10529,760
92239,9,-0.60,0.28,0.48,0.066,0.018,0.877,-1.92,-0.25,0.00,0.00,1.92,0.25,0.00,6.74,0.87,7.34,0.60,0.00,0.49,0.42,-6.81,1100,1100,1100,1100,1027,1500,1507,10529,760
92251,9,-0.48,-0.71,-0.57,0.010,-0.096,0.826,-2.27,0.21,0.00,0.00,2.27,-0.21,0.00,7.95,-0.72,8.43,-0.01,0.00,0.07,0.75,6.55,1100,1100,1100,1100,1027,1503,1504,10529,760
92263,9,-0.03,-0.82,-0.36,-0.003,-0.006,0.905,-1.83,0.19,0.00,0.00,1.83,-0.19,0.00,6.41,-0.66,6.44,0.16,0.00,-0.19,0.57,2.97,1100,1100,1100,1100,1027,1500,1507,10529,760
92275,9,1.45,-0.65,-0.34,-0.091,-0.112,0.976,-2.42,-0.94,0.00,0.00,2.42,0.94,0.00,8.45,3.31,7.00,3.96,0.00,-0.48,0.65,1.34,1100,1100,1100,1100,1027,1500,1507,10534,760
92287,9,-0.06,0.32,-0.27,-0.014,-0.085,0.836,-2.64,-1.43,0.00,0.00,2.64,1.43,0.00,9.23,5.02,9.29,4.70,0.00,0.43,0.28,1.73,1100,1100,1100,1100,1027,1500,1507,10546,760
92299,9,0.60,-0.76,0.08,0.009,-0.021,0.911,-2.69,-1.47,0.00,0.00,2.69,1.47,0.00,9.42,5.14,8.82,5.89,0.00,0.39,0.49,-1.94,1100,1100,1100,1100,1027,1500,1507,10542,760
92311,9,1.06,0.45,0.02,0.045,-0.104,0.791,-2.84,-0.96,0.00,0.00,2.84,0.96,0.00,9.92,3.37,8.86,2.92,0.00,0.05,0.12,-1.12,1100,1100,1100,1100,1027,1503,1504,10542,760
92323,9,-0.78,1.57,0.24,0.027,-0.034,0.976,-2.19,-0.31,0.00,0.00,2.19,0.31,0.00,7.68,1.09,8.46,-0.48,0.00,0.64,-0.51,-4.00,1100,1100,1100,1100,1027,1504,1503,10542,760
92335,9,1.76,-0.85,-0.68,-0.002,0.009,0.926,-1.73,0.01,0.00,0.00,1.73,-0.01,0.00,6.07,-0.02,4.31,0.83,0.00,-0.36,0.51,6.47,1100,1100,1100,1100,1027,1504,1503,10534,760
92347,9,0.61,-1.11,-0.09,0.004,-0.049,0.718,-1.61,0.37,0.00,0.00,1.61,-0.37,0.00,5.64,-1.31,5.03,-0.20,0.00,0.12,0.36,0.12,1100,1100,1100,1100,1027,1504,1503,10529,760
92359,9,-0.98,-1.28,0.57,0.066,-0.025,0.889,-1.66,0.85,0.00,0.00,1.66,-0.85,0.00,5.80,-2.97,6.78,-1.69,0.00,0.88,0.09,-6.85,1100,1100,1100,1100,1027,1500,1503,10529,760
92371,9,3.14,-1.92,-0.49,-0.031,-0.099,0.941,-2.27,0.29,0.00,0.00,2.27,-0.29,0.00,7.95,-1.03,4.81,0.88,0.00,-1.06,0.57,7.05,1100,1100,1100,1100,1027,1500,1507,10534,760
92383,9,-1.85,1.21,-0.19,-0.089,-0.096,0.895,-2.13,-0.13,0.00,0.00,2.13,0.13,0.00,7.45,0.46,9.30,-0.75,0.00,1.31,-0.99,2.20,1100,1100,1100,1100,1027,1504,1503,10534,760
92395,9,0.33,-0.03,-0.17,0.062,-0.003,0.839,-2.19,-0.57,0.00,0.00,2.19,0.57,0.00,7.67,2.00,7.34,2.03,0.00,0.22,0.29,-0.28,1100,1100,1100,1100,1027,1504,1503,10538,760
92407,9,-0.34,1.43,0.04,0.030,-0.032,0.900,-1.54,-0.03,0.00,0.00,1.54,0.03,0.00,5.38,0.12,5.71,-1.31,0.00,0.10,-0.28,-1.20,1100,1100,1100,1100,1027,1504,1504,10538,760
92419,9,0.02,-1.45,0.89,0.053,-0.013,0.908,-1.27,0.60,0.00,0.00,1.27,-0.60,0.00,4.43,-2.12,4.41,-0.67,0.00,0.36,0.56,-10.81,1100,1100,1100,1100,1027,1504,1504,10534,760
92431,9,1.80,0.07,-0.40,-0.016,-0.095,0.850,-1.67,0.38,0.00,0.00,1.67,-0.38,0.00,5.83,-1.31,4.04,-1.38,0.00,-0.60,-0.27,7.21,1100,1100,1100,1100,1027,1502,1505,10538,760
92443,9,-3.06,1.08,-0.11,-0.015,-0.046,0.894,-1.66,0.33,0.00,0.00,1.66,-0.33,0.00,5.82,-1.15,8.88,-2.23,0.00,1.64,-0.64,2.73,1100,1100,1100,1100,1027,1503,1504,10534,760
92455,9,2.06,-0.46,-0.35,0.019,-0.048,0.940,-2.28,-0.11,0.00,0.00,2.28,0.11,0.00,7.97,0.38,5.91,0.84,0.00,-0.81,0.51,3.01,1100,1100,1100,1100,1027,1503,1504,10546,760
92467,9,-0.99,-0.59,0.28,-0.026,-0.020,0.771,-1.87,-0.16,0.00,0.00,1.87,0.16,0.00,6.54,0.56,7.53,1.16,0.00,0.44,0.29,-4.02,1100,1100,1100,1100,1027,1499,1508,10546,760
92479,9,1.33,-2.31,0.26,-0.006,-0.057,0.942,-2.07,-0.55,0.00,0.00,2.07,0.55,0.00,7.24,1.94,5.92,4.25,0.00,-0.33,1.09,-2.51,1100,1100,1100,1100,1027,1499,1508,10542,760
92491,9,0.62,2.80,-0.57,-0.087,-0.122,0.967,-2.17,-1.26,0.00,0.00,2.17,1.26,0.00,7.61,4.43,6.99,1.63,0.00,-0.07,-1.01,8.44,1100,1100,1100,1100,1027,1502,1505,10529,760
92503,9,-0.52,-1.69,-0.41,0.052,-0.008,0.835,-1.86,-0.32,0.00,0.00,1.86,0.32,0.00,6.52,1.12,7.04,2.81,0.00,0.84,0.66,4.71,1100,1100,1100,1100,1027,1503,1504,10529,760
92515,9,1.19,-1.60,-0.09,0.030,-0.088,0.875,-2.24,-0.23,0.00,0.00,2.24,0.23,0.00,7.83,0.80,6.64,2.40,0.00,-0.17,0.70,-0.79,1100,1100,1100,1100,1027,1503,1504,10529,760
92527,9,-2.25,2.08,0.59,-0.022,-0.048,0.860,-2.01,-0.32,0.00,0.00,2.01,0.32,0.00,7.03,1.12,9.28,-0.96,0.00,1.38,-1.05,-8.70,1100,1100,1100,1100,1027,1500,1507,10529,760
92539,9,2.31,0.74,0.25,0.003,-0.051,0.940,-2.41,-1.08,0.00,0.00,2.41,1.08,0.00,8.45,3.79,6.13,3.05,0.00,-0.56,0.01,-3.04,1100,1100,1100,1100,1027,1500,1507,10538,760
92551,9,-1.33,2.18,-0.55,-0.082,-0.111,0.860,-2.33,-1.17,0.00,0.00,2.33,1.17,0.00,8.16,4.10,9.50,1.92,0.00,0.91,-0.57,7.65,1100,1100,1100,1100,1027,1502,1505,10534,760
92564,9,-1.11,0.86,-0.28,0.030,-0.012,0.925,-1.96,-0.67,0.00,0.00,1.96,0.67,0.00,6.87,2.36,7.98,1.50,0.00,0.76,-0.02,2.70,1100,1100,1100,1100,1027,1503,1504,10529,760
92575,9,2.94,-0.47,-0.31,-0.074,-0.090,0.911,-2.18,-1.08,0.00,0.00,2.18,1.08,0.00,7.63,3.77,4.70,4.24,0.00,-1.10,0.48,1.36,1100,1100,1100,1100,1027,1503,1504,10529,760
92587,9,-0.73,2.32,0.23,-0.095,-0.110,0.904,-2.21,-1.61,0.00,0.00,2.21,1.61,0.00,7.75,5.64,8.48,3.33,0.00,0.87,-0.69,-3.49,1100,1100,1100,1100,1027,1503,1504,10525,760
92599,9,-0.84,2.43,0.28,-0.047,-0.078,0.990,-2.47,-1.96,0.00,0.00,2.47,1.96,0.00,8.65,6.86,9.48,4.43,0.00,0.77,-0.30,-3.18,1100,1100,1100,1100,1027,1503,1504,10517,760
92611,9,0.98,-0.80,-0.88,0.050,-0.006,0.841,-1.88,-1.30,0.00,0.00,1.88,1.30,0.00,6.56,4.55,5.58,5.36,0.00,-0.33,1.22,10.87,1100,1100,1100,1100,1027,1502,1505,10529,760
92623,9,1.21,-2.25,0.09,0.057,-0.024,0.835,-1.99,-0.55,0.00,0.00,1.99,0.55,0.00,6.96,1.92,5.75,4.18,0.00,0.00,1.12,-3.55,1100,1100,1100,1100,1027,1503,1504,10529,760
92635,9,-0.11,-1.02,0.03,0.057,-0.117,0.799,-2.14,0.60,0.00,0.00,2.14,-0.60,0.00,7.48,-2.08,7.59,-1.06,0.00,0.57,0.13,-1.48,1100,1100,1100,1100,1027,1503,1504,10529,760
92647,9,-0.50,-2.18,0.87,0.058,-0.017,0.940,-1.67,0.78,0.00,0.00,1.67,-0.78,0.00,5.85,-2.73,6.35,-0.55,0.00,0.40,0.62,-9.02,1100,1100,1100,1100,1027,1503,1504,10534,760
92659,9,2.43,-1.67,-0.31,0.035,-0.045,0.906,-1.70,1.19,0.00,0.00,1.70,-1.19,0.00,5.97,-4.18,3.53,-2.51,0.00,-0.62,0.07,4.61,1100,1100,1100,1100,1027,1503,1504,10538,760
92671,9,0.11,0.83,-0.13,-0.034,-0.064,0.766,-1.89,0.80,0.00,0.00,1.89,-0.80,0.00,6.62,-2.82,6.51,-3.64,0.00,0.46,-1.15,2.12,1100,1100,1100,1100,1027,1502,1505,10542,760
92683,9,-1.46,-1.62,-0.08,0.006,0.009,0.919,-1.72,0.46,0.00,0.00,1.72,-0.46,0.00,6.01,-1.60,7.47,0.02,0.00,1.03,0.31,-0.10,1100,1100,1100,1100,1027,1503,1504,10538,760
92695,9,1.75,1.00,-0.52,-0.013,-0.080,0.936,-1.84,-0.42,0.00,0.00,1.84,0.42,0.00,6.44,1.48,4.69,0.48,0.00,-0.80,-0.10,6.30,1100,1100,1100,1100,1027,1503,1504,10529,760
92707,9,-2.72,2.71,0.77,-0.033,-0.066,0.920,-1.45,-0.16,0.00,0.00,1.45,0.16,0.00,5.07,0.56,7.80,-2.15,0.00,1.43,-1.15,-9.04,1100,1100,1100,1100,1027,1502,1505,10534,760
92719,9,0.30,-1.98,-0.30,0.088,-0.022,0.800,-1.64,0.66,0.00,0.00,1.64,-0.66,0.00,5.73,-2.31,5.42,-0.33,0.00,-0.07,1.09,4.13,1100,1100,1100,1100,1027,1502,1505,10534,760
92731,9,-1.05,-0.26,-0.20,-0.037,-0.081,0.897,-1.81,0.65,0.00,0.00,1.81,-0.65,0.00,6.35,-2.26,7.40,-2.00,0.00,0.28,0.03,2.41,1100,1100,1100,1100,1027,1501,1506,10538,760
92743,9,0.02,-2.12,0.20,0.060,-0.067,0.862,-2.10,0.62,0.00,0.00,2.10,-0.62,0.00,7.35,-2.15,7.33,-0.04,0.00,0.34,0.67,-4.15,1100,1100,1100,1100,1027,1502,1505,10538,760
92755,9,0.69,1.86,-0.18,-0.091,-0.136,0.895,-2.73,-0.69,0.00,0.00,2.73,0.69,0.00,9.56,2.40,8.87,0.54,0.00,-0.02,-0.85,1.75,1100,1100,1100,1100,1027,1502,1505,10529,760
92768,9,-1.54,0.38,0.29,-0.009,-0.009,0.930,-2.18,-0.45,0.00,0.00,2.18,0.45,0.00,7.65,1.58,9.19,1.20,0.00,1.18,-0.29,-3.06,1100,1100,1100,1100,1027,1502,1505,10529,760
92779,9,3.46,-0.88,-0.14,0.017,-0.071,0.861,-2.59,-0.76,0.00,0.00,2.59,0.76,0.00,9.07,2.67,5.61,3.55,0.00,-1.22,0.49,1.76,1100,1100,1100,1100,1027,1502,1505,10525,760
92791,9,-1.20,0.47,-0.23,-0.041,-0.081,0.885,-2.13,-0.32,0.00,0.00,2.13,0.32,0.00,7.47,1.11,8.67,0.64,0.00,0.96,-0.37,1.81,1100,1100,1100,1100,1027,1501,1506,10538,760
92803,9,0.54,-0.81,-0.29,0.017,-0.022,0.935,-2.23,-0.85,0.00,0.00,2.23,0.85,0.00,7.81,2.98,7.27,3.78,0.00,0.27,0.67,1.50,1100,1100,1100,1100,1027,1502,1505,10529,760
92815,9,-1.00,2.29,-0.20,-0.035,-0.090,0.892,-2.11,-0.78,0.00,0.00,2.11,0.78,0.00,7.39,2.75,8.38,0.46,0.00,0.57,-0.70,1.46,1100,1100,1100,1100,1027,1502,1505,10529,760
92827,9,-0.63,0.01,-0.18,0.053,0.014,0.872,-1.88,-0.55,0.00,0.00,1.88,0.55,0.00,6.60,1.94,7.22,1.93,0.00,0.65,0.29,1.15,1100,1100,1100,1100,1027,1502,1505,10534,760
92839,9,1.07,0.12,-0.26,-0.049,-0.113,0.878,-2.58,-1.05,0.00,0.00,2.58,1.05,0.00,9.04,3.67,7.97,3.55,0.00,-0.29,0.48,1.65,1100,1100,1100,1100,1027,1502,1505,10529,760
92851,9,-1.89,1.40,0.33,0.019,-0.036,0.864,-2.08,-0.86,0.00,0.00,2.08,0.86,0.00,7.27,3.01,9.16,1.61,0.00,1.14,-0.30,-4.99,1100,1100,1100,1100,1027,1501,1506,10529,760
92863,9,2.42,-0.51,-0.16,0.022,-0.047,0.915,-2.34,-1.16,0.00,0.00,2.34,1.16,0.00,8.19,4.06,5.77,4.57,0.00,-0.66,0.61,0.99,1100,1100,1100,1100,1027,1502,1505,10534,760
92875,9,-0.85,0.88,-0.12,-0.009,-0.086,0.847,-1.95,-0.44,0.00,0.00,1.95,0.44,0.00,6.82,1.53,7.68,0.65,0.00,0.78,-0.42,1.64,1100,1100,1100,1100,1027,1502,1505,10529,760
92887,9,0.47,-1.80,0.38,0.074,0.019,0.897,-1.74,-0.03,0.00,0.00,1.74,0.03,0.00,6.08,0.10,5.60,1.89,0.00,0.32,0.66,-4.91,1100,1100,1100,1100,1027,1502,1505,10529,760
92899,9,1.17,-0.64,-0.34,-0.010,-0.085,0.834,-1.67,0.21,0.00,0.00,1.67,-0.21,0.00,5.84,-0.74,4.67,-0.10,0.00,-0.34,0.10,4.47,1100,1100,1100,1100,1027,1502,1505,10521,760
92911,9,-1.64,0.69,0.21,-0.002,-0.077,0.928,-1.56,0.18,0.00,0.00,1.56,-0.18,0.00,5.45,-0.64,7.09,-1.33,0.00,0.99,-0.35,-2.42,1100,1100,1100,1100,1027,1501,1506,10513,760
92923,9,0.26,0.37,0.09,0.053,-0.064,0.914,-1.81,0.71,0.00,0.00,1.81,-0.71,0.00,6.32,-2.48,6.06,-2.86,0.00,0.04,-0.06,-2.12,1100,1100,1100,1100,1027,1502,1505,10525,760
92935,9,0.37,-1.64,-0.01,0.037,-0.005,0.750,-1.37,1.18,0.00,0.00,1.37,-1.18,0.00,4.81,-4.14,4.44,-2.50,0.00,-0.08,0.68,0.25,1100,1100,1100,1100,1027,1502,1505,10513,760
92947,9,1.57,-3.58,0.51,0.037,-0.084,0.897,-1.64,1.27,0.00,0.00,1.64,-1.27,0.00,5.75,-4.43,4.19,-0.85,0.00,-0.30,1.15,-5.38,1100,1100,1100,1100,1027,1502,1505,10513,760
92959,9,0.94,-3.23,-0.17,0.043,-0.077,0.833,-1.93,1.57,0.00,0.00,1.93,-1.57,0.00,6.76,-5.51,5.82,-2.27,0.00,0.05,0.50,2.88,1100,1100,1100,1100,1027,1502,1505,10529,760
92971,9,-0.69,-1.89,0.16,0.019,-0.051,0.919,-2.00,1.38,0.00,0.00,2.00,-1.38,0.00,6.99,-4.83,7.68,-2.95,0.00,0.88,-0.30,-1.19,1100,1100,1100,1100,1027,1501,1506,10513,760
92983,9,0.47,1.10,0.01,-0.021,-0.052,0.895,-1.93,0.69,0.00,0.00,1.93,-0.69,0.00,6.74,-2.43,6.27,-3.53,0.00,0.17,-1.19,-0.64,1100,1100,1100,1100,1027,1500,1507,10521,760
92995,9,-0.63,3.15,-0.09,-0.052,-0.039,0.880,-1.56,0.12,0.00,0.00,1.56,-0.12,0.00,5.47,-0.42,6.10,-3.56,0.00,0.38,-1.54,2.11,1100,1100,1100,1100,1027,1500,1507,10529,760
93007,9,-0.14,-0.57,0.20,-0.011,0.010,0.931,-1.32,-0.18,0.00,0.00,1.32,0.18,0.00,4.62,0.64,4.76,1.21,0.00,0.19,0.59,-2.95,1100,1100,1100,1100,1027,1501,1506,10534,760
93019,9,0.79,0.31,-0.91,-0.028,-0.120,0.829,-1.97,-0.95,0.00,0.00,1.97,0.95,0.00,6.90,3.31,6.11,2.99,0.00,-0.30,0.56,10.60,1100,1100,1100,1100,1027,1501,1506,10546,760
93031,9,-2.03,2.22,0.41,-0.040,-0.069,0.967,-1.90,-0.78,0.00,0.00,1.90,0.78,0.00,6.64,2.75,8.67,0.53,0.00,1.16,-0.86,-5.66,1100,1100,1100,1100,1027,1500,1507,10534,760
93043,9,3.12,-3.25,0.26,0.050,-0.020,0.862,-2.13,-0.64,0.00,0.00,2.13,0.64,0.00,7.46,2.24,4.34,5.50,0.00,-0.96,1.65,-3.60,1100,1100,1100,1100,1027,1501,1506,10529,760
93055,9,-0.45,-0.59,0.58,-0.004,-0.087,0.810,-2.25,-0.38,0.00,0.00,2.25,0.38,0.00,7.87,1.32,8.32,1.91,0.00,0.69,0.08,-5.05,1100,1100,1100,1100,1027,1501,1506,10542,760
93067,9,-1.02,-0.08,0.14,0.018,-0.024,0.950,-2.03,-0.26,0.00,0.00,2.03,0.26,0.00,7.11,0.91,8.14,0.99,0.00,0.99,-0.22,-0.69,1100,1100,1100,1100,1027,1501,1506,10538,760
93079,9,2.03,0.50,-0.76,0.007,-0.077,0.911,-1.95,-0.74,0.00,0.00,1.95,0.74,0.00,6.84,2.59,4.81,2.10,0.00,-0.63,0.03,9.65,1100,1100,1100,1100,1027,1500,1506,10529,760
93091,9,-1.63,0.88,0.34,-0.019,-0.025,0.840,-1.84,-0.15,0.00,0.00,1.84,0.15,0.00,6.45,0.54,8.08,-0.34,0.00,1.32,-0.54,-5.17,1100,1100,1100,1100,1027,1500,1506,10525,760
93103,9,1.79,-1.26,-0.01,0.028,-0.067,0.876,-2.38,-0.17,0.00,0.00,2.38,0.17,0.00,8.34,0.60,6.54,1.86,0.00,-0.37,0.63,0.22,1100,1100,1100,1100,1027,1501,1505,10529,760
93115,9,-1.05,-0.04,-0.06,-0.041,-0.071,0.897,-2.34,-0.32,0.00,0.00,2.34,0.32,0.00,8.21,1.14,9.26,1.17,0.00,0.69,-0.11,0.80,1100,1100,1100,1100,1027,1501,1505,10525,760
93127,9,1.43,-2.15,-0.58,0.049,-0.033,0.898,-2.50,-0.37,0.00,0.00,2.50,0.37,0.00,8.74,1.30,7.30,3.45,0.00,-0.12,0.91,5.58,1100,1100,1100,1100,1027,1501,1506,10534,760
93139,9,-0.98,3.81,0.00,-0.120,-0.118,0.905,-2.62,-1.11,0.00,0.00,2.62,1.11,0.00,9.17,3.90,10.15,0.09,0.00,0.63,-1.52,-0.68,1100,1100,1100,1100,1027,1501,1506,10534,760
93151,9,-1.58,-0.74,0.13,0.037,0.022,0.931,-1.83,-0.68,0.00,0.00,1.83,0.68,0.00,6.41,2.37,8.00,3.11,0.00,0.88,0.69,-0.94,1100,1100,1100,1100,1027,1500,1507,10546,760
93163,9,2.81,-0.94,-0.05,-0.011,-0.085,0.897,-2.22,-0.93,0.00,0.00,2.22,0.93,0.00,7.78,3.25,4.98,4.19,0.00,-1.06,0.87,0.85,1100,1100,1100,1100,1027,1501,1506,10542,760
93175,9,-2.29,2.08,0.01,-0.039,-0.080,0.841,-2.05,-0.97,0.00,0.00,2.05,0.97,0.00,7.19,3.41,9.48,1.32,0.00,1.46,-0.76,-0.83,1100,1100,1100,1100,1027,1501,1506,10529,760
93187,9,0.08,0.68,0.10,-0.016,-0.056,0.999,-2.42,-1.47,0.00,0.00,2.42,1.47,0.00,8.46,5.15,8.38,4.46,0.00,0.29,0.16,-1.74,1100,1100,1100,1100,1027,1500,1507,10538,760
93199,9,0.63,1.42,-0.69,-0.076,-0.110,0.885,-2.43,-1.87,0.00,0.00,2.43,1.87,0.00,8.49,6.54,7.86,5.12,0.00,-0.05,-0.07,7.90,1100,1100,1100,1100,1027,1500,1507,10529,760
93211,9,0.33,0.30,-0.30,0.050,0.026,0.789,-2.33,-1.28,0.00,0.00,2.33,1.28,0.00,8.15,4.47,7.81,4.18,0.00,0.55,0.08,2.77,1100,1100,1100,1100,1027,1500,1507,10529,760
93223,9,0.75,0.10,0.14,-0.014,-0.043,0.905,-2.33,-1.06,0.00,0.00,2.33,1.06,0.00,8.16,3.72,7.41,3.61,0.00,-0.05,0.33,-3.85,1100,1100,1100,1100,1027,1500,1507,10529,760
93235,9,-0.23,-0.11,-0.23,-0.000,-0.025,0.941,-1.54,-0.92,0.00,0.00,1.54,0.92,0.00,5.40,3.21,5.63,3.32,0.00,0.39,0.27,2.36,1100,1100,1100,1100,1027,1500,1507,10525,760
93247,9,1.99,0.25,0.02,-0.064,-0.094,0.937,-1.97,-1.61,0.00,0.00,1.97,1.61,0.00,6.88,5.63,4.89,5.38,0.00,-0.36,0.24,-2.14,1100,1100,1100,1100,1027,1501,1506,10525,760
93259,9,-1.95,3.16,-0.46,-0.005,-0.038,0.792,-1.89,-1.39,0.00,0.00,1.89,1.39,0.00,6.60,4.87,8.55,1.71,0.00,1.29,-0.90,4.78,1100,1100,1100,1100,1027,1501,1506,10517,760
93271,9,-1.27,0.35,1.12,0.033,-0.052,0.923,-2.07,-0.81,0.00,0.00,2.07,0.81,0.00,7.25,2.84,8.52,2.48,0.00,0.76,0.50,-13.20,1100,1100,1100,1100,1027,1500,1507,10513,760
93283,9,1.06,-0.13,-0.37,0.026,-0.090,0.893,-1.87,-0.40,0.00,0.00,1.87,0.40,0.00,6.55,1.39,5.49,1.52,0.00,-0.30,0.38,5.53,1100,1100,1100,1100,1027,1500,1506,10513,760
93295,9,-0.39,-0.77,-0.02,0.061,-0.039,0.806,-1.80,0.49,0.00,0.00,1.80,-0.49,0.00,6.31,-1.70,6.70,-0.93,0.00,0.61,0.09,0.53,1100,1100,1100,1100,1027,1500,1506,10525,760
93307,9,-0.69,-0.49,-0.43,0.066,-0.032,0.925,-1.96,1.45,0.00,0.00,1.96,-1.45,0.00,6.86,-5.07,7.54,-4.58,0.00,0.60,-0.22,3.36,1100,1100,1100,1100,1027,1500,1506,10521,760
93319,9,1.39,-1.57,0.12,0.007,-0.044,0.842,-1.81,1.20,0.00,0.00,1.81,-1.20,0.00,6.34,-4.20,4.95,-2.63,0.00,-0.51,0.20,-0.76,1100,1100,1100,1100,1027,1500,1506,10525,760
93331,9,1.87,-2.14,0.75,0.029,-0.016,0.843,-1.59,1.01,0.00,0.00,1.59,-1.01,0.00,5.55,-3.55,3.68,-1.41,0.00,-0.31,0.35,-8.79,1100,1100,1100,1100,1027,1500,1507,10529,760
93343,9,1.72,-2.23,-0.73,-0.002,-0.073,0.873,-1.91,0.81,0.00,0.00,1.91,-0.81,0.00,6.69,-2.84,4.97,-0.61,0.00,-0.21,0.40,11.08,1100,1100,1100,1100,1027,1500,1506,10529,760
93355,9,-2.63,-0.33,0.25,-0.065,-0.087,1.001,-1.76,0.55,0.00,0.00,1.76,-0.55,0.00,6.16,-1.93,8.78,-1.60,0.00,1.54,-0.46,-2.32,1100,1100,1100,1100,1027,1500,1506,10525,760
93367,9,1.15,-1.71,-0.25,0.054,0.034,0.869,-1.58,0.21,0.00,0.00,1.58,-0.21,0.00,5.54,-0.72,4.38,0.99,0.00,-0.30,0.56,1.99,1100,1100,1100,1100,1027,1500,1507,10529,760
93379,9,-0.02,1.87,0.54,0.000,-0.067,0.795,-1.73,0.06,0.00,0.00,1.73,-0.06,0.00,6.06,-0.20,6.08,-2.07,0.00,0.21,-0.84,-6.49,1100,1100,1100,1100,1027,1500,1507,10525,760
93391,9,-1.20,-1.06,0.46,0.057,-0.080,0.883,-1.93,0.60,0.00,0.00,1.93,-0.60,0.00,6.75,-2.11,7.95,-1.04,0.00,0.87,0.40,-4.97,1100,1100,1100,1100,1027,1502,1505,10529,760
93403,9,1.61,-1.73,-0.42,-0.023,-0.091,0.900,-2.08,0.15,0.00,0.00,2.08,-0.15,0.00,7.28,-0.54,5.66,1.19,0.00,-0.66,0.75,7.18,1100,1100,1100,1100,1027,1500,1507,10529,760
93415,9,0.14,0.70,-0.01,-0.030,-0.020,0.878,-1.66,0.15,0.00,0.00,1.66,-0.15,0.00,5.82,-0.53,5.69,-1.23,0.00,0.46,-0.84,0.05,1100,1100,1100,1100,1027,1500,1507,10529,760
93427,9,2.31,-0.75,-0.07,-0.024,-0.105,0.875,-2.68,-0.66,0.00,0.00,2.68,0.66,0.00,9.37,2.30,7.07,3.04,0.00,-0.42,0.33,0.04,1100,1100,1100,1100,1028,1500,1507,10534,760
93439,9,-3.22,2.00,0.60,-0.016,-0.074,0.896,-2.22,-0.17,0.00,0.00,2.22,0.17,0.00,7.78,0.60,11.00,-1.40,0.00,1.77,-0.97,-7.02,1100,1100,1100,1100,1028,1500,1507,10529,760
93451,9,0.80,-0.18,-0.33,0.043,0.005,0.934,-2.04,-0.39,0.00,0.00,2.04,0.39,0.00,7.14,1.36,6.35,1.54,0.00,-0.11,0.44,4.52,1100,1100,1100,1100,1028,1506,1501,10538,760
93463,9,-0.56,3.24,-0.59,-0.068,-0.108,0.888,-1.85,-0.49,0.00,0.00,1.85,0.49,0.00,6.46,1.71,7.02,-1.54,0.00,0.22,-0.98,7.27,1100,1100,1100,1100,1028,1500,1507,10529,760
93475,9,-2.48,1.11,-0.54,0.008,-0.019,0.898,-1.95,-0.45,0.00,0.00,1.95,0.45,0.00,6.84,1.59,9.33,0.48,0.00,1.32,0.03,4.00,1100,1100,1100,1100,1028,1500,1507,10534,760
93488,9,3.33,-1.34,0.03,-0.022,-0.104,0.899,-2.61,-0.94,0.00,0.00,2.61,0.94,0.00,9.14,3.28,5.81,4.62,0.00,-1.43,1.32,-2.89,1100,1100,1100,1100,1028,1500,1507,10529,760
93499,9,-1.81,0.81,0.41,-0.011,-0.085,0.851,-2.52,-0.72,0.00,0.00,2.52,0.72,0.00,8.83,2.52,10.64,1.71,0.00,1.19,-0.23,-6.07,1100,1100,1100,1100,1028,1500,1507,10534,760
93511,9,1.42,-2.04,-0.10,0.027,-0.088,0.967,-2.94,-0.48,0.00,0.00,2.94,0.48,0.00,10.28,1.69,8.86,3.73,0.00,-0.07,0.92,1.72,1100,1100,1100,1100,1030,1506,1501,10534,760
93523,9,-0.56,-0.01,-0.54,0.047,-0.017,0.767,-2.18,0.47,0.00,0.00,2.18,-0.47,0.00,7.61,-1.63,8.17,-1.62,0.00,0.65,-0.41,6.26,1100,1100,1100,1100,1030,1501,1506,10534,760
93535,9,0.86,-1.57,-0.26,0.059,0.017,0.858,-1.98,0.66,0.00,0.00,1.98,-0.66,0.00,6.91,-2.32,6.05,-0.75,0.00,0.17,0.20,1.29,1100,1100,1100,1100,1030,1501,1506,10529,760
93547,9,0.39,0.48,-0.04,0.005,-0.094,0.943,-1.70,0.97,0.00,0.00,1.70,-0.97,0.00,5.95,-3.41,5.55,-3.89,0.00,0.08,-0.67,-0.98,1100,1100,1100,1100,1030,1500,1508,10534,760
93559,9,-1.88,0.17,0.27,0.025,0.010,0.829,-1.11,1.19,0.00,0.00,1.11,-1.19,0.00,3.89,-4.15,5.76,-4.32,0.00,1.15,-0.50,-3.03,1100,1100,1100,1100,1030,1500,1508,10529,760
93571,9,0.09,1.20,0.59,-0.026,-0.083,0.981,-1.49,0.63,0.00,0.00,1.49,-0.63,0.00,5.21,-2.19,5.12,-3.39,0.00,-0.02,-0.55,-6.13,1100,1100,1100,1100,1032,1505,1502,10529,760
93583,9,-2.04,1.49,-0.14,0.055,-0.013,0.804,-1.50,0.60,0.00,0.00,1.50,-0.60,0.00,5.24,-2.12,7.28,-3.60,0.00,0.99,-0.57,2.73,1100,1100,1100,1100,1032,1499,1508,10529,760
93595,9,2.01,-2.46,0.12,0.100,-0.043,0.837,-2.06,0.84,0.00,0.00,2.06,-0.84,0.00,7.20,-2.94,5.19,-0.48,0.00,-0.57,1.14,-1.75,1100,1100,1100,1100,1032,1499,1508,10529,760
93607,9,1.11,-2.24,-0.32,-0.019,-0.135,0.884,-2.27,1.03,0.00,0.00,2.27,-1.03,0.00,7.93,-3.60,6.82,-1.37,0.00,-0.15,0.50,3.61,1100,1100,1100,1100,1038,1499,1508,10529,760
93619,9,0.42,-1.68,0.78,0.019,-0.009,0.868,-1.86,1.02,0.00,0.00,1.86,-1.02,0.00,6.52,-3.57,6.10,-1.89,0.00,0.53,-0.23,-7.75,1100,1100,1100,1100,1038,1499,1508,10529,760
93631,9,3.12,-2.23,0.06,-0.012,-0.044,0.873,-1.90,0.69,0.00,0.00,1.90,-0.69,0.00,6.67,-2.40,3.55,-0.17,0.00,-0.77,0.14,0.29,1100,1100,1100,1100,1038,1505,1502,10521,760
93643,9,0.07,1.11,-0.43,-0.089,-0.091,0.952,-1.93,-0.23,0.00,0.00,1.93,0.23,0.00,6.77,0.81,6.70,-0.29,0.00,0.62,-0.92,6.78,1100,1100,1100,1100,1040,1499,1508,10525,760
93655,9,-0.94,0.57,0.34,0.015,-0.038,0.927,-1.88,-0.22,0.00,0.00,1.88,0.22,0.00,6.57,0.77,7.51,0.20,0.00,0.90,-0.20,-5.43,1100,1100,1100,1100,1040,1499,1508,10517,760
93667,9,-1.14,1.78,-1.27,0.017,-0.044,0.830,-1.89,-0.29,0.00,0.00,1.89,0.29,0.00,6.60,1.02,7.74,-0.76,0.00,0.64,-0.54,14.87,1100,1100,1100,1100,1041,1499,1508,10521,760
93679,9,-1.82,2.64,0.53,-0.068,-0.105,0.992,-2.15,-0.42,0.00,0.00,2.15,0.42,0.00,7.52,1.45,9.34,-1.19,0.00,0.81,-0.70,-8.01,1100,1100,1100,1100,1041,1499,1508,10521,760
93691,9,1.33,-0.03,-0.18,0.005,-0.048,0.872,-2.14,-0.63,0.00,0.00,2.14,0.63,0.00,7.50,2.21,6.17,2.24,0.00,-0.51,0.69,0.89,1100,1100,1100,1100,1047,1505,1502,10529,760
93703,9,0.00,0.60,0.33,-0.026,-0.083,0.822,-2.44,-0.97,0.00,0.00,2.44,0.97,0.00,8.53,3.40,8.53,2.79,0.00,0.31,0.16,-4.79,1100,1100,1100,1100,1048,1502,1505,10529,760
93715,9,0.08,-0.64,-0.47,0.010,-0.084,1.011,-2.47,-0.67,0.00,0.00,2.47,0.67,0.00,8.64,2.33,8.56,2.98,0.00,0.39,0.58,3.88,1100,1100,1100,1100,1048,1502,1505,10534,760
93727,9,0.48,-0.49,-0.12,0.024,-0.041,0.891,-2.12,-0.06,0.00,0.00,2.12,0.06,0.00,7.41,0.19,6.93,0.68,0.00,0.10,0.14,1.98,1100,1100,1100,1100,1049,1499,1508,10529,760
93739,9,0.22,-3.19,0.20,0.097,0.018,0.763,-1.56,0.96,0.00,0.00,1.56,-0.96,0.00,5.45,-3.34,5.23,-0.15,0.00,0.40,0.80,-3.51,1100,1100,1100,1100,1049,1499,1508,10538,760
93751,9,2.32,0.57,-0.67,-0.074,-0.089,0.903,-1.85,-0.09,0.00,0.00,1.85,0.09,0.00,6.49,0.31,4.17,-0.27,0.00,-0.64,-0.64,8.49,1100,1100,1100,1100,1050,1505,1502,10534,760
93763,9,-2.50,3.40,0.35,-0.073,-0.056,0.998,-1.41,-0.17,0.00,0.00,1.41,0.17,0.00,4.94,0.59,7.44,-2.81,0.00,1.40,-1.59,-5.25,1100,1100,1100,1100,1050,1499,1508,10529,760
93775,9,1.09,-2.89,-0.27,0.082,-0.004,0.883,-1.77,-0.16,0.00,0.00,1.77,0.16,0.00,6.18,0.57,5.09,3.46,0.00,-0.17,1.65,2.46,1100,1100,1100,1100,1050,1499,1508,10525,760
93787,9,-0.66,0.60,0.41,-0.008,-0.111,0.802,-1.99,-0.12,0.00,0.00,1.99,0.12,0.00,6.96,0.44,7.62,-0.17,0.00,0.48,-0.25,-5.08,1100,1100,1100,1100,1059,1499,1508,10517,760
93799,9,-2.00,0.60,0.08,0.053,-0.012,0.853,-1.83,0.07,0.00,0.00,1.83,-0.07,0.00,6.42,-0.23,8.42,-0.83,0.00,1.21,-0.32,-2.26,1100,1100,1100,1100,1059,1499,1508,10529,760
93811,9,2.02,-0.71,-0.48,0.000,-0.092,0.930,-2.19,-0.20,0.00,0.00,2.19,0.20,0.00,7.65,0.69,5.63,1.39,0.00,-0.88,0.43,5.39,1100,1100,1100,1100,1068,1501,1506,10525,760
93823,9,-1.71,0.85,0.10,0.020,-0.028,0.818,-1.66,0.24,0.00,0.00,1.66,-0.24,0.00,5.81,-0.85,7.52,-1.70,0.00,1.06,-0.56,-1.56,1100,1100,1100,1100,1073,1499,1508,10525,760
93835,9,1.92,-0.45,0.27,-0.039,-0.040,0.898,-2.00,-0.35,0.00,0.00,2.00,0.35,0.00,7.02,1.22,5.09,1.67,0.00,-0.61,0.22,-3.09,1100,1100,1100,1100,1073,1499,1508,10525,760
93847,9,-0.31,0.06,0.17,-0.020,-0.075,0.940,-1.71,-0.23,0.00,0.00,1.71,0.23,0.00,6.00,0.82,6.30,0.76,0.00,0.31,-0.12,-1.33,1100,1100,1100,1100,1073,1498,1509,10521,760
93859,9,1.86,-2.24,-0.25,-0.012,-0.058,0.899,-2.22,-0.69,0.00,0.00,2.22,0.69,0.00,7.76,2.41,5.90,4.64,0.00,-0.18,1.01,3.18,1100,1100,1100,1100,1073,1498,1509,10521,760
93871,9,-0.73,2.90,-0.20,-0.106,-0.106,0.909,-2.29,-1.69,0.00,0.00,2.29,1.69,0.00,8.01,5.91,8.74,3.01,0.00,0.61,-0.98,2.24,1100,1100,1100,1100,1078,1504,1503,10529,760
93883,9,-2.67,1.04,-0.24,0.021,-0.000,0.916,-1.96,-1.40,0.00,0.00,1.96,1.40,0.00,6.87,4.90,9.54,3.87,0.00,1.47,0.04,2.58,1100,1100,1100,1100,1084,1498,1509,10529,760
93895,9,1.99,2.24,0.15,-0.016,-0.047,0.913,-1.92,-1.36,0.00,0.00,1.92,1.36,0.00,6.71,4.76,4.72,2.52,0.00,-0.79,-0.14,-2.97,1100,1100,1100,1100,1084,1498,1509,10534,760
93907,9,-1.15,3.08,-0.23,-0.064,-0.040,0.871,-1.65,-1.58,0.00,0.00,1.65,1.58,0.00,5.76,5.53,6.91,2.45,0.00,0.58,-0.63,1.84,1100,1100,1100,1100,1087,1500,1507,10529,760
93919,9,-0.11,-1.55,-0.04,0.016,-0.050,0.931,-2.04,-1.53,0.00,0.00,2.04,1.53,0.00,7.14,5.35,7.25,6.91,0.00,0.28,1.56,-0.46,1100,1100,1100,1100,1087,1500,1507,10521,760
93931,9,0.03,1.93,-0.37,0.023,-0.049,0.826,-1.91,-1.34,0.00,0.00,1.91,1.34,0.00,6.69,4.69,6.65,2.76,0.00,0.13,-0.33,3.92,1100,1100,1100,1100,1090,1504,1503,10529,760
93943,9,0.76,0.19,0.02,-0.062,-0.022,0.938,-2.12,-1.61,0.00,0.00,2.12,1.61,0.00,7.44,5.62,6.68,5.43,0.00,0.12,0.32,0.40,1100,1100,1100,1100,1090,1500,1507,10534,760
93955,9,2.15,-0.83,0.21,-0.018,-0.081,0.933,-2.29,-1.77,0.00,0.00,2.29,1.77,0.00,8.01,6.19,5.86,7.02,0.00,-0.61,0.91,-3.30,1100,1100,1100,1100,1090,1500,1507,10538,760
93967,9,-1.09,-2.17,-0.16,0.021,-0.026,0.753,-2.04,-1.01,0.00,0.00,2.04,1.01,0.00,7.15,3.52,8.24,5.70,0.00,0.99,1.10,1.86,1100,1100,1100,1100,1091,1500,1507,10534,760
93979,9,3.11,-2.66,0.59,0.063,-0.078,0.973,-2.18,-0.65,0.00,0.00,2.18,0.65,0.00,7.61,2.26,4.50,4.92,0.00,-0.82,1.08,-7.68,1100,1100,1100,1100,1091,1500,1507,10542,760
93991,9,-1.92,2.94,-0.42,-0.087,-0.088,0.850,-1.98,-0.96,0.00,0.00,1.98,0.96,0.00,6.92,3.37,8.84,0.43,0.00,1.35,-1.50,6.16,1100,1100,1100,1100,1091,1504,1503,10538,760
94003,9,-1.40,1.93,0.05,0.015,0.032,0.936,-1.65,-0.75,0.00,0.00,1.65,0.75,0.00,5.76,2.63,7.15,0.70,0.00,0.95,-0.68,0.10,1100,1100,1100,1100,1096,1500,1506,10529,760
94015,9,1.29,2.16,-0.90,-0.069,-0.092,0.935,-2.03,-1.55,0.00,0.00,2.03,1.55,0.00,7.12,5.43,5.83,3.27,0.00,-0.47,-0.28,8.82,1100,1100,1100,1100,1096,1500,1506,10529,760
94027,9,-1.25,3.10,0.11,-0.058,-0.108,0.837,-2.19,-1.64,0.00,0.00,2.19,1.64,0.00,7.65,5.76,8.90,2.65,0.00,0.80,-0.51,-3.22,1100,1100,1100,1100,1097,1506,1501,10529,760
94039,9,-0.22,0.09,0.25,0.018,-0.028,0.980,-2.42,-1.35,0.00,0.00,2.42,1.35,0.00,8.47,4.73,8.68,4.64,0.00,0.36,0.77,-5.02,1100,1100,1100,1100,1097,1506,1501,10529,760
94051,9,2.39,-2.44,-0.74,0.001,-0.030,0.850,-2.37,-1.06,0.00,0.00,2.37,1.06,0.00,8.29,3.71,5.89,6.14,0.00,-0.75,1.54,10.56,1100,1100,1100,1100,1097,1504,1503,10525,760
94063,9,1.20,-1.05,0.45,0.039,-0.022,0.858,-2.21,-1.08,0.00,0.00,2.21,1.08,0.00,7.74,3.78,6.54,4.83,0.00,0.25,0.55,-6.74,1100,1100,1100,1100,1097,1500,1507,10525,760
94075,9,1.75,-1.79,-0.46,0.059,-0.048,0.827,-2.11,-0.49,0.00,0.00,2.11,0.49,0.00,7.40,1.72,5.66,3.51,0.00,0.05,0.66,5.09,1100,1100,1100,1100,1097,1500,1507,10525,760
94087,9,-0.22,-1.26,0.72,0.084,-0.035,0.885,-1.47,0.48,0.00,0.00,1.47,-0.48,0.00,5.14,-1.68,5.36,-0.42,0.00,0.64,0.14,-8.85,1100,1100,1100,1100,1097,1501,1506,10525,760
94099,9,-0.51,-0.12,-0.39,0.047,-0.016,0.932,-1.43,1.11,0.00,0.00,1.43,-1.11,0.00,5.00,-3.90,5.51,-3.78,0.00,0.59,-0.48,4.70,1100,1100,1100,1100,1097,1500,1506,10529,760
94111,9,-2.52,3.91,0.13,-0.022,-0.071,0.855,-1.47,0.97,0.00,0.00,1.47,-0.97,0.00,5.14,-3.41,7.66,-7.31,0.00,1.03,-1.91,-0.62,1100,1100,1100,1100,1101,1500,1507,10529,760
94123,9,-2.64,1.56,-0.48,0.001,0.006,0.879,-1.38,0.72,0.00,0.00,1.38,-0.72,0.00,4.82,-2.51,7.46,-4.07,0.00,0.92,-0.47,4.03,1100,1100,1100,1100,1101,1499,1508,10529,760
94135,9,1.94,1.00,-0.70,-0.091,-0.141,0.896,-2.34,-0.65,0.00,0.00,2.34,0.65,0.00,8.20,2.28,6.26,1.28,0.00,-1.08,0.38,6.39,1100,1100,1100,1100,1101,1499,1508,10521,760
94147,9,-0.73,-0.47,0.59,0.005,-0.043,0.862,-2.20,-0.55,0.00,0.00,2.20,0.55,0.00,7.70,1.93,8.43,2.40,0.00,0.53,0.55,-9.34,1100,1100,1100,1100,1103,1499,1508,10513,760
94159,9,3.10,-3.83,0.35,0.020,-0.005,0.922,-2.47,-0.71,0.00,0.00,2.47,0.71,0.00,8.66,2.50,5.56,6.33,0.00,-0.81,1.70,-2.73,1100,1100,1100,1100,1103,1499,1508,10513,760
94171,9,0.43,-1.29,0.63,0.051,-0.055,0.803,-2.03,-0.18,0.00,0.00,2.03,0.18,0.00,7.10,0.63,6.67,1.92,0.00,0.30,0.27,-5.43,1100,1100,1100,1100,1103,1503,1504,10521,760
94183,9,0.07,-2.09,-0.20,0.118,0.035,0.878,-1.44,0.79,0.00,0.00,1.44,-0.79,0.00,5.05,-2.77,4.98,-0.67,0.00,0.70,0.29,3.45,1100,1100,1100,1100,1108,1499,1508,10525,760
94195,9,1.22,-1.00,-0.30,0.039,-0.103,0.885,-1.42,1.18,0.00,0.00,1.42,-1.18,0.00,4.97,-4.13,3.75,-3.14,0.00,-0.36,-0.00,3.27,1100,1100,1100,1100,1108,1499,1508,10525,760
94207,9,-4.20,1.67,-0.00,-0.010,-0.036,0.881,-1.01,1.56,0.00,0.00,1.01,-1.56,0.00,3.53,-5.45,7.73,-7.12,0.00,2.10,-1.46,0.19,1100,1100,1100,1100,1109,1500,1507,10525,760
94219,9,0.86,1.01,0.77,-0.022,-0.102,0.929,-1.98,0.78,0.00,0.00,1.98,-0.78,0.00,6.93,-2.74,6.06,-3.75,0.00,-0.39,-0.64,-8.92,1100,1100,1100,1100,1109,1500,1507,10529,760
94231,9,-0.52,0.22,-0.23,-0.091,-0.103,0.880,-2.26,-0.02,0.00,0.00,2.26,0.02,0.00,7.90,0.08,8.43,-0.14,0.00,0.16,-0.22,3.91,1100,1100,1100,1100,1112,1503,1504,10529,760
94243,9,1.58,-1.81,-0.17,-0.067,-0.061,0.890,-2.74,-0.92,0.00,0.00,2.74,0.92,0.00,9.60,3.21,8.02,5.02,0.00,-0.22,0.95,1.96,1100,1100,1100,1100,1112,1499,1508,10517,760
94255,9,1.03,0.87,-0.65,-0.049,-0.092,0.958,-2.51,-1.33,0.00,0.00,2.51,1.33,0.00,8.78,4.65,7.75,3.78,0.00,-0.10,-0.17,7.05,1100,1100,1100,1100,1112,1499,1508,10521,760
94267,9,-0.11,-3.42,0.20,0.030,0.001,0.942,-2.16,-0.68,0.00,0.00,2.16,0.68,0.00,7.54,2.39,7.65,5.82,0.00,0.82,1.29,-2.55,1100,1100,1100,1100,1113,1499,1508,10521,760
94279,9,2.87,-1.97,0.51,0.020,-0.086,0.870,-2.19,-0.70,0.00,0.00,2.19,0.70,0.00,7.66,2.46,4.79,4.43,0.00,-0.69,0.79,-6.58,1100,1100,1100,1100,1113,1499,1508,10534,760
94291,9,-1.74,2.33,-0.12,-0.035,-0.055,0.858,-1.82,-0.82,0.00,0.00,1.82,0.82,0.00,6.39,2.87,8.13,0.54,0.00,1.42,-1.28,2.78,1100,1100,1100,1100,1114,1503,1504,10529,760
94303,9,0.74,0.20,-0.20,0.021,-0.064,0.911,-2.12,-0.96,0.00,0.00,2.12,0.96,0.00,7.43,3.34,6.69,3.14,0.00,0.13,0.29,1.08,1100,1100,1100,1100,1114,1499,1508,10529,760
94315,9,-2.03,1.92,-0.86,-0.062,-0.102,0.911,-2.17,-1.25,0.00,0.00,2.17,1.25,0.00,7.59,4.38,9.62,2.46,0.00,0.95,-0.27,8.84,1100,1100,1100,1100,1114,1499,1508,10525,760
94327,9,-1.61,1.05,0.46,-0.010,-0.074,0.938,-2.14,-0.78,0.00,0.00,2.14,0.78,0.00,7.50,2.72,9.11,1.67,0.00,0.90,-0.10,-6.97,1100,1100,1100,1100,1119,1499,1508,10525,760
94339,9,1.90,-1.80,0.02,0.011,-0.067,0.802,-2.46,-0.66,0.00,0.00,2.46,0.66,0.00,8.62,2.29,6.71,4.09,0.00,-0.79,0.98,-1.00,1100,1100,1100,1100,1119,1499,1508,10529,760
94351,9,-0.66,0.20,-0.05,-0.059,-0.054,0.898,-2.38,-0.60,0.00,0.00,2.38,0.60,0.00,8.34,2.08,9.00,1.88,0.00,0.59,-0.24,1.02,1100,1100,1100,1100,1119,1503,1504,10521,760
94363,9,1.32,0.45,0.06,-0.070,-0.051,1.054,-2.34,-1.67,0.00,0.00,2.34,1.67,0.00,8.17,5.85,6.85,5.40,0.00,-0.16,0.09,-1.76,1100,1100,1100,1100,1122,1499,1508,10521,760
94375,9,-1.09,2.29,-0.64,-0.030,-0.042,0.817,-2.28,-2.01,0.00,0.00,2.28,2.01,0.00,7.98,7.05,9.07,4.76,0.00,0.99,-0.51,7.39,1100,1100,1100,1100,1122,1499,1508,10529,760
94387,9,-0.98,1.50,0.29,0.074,-0.008,0.934,-2.21,-1.60,0.00,0.00,2.21,1.60,0.00,7.75,5.61,8.73,4.12,0.00,0.83,0.10,-4.60,1100,1100,1100,1100,1128,1499,1508,10529,760
94399,9,0.07,1.97,-0.34,-0.019,-0.091,0.871,-2.50,-1.63,0.00,0.00,2.50,1.63,0.00,8.74,5.70,8.66,3.73,0.00,0.26,-0.08,2.91,1100,1100,1100,1100,1128,1499,1508,10529,760
94411,9,0.16,1.26,0.42,0.018,-0.018,0.838,-1.95,-1.49,0.00,0.00,1.95,1.49,0.00,6.82,5.21,6.67,3.95,0.00,0.01,0.32,-6.48,1100,1100,1100,1100,1128,1502,1505,10529,760
94423,9,1.36,0.34,-0.51,-0.081,-0.092,1.012,-2.22,-1.94,0.00,0.00,2.22,1.94,0.00,7.77,6.80,6.41,6.46,0.00,-0.16,0.58,4.31,1100,1100,1100,1100,1142,1498,1509,10521,760
94435,9,1.96,0.99,-0.36,-0.065,-0.096,0.835,-2.30,-1.89,0.00,0.00,2.30,1.89,0.00,8.04,6.61,6.08,5.62,0.00,-0.39,0.33,4.09,1100,1100,1100,1100,1142,1498,1509,10521,760
94447,9,-0.19,-0.56,0.25,0.017,0.029,0.947,-2.11,-1.46,0.00,0.00,2.11,1.46,0.00,7.37,5.10,7.56,5.66,0.00,0.72,0.57,-3.72,1100,1100,1100,1100,1142,1509,1498,10517,760
94459,9,2.51,-3.84,-0.45,0.045,-0.074,0.811,-2.26,-0.49,0.00,0.00,2.26,0.49,0.00,7.90,1.73,5.39,5.57,0.00,-0.64,1.84,5.61,1100,1100,1100,1100,1142,1509,1498,10521,760
94471,9,-2.54,1.07,0.08,-0.005,-0.062,0.842,-1.63,-0.11,0.00,0.00,1.63,0.11,0.00,5.72,0.39,8.26,-0.69,0.00,1.40,-0.62,-2.08,1100,1100,1100,1100,1144,1502,1505,10529,760
94483,9,-0.87,-0.39,-0.15,0.031,-0.028,0.981,-1.67,-0.04,0.00,0.00,1.67,0.04,0.00,5.83,0.16,6.71,0.55,0.00,0.50,0.30,0.37,1100,1100,1100,1100,1153,1509,1498,10525,760
94495,9,0.59,1.48,0.02,-0.035,-0.107,0.872,-1.73,-0.50,0.00,0.00,1.73,0.50,0.00,6.07,1.75,5.49,0.27,0.00,-0.34,-0.49,-0.23,1100,1100,1100,1100,1153,1509,1498,10513,760
94508,9,-0.53,-0.37,-0.10,-0.022,-0.052,0.856,-2.01,-0.79,0.00,0.00,2.01,0.79,0.00,7.02,2.77,7.56,3.14,0.00,0.80,0.11,0.20,1100,1100,1100,1100,1154,1499,1508,10521,760
94519,9,1.44,1.48,-0.14,-0.031,-0.082,0.894,-2.60,-1.51,0.00,0.00,2.60,1.51,0.00,9.09,5.30,7.65,3.82,0.00,-0.31,-0.19,0.24,1100,1100,1100,1100,1154,1499,1508,10513,760
94531,9,-2.48,1.01,-0.07,-0.028,-0.068,0.941,-2.18,-1.25,0.00,0.00,2.18,1.25,0.00,7.64,4.36,10.12,3.36,0.00,1.47,-0.24,-0.42,1100,1100,1100,1100,1162,1500,1507,10513,760
94543,9,1.64,-0.17,-0.26,0.073,-0.007,0.904,-2.13,-0.87,0.00,0.00,2.13,0.87,0.00,7.46,3.04,5.81,3.21,0.00,-0.27,0.45,2.21,1161,1163,1162,1160,1162,1499,1508,10500,761
94555,25,-2.27,4.30,-0.21,-0.034,-0.054,0.881,-1.80,-0.22,0.00,0.00,1.80,0.22,0.00,6.31,0.78,8.58,-3.52,0.00,1.00,-1.61,2.59,1161,1163,1162,1160,1162,1499,1508,10496,761
94567,25,-2.72,-0.52,-0.11,0.099,0.088,0.916,-1.01,0.81,0.00,0.00,1.01,-0.81,0.00,3.54,-2.83,6.26,-2.32,0.00,1.30,0.41,1.05,1161,1163,1162,1160,1162,1499,1508,10479,761
94579,25,5.87,-3.24,-0.33,0.047,-0.051,0.806,-1.81,0.12,0.00,0.00,1.81,-0.12,0.00,6.33,-0.43,0.46,2.81,0.00,-2.52,1.84,1.97,1161,1163,1162,1160,1162,1499,1508,10463,761
94591,25,-0.87,2.13,-0.18,-0.138,-0.158,0.800,-2.14,-0.87,0.00,0.00,2.14,0.87,0.00,7.49,3.05,8.35,0.92,0.00,0.81,-1.00,0.79,1161,1163,1162,1160,1166,1503,1504,10471,761
94603,25,-0.82,-0.37,0.45,-0.000,-0.018,0.957,-2.21,-1.21,0.00,0.00,2.21,1.21,0.00,7.73,4.24,8.55,4.61,0.00,0.87,0.60,-5.91,1161,1163,1162,1160,1166,1499,1508,10471,761
94615,25,6.59,-1.40,0.27,-0.134,-0.122,1.048,-2.28,-2.15,0.00,0.00,2.28,2.15,0.00,7.96,7.54,1.37,8.93,0.00,-2.65,1.17,-2.20,1161,1163,1162,1160,1166,1499,1508,10463,761
94627,25,-2.61,-1.76,0.40,0.026,-0.082,0.675,-1.53,-1.86,0.00,0.00,1.53,1.86,0.00,5.37,6.50,7.98,8.27,0.00,1.95,0.95,-4.54,1161,1163,1162,1160,1176,1500,1507,10459,761
94639,25,1.56,-4.45,0.63,0.157,0.047,0.747,-0.99,-1.08,0.00,0.00,0.99,1.08,0.00,3.46,3.76,1.90,8.21,0.00,0.29,1.71,-8.56,1161,1163,1162,1160,1176,1500,1507,10450,761
94651,25,4.36,-1.59,0.06,0.091,-0.086,0.909,-1.74,-0.55,0.00,0.00,1.74,0.55,0.00,6.09,1.94,1.73,3.54,0.00,-1.30,0.66,-1.28,1176,1174,1176,1176,1176,1503,1504,10471,761
94663,25,-3.74,3.21,-0.09,0.049,0.014,0.719,-1.30,0.28,0.00,0.00,1.30,-0.28,0.00,4.55,-0.98,8.29,-4.19,0.00,1.98,-1.84,1.02,1176,1174,1176,1176,1178,1510,1497,10475,761
94675,25,-4.07,2.50,-0.72,0.043,0.117,0.782,-0.75,-0.12,0.00,0.00,0.75,0.12,0.00,2.64,0.42,6.71,-2.08,0.00,1.90,-0.97,8.89,1176,1174,1176,1176,1178,1510,1497,10463,761
94687,25,-0.61,6.20,-0.50,0.001,-0.013,0.990,-1.30,-0.80,0.00,0.00,1.30,0.80,0.00,4.55,2.80,5.15,-3.40,0.00,-0.23,-1.58,6.03,1176,1174,1176,1176,1178,1498,1509,10446,761
94699,25,-3.75,5.41,-0.23,-0.074,-0.211,1.018,-2.01,-0.64,0.00,0.00,2.01,0.64,0.00,7.02,2.23,10.77,-3.18,0.00,0.84,-1.30,2.57,1176,1174,1176,1176,1178,1498,1509,10442,761
94711,25,-4.79,-0.94,0.32,0.117,0.005,0.730,-1.26,1.09,0.00,0.00,1.26,-1.09,0.00,4.40,-3.82,9.19,-2.88,0.00,1.73,0.37,-3.20,1176,1174,1176,1176,1180,1502,1505,10434,761
94723,25,-0.49,-2.48,0.37,-0.008,-0.043,0.898,-1.54,0.28,0.00,0.00,1.54,-0.28,0.00,5.40,-0.97,5.89,1.51,0.00,-0.24,1.61,-6.46,1176,1174,1176,1176,1186,1500,1507,10438,761
94735,25,5.40,-2.22,0.61,0.011,-0.177,0.942,-2.51,0.58,0.00,0.00,2.51,-0.58,0.00,8.77,-2.05,3.37,0.17,0.00,-2.57,1.08,-10.68,1176,1174,1176,1176,1186,1500,1507,10446,761
94747,25,1.90,4.58,-0.99,-0.174,-0.184,0.946,-2.84,0.42,0.00,0.00,2.84,-0.42,0.00,9.94,-1.46,8.04,-6.04,0.00,-0.42,-2.84,9.73,1180,1191,1194,1177,1186,1509,1498,10446,761
94759,25,-0.64,-2.15,-0.33,-0.051,-0.046,0.937,-2.05,1.73,0.00,0.00,2.05,-1.73,0.00,7.17,-6.04,7.82,-3.89,0.00,1.16,-0.46,3.78,1180,1191,1194,1177,1186,1509,1498,10429,761
94771,25,0.70,-10.25,1.01,0.093,0.153,0.977,-1.12,3.48,0.00,0.00,1.12,-3.48,0.00,3.92,-12.17,3.22,-1.92,0.00,0.68,2.92,-10.53,1180,1191,1194,1177,1188,1502,1505,10446,761
94783,25,4.81,-9.44,0.15,0.163,0.074,0.740,-0.96,3.47,0.00,0.00,0.96,-3.47,0.00,3.36,-12.15,-1.44,-2.71,0.00,-1.68,3.22,-0.08,1180,1191,1194,1177,1188,1509,1498,10454,761
94795,25,-0.64,7.32,-1.27,0.061,-0.139,0.767,-1.12,2.38,0.00,0.00,1.12,-2.38,0.00,3.92,-8.34,4.56,-15.67,0.00,0.25,-3.93,17.27,1180,1191,1194,1177,1188,1509,1498,10446,761
94807,25,-11.54,7.88,0.51,0.036,-0.101,0.752,-0.63,1.44,0.00,0.00,0.63,-1.44,0.00,2.20,-5.04,13.74,-12.92,0.00,5.11,-3.55,-6.63,1180,1191,1194,1177,1188,1509,1498,10446,761
94819,25,-5.39,6.10,1.18,-0.103,0.077,1.018,-0.97,0.68,0.00,0.00,0.97,-0.68,0.00,3.40,-2.40,8.79,-8.50,0.00,1.98,-1.81,-17.18,1180,1191,1194,1177,1188,1500,1498,10454,761
94831,25,3.53,8.75,0.28,-0.177,-0.068,1.311,-2.67,0.61,0.00,0.00,2.67,-0.61,0.00,9.35,-2.14,5.82,-10.89,0.00,-2.47,-2.80,-4.32,1180,1191,1194,1177,1188,1500,1507,10454,761
94843,25,3.87,3.61,0.43,0.005,-0.194,0.833,-3.84,0.95,0.00,0.00,3.84,-0.95,0.00,13.43,-3.32,9.56,-6.94,0.00,-2.92,-0.55,-1.12,1197,1186,1186,1195,1193,1509,1498,10438,761
94855,25,-12.37,-15.11,1.21,0.195,-0.239,0.329,-5.38,2.04,0.00,0.00,5.38,-2.04,0.00,18.84,-7.14,31.21,7.97,0.00,5.55,7.78,-8.04,1197,1186,1186,1195,1193,1509,1498,10438,761
94867,25,-5.26,-6.14,0.33,0.051,-0.059,0.667,-4.57,0.97,0.00,0.00,4.57,-0.97,0.00,16.01,-3.40,21.26,2.74,0.00,3.09,3.60,2.24,1197,1186,1186,1195,1199,1509,1498,10429,761
94879,25,6.09,7.72,0.78,-0.166,0.041,1.303,-4.90,0.76,0.00,0.00,4.90,-0.76,0.00,17.14,-2.68,11.05,-10.40,0.00,-2.11,-3.75,-6.24,1197,1186,1186,1195,1199,1509,1498,10421,761
94891,25,11.47,-2.91,-0.35,0.151,-0.086,0.953,-5.70,1.40,0.00,0.00,5.70,-1.40,0.00,19.94,-4.89,8.47,-1.98,0.00,-4.25,-0.07,7.77,1197,1186,1186,1195,1199,1502,1505,10409,761
94903,17,3.87,-11.10,0.20,0.054,-0.293,0.655,-6.21,1.85,0.00,0.00,6.21,-1.85,0.00,21.74,-6.47,17.87,4.62,0.00,0.08,2.46,0.50,1197,1186,1186,1195,1200,1509,1498,10400,761
94915,17,-5.16,-11.47,0.51,-0.047,-0.226,0.797,-5.40,1.57,0.00,0.00,5.40,-1.57,0.00,18.95,-5.51,24.11,5.97,0.00,4.92,3.34,-5.63,1197,1186,1186,1195,1200,1509,1498,10400,761
94927,17,-1.97,4.16,-0.84,-0.069,0.084,1.123,-4.79,1.68,0.00,0.00,4.79,-1.68,0.00,16.87,-5.92,18.84,-10.08,0.00,3.86,-3.83,10.59,1197,1186,1186,1195,1200,1500,1507,10396,761
94939,17,12.42,-3.48,0.14,0.106,0.086,0.894,-4.56,2.57,0.00,0.00,4.56,-2.57,0.00,16.13,-9.06,3.71,-5.57,0.00,-3.35,-0.64,-0.60,1197,1186,1186,1195,1200,1500,1507,10380,761
94951,17,8.35,-8.30,1.21,0.169,-0.067,0.653,-4.72,1.93,0.00,0.00,4.72,-1.93,0.00,16.73,-6.82,8.38,1.48,0.00,-2.28,2.63,-15.02,1196,1204,1204,1207,1205,1502,1505,10384,762
94963,17,-1.60,2.03,-0.03,-0.258,-0.242,1.097,-3.37,0.69,0.00,0.00,3.37,-0.69,0.00,12.02,-2.52,13.61,-4.55,0.00,2.00,-1.99,2.83,1196,1204,1204,1207,1209,1509,1499,10380,762
94975,17,-8.50,1.27,0.28,-0.083,-0.061,0.899,-1.15,2.09,0.00,0.00,1.15,-2.09,0.00,4.28,-7.42,12.78,-8.68,0.00,5.26,-1.60,-1.36,1196,1204,1204,1207,1209,1509,1499,10392,762
94987,17,1.27,1.50,-1.34,0.222,0.268,0.651,-0.11,2.54,0.00,0.00,0.11,-2.54,0.00,0.65,-9.03,-0.62,-10.54,0.00,0.07,-1.36,15.64,1196,1204,1204,1207,1210,1508,1499,10392,762
94999,17,2.39,1.28,-1.48,-0.038,-0.037,0.936,-1.44,1.92,0.00,0.00,1.44,-1.92,0.00,5.30,-6.86,2.91,-8.15,0.00,-1.03,-1.06,14.66,1196,1204,1204,1207,1210,1508,1499,10400,762
95011,17,-2.73,-0.40,0.82,0.084,-0.110,0.951,-1.38,2.77,0.00,0.00,1.38,-2.77,0.00,5.12,-9.86,7.86,-9.47,0.00,0.72,0.46,-14.02,1196,1204,1204,1207,1210,1502,1505,10404,762
95023,17,-7.75,5.77,1.06,0.074,-0.011,0.931,-1.35,2.82,0.00,0.00,1.35,-2.82,0.00,5.04,-10.08,12.79,-15.85,0.00,2.61,-2.18,-16.86,1196,1204,1204,1207,1212,1498,1508,10404,762
95035,17,-4.99,7.60,-1.14,0.060,-0.045,0.898,-1.44,2.88,0.00,0.00,1.44,-2.88,0.00,5.36,-10.31,10.35,-17.91,0.00,0.77,-2.81,14.02,1196,1204,1204,1207,1212,1498,1508,10400,762
95047,17,-4.61,4.21,-0.57,-0.042,-0.176,0.808,-1.34,2.42,0.00,0.00,1.34,-2.42,0.00,5.01,-8.73,9.62,-12.94,0.00,-0.21,-0.23,7.24,1215,1206,1207,1221,1213,1508,1499,10392,762
95059,17,-9.23,4.14,0.07,-0.248,0.026,0.988,-0.77,1.55,0.00,0.00,0.77,-1.55,0.00,3.03,-5.71,12.26,-9.85,0.00,2.29,-0.14,-1.41,1215,1206,1207,1221,1213,1508,1499,10392,762
95071,17,-3.72,0.10,-0.13,0.118,0.055,0.807,-0.89,1.78,0.00,0.00,0.89,-1.78,0.00,3.47,-6.52,7.19,-6.63,0.00,0.81,1.42,0.29,1215,1206,1207,1221,1217,1501,1506,10392,762
95083,17,1.66,6.84,0.10,0.003,0.152,0.994,-1.52,0.13,0.00,0.00,1.52,-0.13,0.00,5.66,-0.74,4.00,-7.58,0.00,-0.97,-2.64,-3.65,1215,1206,1207,1221,1222,1500,1507,10392,762
95095,17,9.73,-9.73,-0.67,0.207,0.006,0.713,-2.84,0.76,0.00,0.00,2.84,-0.76,0.00,10.31,-2.95,0.58,6.78,0.00,-4.83,4.98,5.08,1215,1206,1207,1221,1222,1500,1507,10400,762
95107,17,2.38,2.27,-1.10,-0.227,-0.473,0.972,-4.02,-1.52,0.00,0.00,4.02,1.52,0.00,14.49,5.03,12.11,2.75,0.00,-1.06,-0.69,10.81,1215,1206,1207,1221,1222,1508,1499,10392,762
95119,17,-9.29,-1.99,0.29,-0.220,-0.194,0.902,-2.17,0.31,0.00,0.00,2.17,-0.31,0.00,8.02,-1.36,17.31,0.63,0.00,4.66,0.57,-8.02,1215,1206,1207,1221,1222,1508,1499,10384,762
95131,17,-9.21,0.54,-0.06,0.116,-0.010,0.757,-1.90,1.45,0.00,0.00,1.90,-1.45,0.00,7.11,-5.39,16.32,-5.93,0.00,5.20,-0.71,39.71,1215,1206,1207,1221,1224,1502,1505,10404,762
95143,17,1.68,2.18,1.54,0.082,0.246,0.952,-1.80,1.79,0.00,0.00,1.80,-1.79,0.00,6.79,-6.58,5.11,-8.76,0.00,0.07,-2.19,22.15,1198,1251,1247,1198,1224,1509,1498,10396,762
95155,17,13.43,-3.77,0.40,0.191,0.015,0.829,-3.46,1.95,0.00,0.00,3.46,-1.95,0.00,12.62,-7.14,-0.81,-3.37,0.00,-5.45,0.55,41.61,1198,1251,1247,1198,1224,1509,1498,10392,762
95167,17,7.63,-3.24,2.29,0.114,-0.273,0.790,-3.97,0.45,0.00,0.00,3.97,-0.45,0.00,14.43,-1.92,6.81,1.32,0.00,-2.93,1.23,21.89,1198,1251,1247,1198,1231,1509,1498,10388,762
95179,17,-2.76,-2.51,2.41,-0.235,-0.183,0.937,-2.80,-0.26,0.00,0.00,2.80,0.26,0.00,10.37,0.57,13.12,3.08,0.00,1.63,0.95,22.74,1198,1251,1247,1198,1231,1509,1498,10375,762
95191,17,-3.41,0.86,2.34,0.019,-0.216,0.968,-2.23,0.09,0.00,0.00,2.23,-0.09,0.00,8.38,-0.66,11.79,-1.52,0.00,2.18,0.02,27.43,1198,1251,1247,1198,1232,1502,1505,10371,762
95203,17,-5.98,3.94,2.00,-0.253,-0.054,0.996,-1.92,0.42,0.00,0.00,1.92,-0.42,0.00,7.32,-1.81,13.30,-5.75,0.00,3.84,-2.79,32.02,1198,1251,1247,1198,1233,1509,1498,10375,762
95215,17,0.91,-1.18,0.82,0.195,0.189,0.686,-0.77,1.07,0.00,0.00,0.77,-1.07,0.00,3.31,-4.09,2.40,-2.91,0.00,0.47,0.12,47.41,1198,1251,1247,1198,1233,1509,1498,10359,762
95227,17,2.97,-2.42,0.21,0.008,-0.013,0.992,-1.61,0.62,0.00,0.00,1.61,-0.62,0.00,6.28,-2.53,3.30,-0.11,0.00,-0.76,0.47,51.31,1198,1251,1247,1198,1233,1500,1507,10359,762
95239,17,1.53,-1.78,0.86,0.101,-0.030,0.863,-1.61,1.00,0.00,0.00,1.61,-1.00,0.00,6.30,-3.87,4.76,-2.09,0.00,-0.43,0.74,39.06,1198,1251,1247,1198,1233,1500,1507,10359,762
95251,17,-0.68,-0.09,0.71,0.046,-0.089,0.899,-1.45,1.02,0.00,0.00,1.45,-1.02,0.00,5.74,-3.95,6.42,-3.86,0.00,0.29,0.08,39.56,1185,1284,1284,1186,1236,1502,1504,10355,762
95263,17,-2.47,1.86,-0.02,0.037,-0.151,0.904,-1.35,1.29,0.00,0.00,1.35,-1.29,0.00,5.39,-4.92,7.86,-6.78,0.00,0.94,-0.74,46.13,1185,1284,1284,1186,1236,1508,1499,10346,762
95275,17,-2.62,-0.47,-0.78,0.130,-0.056,0.760,-1.07,0.86,0.00,0.00,1.07,-0.86,0.00,4.44,-3.40,7.06,-2.93,0.00,1.00,0.63,53.06,1185,1284,1284,1186,1236,1508,1499,10367,762
95287,17,-1.08,-1.44,-0.60,-0.134,-0.041,0.911,-1.32,-0.32,0.00,0.00,1.32,0.32,0.00,5.30,0.71,6.38,2.15,0.00,0.53,0.64,51.00,1185,1284,1284,1186,1242,1508,1499,10359,762
95299,17,0.40,-3.68,1.36,-0.133,0.161,0.893,-0.81,-0.91,0.00,0.00,0.81,0.91,0.00,3.55,2.78,3.14,6.46,0.00,0.52,1.74,27.49,1185,1284,1284,1186,1242,1508,1499,10363,762
95311,17,4.92,-2.47,2.42,-0.081,0.052,0.949,-1.44,-0.09,0.00,0.00,1.44,0.09,0.00,5.79,-0.09,0.86,2.38,0.00,-1.39,1.07,20.66,1185,1284,1284,1186,1242,1501,1506,10359,762
95323,17,7.74,5.33,0.98,-0.067,-0.025,1.111,-2.23,-0.13,0.00,0.00,2.23,0.13,0.00,8.56,0.07,0.82,-5.26,0.00,-3.04,-2.67,41.42,1185,1284,1284,1186,1244,1508,1498,10350,762
95335,17,4.37,1.27,0.84,0.138,-0.221,0.801,-2.39,1.34,0.00,0.00,2.39,-1.34,0.00,9.12,-5.07,4.75,-6.34,0.00,-1.99,-0.81,45.87,1185,1284,1284,1186,1244,1508,1498,10363,762
95347,17,-7.68,4.89,-0.45,-0.000,-0.443,0.810,-3.00,0.15,0.00,0.00,3.00,-0.15,0.00,11.28,-0.92,18.96,-5.81,0.00,3.51,-2.02,61.16,1194,1287,1293,1200,1244,1508,1499,10355,762
95359,17,-12.18,-6.90,-0.44,0.053,-0.153,0.764,-2.46,2.22,0.00,0.00,2.46,-2.22,0.00,9.41,-8.19,21.59,-1.29,0.00,5.98,2.80,55.98,1194,1287,1293,1200,1244,1508,1499,10334,762
95371,17,-3.07,2.26,-0.42,-0.146,0.176,0.876,-1.66,1.14,0.00,0.00,1.66,-1.14,0.00,6.64,-4.41,9.72,-6.67,0.00,2.03,-1.16,58.36,1194,1287,1293,1200,1245,1501,1506,10309,762
95383,17,8.98,3.97,-0.55,0.333,0.160,0.792,-2.05,2.02,0.00,0.00,2.05,-2.02,0.00,8.05,-7.52,-0.93,-11.49,0.00,-3.44,-1.95,58.33,1194,1287,1293,1200,1245,1508,1499,10317,762
95395,17,12.21,0.33,0.22,0.152,0.019,0.940,-2.49,2.29,0.00,0.00,2.49,-2.29,0.00,9.58,-8.46,-2.62,-8.80,0.00,-4.98,-1.70,48.85,1194,1287,1293,1200,1245,1508,1499,10300,762
95407,17,5.61,-3.86,1.56,0.217,-0.205,0.770,-3.17,1.28,0.00,0.00,3.17,-1.28,0.00,11.99,-4.95,6.39,-1.09,0.00,-1.64,1.16,33.47,1194,1287,1293,1200,1253,1508,1499,10296,762
95419,17,-0.95,-6.25,-0.13,-0.149,-0.248,0.900,-3.26,0.43,0.00,0.00,3.26,-0.43,0.00,12.34,-2.00,13.29,4.25,0.00,1.78,2.40,56.98,1194,1287,1293,1200,1253,1508,1499,10317,762
95431,17,-3.76,0.98,0.32,-0.376,-0.007,0.996,-2.18,-0.87,0.00,0.00,2.18,0.87,0.00,8.57,2.57,12.33,1.59,0.00,3.06,-0.55,50.83,1194,1287,1293,1200,1256,1501,1506,10309,762
95443,17,2.79,3.72,-0.66,0.161,0.226,0.711,-0.89,1.14,0.00,0.00,0.89,-1.14,0.00,4.07,-4.47,1.28,-8.19,0.00,-0.48,-1.63,64.02,1195,1316,1314,1197,1256,1501,1506,10305,762
95455,17,5.50,1.87,-1.38,0.000,0.032,0.887,-2.23,1.73,0.00,0.00,2.23,-1.73,0.00,8.80,-6.55,3.30,-8.42,0.00,-2.04,-2.14,69.48,1195,1316,1314,1197,1256,1501,1506,10296,762
95467,17,3.61,0.02,-0.34,-0.004,0.017,0.991,-2.14,-0.16,0.00,0.00,2.14,0.16,0.00,8.51,0.05,4.90,0.03,0.00,-1.56,-0.18,71.48,1195,1316,1314,1197,1257,1508,1499,10300,762
95479,17,2.37,1.84,-0.87,-0.046,-0.179,1.034,-2.45,-0.91,0.00,0.00,2.45,0.91,0.00,9.60,2.70,7.22,0.86,0.00,-1.02,0.21,78.65,1195,1316,1314,1197,1257,1508,1499,10317,762
95491,17,-1.84,0.40,-1.64,-0.080,-0.173,0.902,-2.45,0.25,0.00,0.00,2.45,-0.25,0.00,9.62,-1.37,11.46,-1.76,0.00,0.98,0.38,87.82,1195,1316,1314,1197,1265,1501,1506,10313,762
95503,17,-2.84,1.25,-1.49,-0.083,-0.112,0.833,-2.12,1.33,0.00,0.00,2.12,-1.33,0.00,8.49,-5.15,11.33,-6.41,0.00,1.34,-0.81,86.94,1195,1316,1314,1197,1265,1508,1499,10305,762
95515,17,-3.12,6.94,-1.02,-0.120,-0.077,0.899,-2.33,0.67,0.00,0.00,2.33,-0.67,0.00,9.26,-2.87,12.38,-9.81,0.00,1.36,-3.00,79.36,1195,1316,1314,1197,1265,1508,1499,10309,762
95527,17,4.63,2.73,-1.25,-0.051,-0.020,1.000,-2.60,-0.25,0.00,0.00,2.60,0.25,0.00,10.23,0.36,5.61,-2.37,0.00,-2.09,-0.47,74.96,1195,1316,1314,1197,1267,1500,1507,10296,762
95539,17,8.24,-0.13,-1.63,-0.020,-0.004,0.903,-2.66,-0.55,0.00,0.00,2.66,0.55,0.00,10.46,1.40,2.22,1.52,0.00,-3.33,0.72,77.64,1195,1316,1314,1197,1267,1500,1507,10296,762
95551,17,5.33,2.62,-2.75,-0.016,-0.323,0.861,-3.05,-1.19,0.00,0.00,3.05,1.19,0.00,11.85,3.66,6.52,1.05,0.00,-1.60,-0.94,89.59,1197,1337,1338,1193,1267,1500,1507,10300,762
95563,17,-0.19,3.88,-3.11,-0.104,-0.208,0.967,-2.18,-1.60,0.00,0.00,2.18,1.60,0.00,8.83,5.10,9.01,1.21,0.00,1.00,-1.50,90.37,1197,1337,1338,1193,1269,1507,1500,10305,762
95575,17,-5.21,-4.64,-2.38,-0.232,0.013,0.923,-0.67,-1.17,0.00,0.00,0.67,1.17,0.00,3.53,3.60,8.74,8.24,0.00,3.25,2.03,79.89,1197,1337,1338,1193,1269,1507,1500,10288,762
95587,17,1.68,0.75,-2.71,-0.090,0.075,0.886,-1.52,-0.39,0.00,0.00,1.52,0.39,0.00,6.53,0.87,4.86,0.12,0.00,0.03,0.10,81.70,1197,1337,1338,1193,1279,1507,1500,10300,762
95599,17,11.39,8.92,-2.63,-0.006,-0.082,1.021,-3.46,0.92,0.00,0.00,3.46,-0.92,0.00,13.34,-3.70,1.95,-12.62,0.00,-4.70,-4.59,81.75,1197,1337,1338,1193,1279,1507,1500,10305,762
95611,17,10.58,-1.19,-1.57,0.177,-0.137,0.737,-4.26,2.67,0.00,0.00,4.26,-2.67,0.00,16.19,-9.85,5.61,-8.66,0.00,-4.75,-0.79,70.96,1197,1337,1338,1193,1281,1500,1507,10300,762
95623,17,-2.68,-0.19,-1.54,-0.130,-0.319,0.888,-3.40,-0.50,0.00,0.00,3.40,0.50,0.00,13.20,1.23,15.87,1.42,0.00,1.62,-0.41,74.42,1197,1337,1338,1193,1281,1507,1500,10284,762
95635,17,-6.60,-2.81,-2.00,-0.300,-0.047,1.035,-1.64,-1.54,0.00,0.00,1.64,1.54,0.00,7.06,4.87,13.65,7.68,0.00,3.49,2.10,80.74,1197,1337,1338,1193,1281,1507,1500,10305,762
95647,17,1.09,-6.17,-2.62,-0.083,0.124,0.907,-2.22,2.01,0.00,0.00,2.22,-2.01,0.00,9.10,-7.56,8.01,-1.39,0.00,0.36,2.81,87.11,1204,1361,1355,1202,1281,1500,1507,10288,763
95659,17,10.47,-0.06,-3.29,0.224,0.064,0.796,-4.66,5.83,0.00,0.00,4.66,-5.83,0.00,17.70,-20.98,7.24,-20.92,0.00,-3.96,-2.26,92.41,1204,1361,1355,1202,1281,1500,1507,10280,763
95671,17,8.35,2.80,-2.27,0.103,-0.074,0.878,-5.15,4.51,0.00,0.00,5.15,-4.51,0.00,19.47,-16.41,11.11,-19.21,0.00,-3.16,-3.62,76.38,1204,1361,1355,1202,1281,1500,1507,10275,763
95683,17,0.58,-10.24,-1.50,-0.227,-0.144,0.995,-3.64,1.32,0.00,0.00,3.64,-1.32,0.00,14.20,-5.26,13.62,4.98,0.00,0.10,3.45,68.16,1204,1361,1355,1202,1284,1507,1500,10267,763
95695,17,-5.44,3.63,-2.23,-0.303,-0.037,0.941,-2.07,-2.04,0.00,0.00,2.07,2.04,0.00,8.72,6.52,14.16,2.89,0.00,2.84,-0.13,76.33,1204,1361,1355,1202,1284,1507,1500,10275,763
95707,17,-4.18,9.36,-3.34,-0.212,0.139,0.987,-0.51,-0.98,0.00,0.00,0.51,0.98,0.00,3.27,2.79,7.45,-6.57,0.00,2.01,-2.27,90.14,1204,1361,1355,1202,1284,1507,1500,10271,763
95719,17,1.82,4.98,-3.47,0.039,0.203,0.961,-0.64,1.12,0.00,0.00,0.64,-1.12,0.00,3.75,-4.54,1.94,-9.52,0.00,-1.00,-0.63,87.82,1204,1361,1355,1202,1284,1507,1500,10250,763
95731,17,5.09,-3.14,-3.52,0.226,0.171,0.774,-1.03,2.40,0.00,0.00,1.03,-2.40,0.00,5.11,-9.05,0.02,-5.91,0.00,-2.23,1.88,84.03,1204,1361,1355,1202,1285,1500,1507,10246,763
95743,17,5.62,-7.45,-4.59,0.086,0.019,0.812,-1.60,2.94,0.00,0.00,1.60,-2.94,0.00,7.15,-10.98,1.52,-3.53,0.00,-2.07,2.13,92.21,1194,1378,1379,1187,1285,1500,1507,10259,762
95755,17,3.30,-6.45,-7.05,-0.056,-0.032,0.993,-1.76,1.84,0.00,0.00,1.76,-1.84,0.00,7.71,-7.15,4.42,-0.70,0.00,-0.81,1.55,115.00,1194,1378,1379,1187,1285,1500,1507,10280,762
95767,17,-1.52,-3.59,-8.61,-0.104,-0.074,0.943,-1.83,1.15,0.00,0.00,1.83,-1.15,0.00,7.96,-4.72,9.48,-1.13,0.00,1.53,0.09,124.65,1194,1378,1379,1187,1285,1507,1500,10292,762
95779,17,-5.15,0.78,-8.61,-0.291,0.010,1.013,-1.66,-1.06,0.00,0.00,1.66,1.06,0.00,7.41,3.01,12.56,2.23,0.00,3.33,-1.38,116.86,1194,1378,1379,1187,1285,1507,1500,10280,762
95791,17,-1.82,-3.96,-8.93,-0.062,0.206,0.986,-1.32,-1.34,0.00,0.00,1.32,1.34,0.00,6.23,3.99,8.04,7.95,0.00,1.95,1.67,107.76,1194,1378,1379,1187,1286,1504,1503,10259,762
95803,17,5.63,-4.64,-9.22,0.151,0.053,0.878,-1.62,-0.05,0.00,0.00,1.62,0.05,0.00,7.29,-0.52,1.67,4.12,0.00,-1.37,1.39,107.30,1194,1378,1379,1187,1286,1507,1500,10259,762
95815,17,5.66,-4.70,-9.34,0.305,-0.229,0.743,-3.38,0.46,0.00,0.00,3.38,-0.46,0.00,13.48,-2.28,7.82,2.42,0.00,-1.51,0.85,108.26,1194,1378,1379,1187,1286,1507,1500,10250,762
95827,17,-1.39,-2.82,-10.16,0.015,-0.373,0.849,-3.94,-0.87,0.00,0.00,3.94,0.87,0.00,15.45,2.37,16.84,5.19,0.00,1.33,-0.89,110.92,1194,1378,1379,1187,1290,1506,1501,10267,762
95840,17,-6.19,-6.94,-9.76,-0.256,-0.138,0.862,-2.54,-3.17,0.00,0.00,2.54,3.17,0.00,10.59,10.43,16.78,17.37,0.00,4.09,2.24,104.44,1194,1378,1379,1187,1290,1500,1501,10234,762
95851,17,-0.06,1.16,-10.47,-0.317,0.095,0.882,-1.74,-4.75,0.00,0.00,1.74,4.75,0.00,7.81,16.01,7.87,14.85,0.00,1.79,0.22,109.70,1182,1399,1395,1182,1290,1500,1507,10242,770
95863,17,11.19,16.81,-11.24,-0.409,0.030,1.295,-2.06,-5.97,0.00,0.00,2.06,5.97,0.00,8.95,20.34,-2.24,3.52,0.00,-4.15,-6.91,116.84,1182,1399,1395,1182,1290,1506,1501,10246,770
95875,17,10.71,10.67,-10.05,-0.094,-0.107,0.947,-2.00,-7.27,0.00,0.00,2.00,7.27,0.00,8.77,24.96,-1.94,14.29,0.00,-4.73,-3.12,100.63,1182,1399,1395,1182,1290,1506,1501,10221,770
95887,17,-4.50,-2.44,-10.09,-0.015,-0.083,0.716,-1.31,-7.67,0.00,0.00,1.31,7.67,0.00,6.37,26.43,10.86,28.87,0.00,3.21,3.82,101.70,1182,1399,1395,1182,1291,1506,1501,10209,770
95899,17,-7.35,4.22,-9.75,-0.433,0.215,1.107,0.26,-9.42,0.00,0.00,-0.26,9.42,0.00,0.86,32.61,8.22,28.39,0.00,4.73,1.74,97.44,1182,1399,1395,1182,1291,1506,1501,10238,770
95911,17,3.79,9.38,-10.32,-0.141,0.234,1.066,0.51,-8.82,0.00,0.00,-0.51,8.82,0.00,-0.01,30.62,-3.80,21.24,0.00,-0.66,0.43,105.40,1182,1399,1395,1182,1291,1503,1504,10259,770
95923,17,7.47,13.08,-10.20,-0.027,-0.008,0.994,0.31,-7.25,0.00,0.00,-0.31,7.25,0.00,0.69,25.19,-6.79,12.12,0.00,-2.88,-3.00,104.26,1182,1399,1395,1182,1291,1506,1501,10238,770
95935,17,0.33,-0.45,-11.07,0.295,-0.280,0.751,-0.41,-5.38,0.00,0.00,0.41,5.38,0.00,3.22,18.72,2.89,19.17,0.00,0.12,2.92,112.00,1182,1399,1395,1182,1291,1506,1501,10238,770
95947,17,-6.66,0.63,-12.48,0.050,-0.139,0.799,0.14,-4.65,0.00,0.00,-0.14,4.65,0.00,1.28,16.20,7.94,15.56,0.00,3.52,2.73,122.63,1169,1410,1411,1171,1291,1500,1507,10238,917
95959,17,-2.32,5.07,-13.77,-0.164,-0.042,0.959,1.13,-2.70,0.00,0.00,-1.13,2.70,0.00,-2.18,9.39,0.14,4.32,0.00,1.47,-0.08,136.74,1169,1410,1411,1171,1291,1500,1507,10246,917
95971,17,4.96,2.57,-14.39,0.145,0.097,0.850,0.29,1.88,0.00,0.00,-0.29,-1.88,0.00,0.74,-6.62,-4.23,-9.19,0.00,-2.03,-0.42,134.65,1169,1410,1411,1171,1291,1503,1504,10246,917
95983,17,3.56,1.55,-13.84,0.179,0.036,0.782,0.01,3.32,0.00,0.00,-0.01,-3.32,0.00,1.71,-11.71,-1.85,-13.26,0.00,-1.38,-0.75,121.20,1169,1410,1411,1171,1292,1506,1501,10238,917
95995,17,1.07,-2.66,-15.36,0.145,-0.089,0.839,-0.91,3.84,0.00,0.00,0.91,-3.84,0.00,4.96,-13.55,3.89,-10.89,0.00,-0.24,1.03,131.04,1169,1410,1411,1171,1292,1506,1501,10238,917
96007,17,-3.00,-7.75,-16.45,0.205,-0.120,0.864,-0.66,6.30,0.00,0.00,0.66,-6.30,0.00,4.07,-22.21,7.07,-14.46,0.00,1.90,2.29,139.02,1169,1410,1411,1171,1292,1506,1501,10221,917
96019,17,-4.96,-4.16,-18.33,0.014,-0.090,0.863,-0.59,7.52,0.00,0.00,0.59,-7.52,0.00,3.85,-26.56,8.81,-22.41,0.00,3.09,-0.73,157.62,1169,1410,1411,1171,1292,1506,1501,10213,917
96031,17,1.87,-3.30,-18.86,0.114,0.123,0.826,-0.07,6.43,0.00,0.00,0.07,-6.43,0.00,2.03,-22.80,0.16,-19.49,0.00,-0.02,-0.34,154.56,1169,1410,1411,1171,1292,1500,1507,10217,917
96043,17,7.53,-8.85,-20.27,0.209,0.023,0.793,-0.29,7.40,0.00,0.00,0.29,-7.40,0.00,2.80,-26.27,-4.73,-17.42,0.00,-2.63,1.49,163.62,1134,1455,1454,1130,1294,1506,1501,10209,888
96055,17,5.80,4.11,-22.55,-0.032,-0.153,0.967,-0.61,5.09,0.00,0.00,0.61,-5.09,0.00,3.91,-18.24,-1.89,-22.36,0.00,-2.08,-4.62,182.68,1134,1455,1454,1130,1294,1506,1501,10205,888
96067,17,-7.28,-8.46,-22.38,0.099,-0.071,0.786,0.17,4.33,0.00,0.00,-0.17,-4.33,0.00,1.19,-15.63,8.47,-7.17,0.00,4.21,1.51,170.26,1134,1455,1454,1130,1295,1506,1501,10192,888
96079,17,-3.99,-12.45,-23.98,-0.172,0.113,1.039,-0.28,3.54,0.00,0.00,0.28,-3.54,0.00,2.77,-12.89,6.76,-0.43,0.00,2.93,2.71,177.37,1134,1455,1454,1130,1295,1506,1501,10167,888
96091,17,4.93,-3.54,-27.51,0.077,0.004,0.998,-1.94,3.25,0.00,0.00,1.94,-3.25,0.00,8.60,-11.90,3.67,-8.36,0.00,-1.66,-1.03,205.54,1134,1455,1454,1130,1296,1500,1507,10167,888
96103,17,-0.98,-0.41,-31.45,-0.038,-0.290,0.919,-3.06,2.34,0.00,0.00,3.06,-2.34,0.00,12.53,-8.77,13.51,-8.36,0.00,0.12,-2.75,236.17,1134,1455,1454,1130,1296,1505,1502,10151,888
96115,17,-11.34,-14.16,-33.14,0.155,0.076,0.791,-0.81,3.74,0.00,0.00,0.81,-3.74,0.00,4.68,-13.68,16.02,0.48,0.00,4.80,3.06,238.24,1134,1455,1454,1130,1296,1505,1502,10151,888
96127,17,-2.89,-18.32,-34.62,0.058,0.306,0.966,0.04,3.08,0.00,0.00,-0.04,-3.08,0.00,1.73,-11.40,4.62,6.92,0.00,0.96,5.62,235.70,1134,1455,1454,1130,1302,1505,1502,10121,888
96139,17,0.94,-6.13,-39.61,0.068,-0.099,0.891,-0.87,1.15,0.00,0.00,0.87,-1.15,0.00,4.92,-4.66,3.98,1.48,0.00,-2.06,0.14,276.57,1134,1455,1454,1130,1302,1505,1502,10092,888
96151,17,-18.07,-13.57,-43.34,0.305,-0.114,0.621,-0.51,2.59,0.00,0.00,0.51,-2.59,0.00,3.63,-9.70,21.70,3.87,0.00,5.56,1.09,296.61,1100,1500,1500,1100,1303,1502,1505,10084,762
96163,17,-20.82,-26.22,-46.60,0.042,0.244,0.996,0.24,3.01,0.00,0.00,-0.24,-3.01,0.00,1.01,-11.23,21.84,14.99,0.00,6.14,4.66,312.04,1100,1500,1500,1100,1303,1501,1505,10088,762
96175,17,-9.71,-10.53,-49.41,-0.218,0.064,1.386,-0.83,0.76,0.00,0.00,0.83,-0.76,0.00,4.77,-3.35,14.48,7.18,0.00,-0.76,-1.94,319.58,1100,1500,1500,1100,1303,1501,1505,10096,762
96187,17,-20.34,-11.31,-52.98,-0.160,-0.234,1.108,-0.77,-0.90,0.00,0.00,0.77,0.90,0.00,4.57,2.47,24.92,13.78,0.00,2.89,-2.28,336.85,1100,1500,1500,1100,1304,1505,1501,10121,762
96199,17,-26.21,-27.01,-56.82,-0.090,0.109,1.131,-0.08,-1.54,0.00,0.00,0.08,1.54,0.00,2.16,4.72,28.37,31.73,0.00,5.51,3.05,350.00,1100,1500,1500,1100,1304,1505,1501,10092,762
96211,17,-19.84,-30.69,-58.20,0.028,0.020,1.214,-0.76,-0.85,0.00,0.00,0.76,0.85,0.00,4.53,2.31,24.37,33.00,0.00,1.43,4.27,344.55,1100,1500,1500,1100,1306,1502,1505,10088,762
96223,17,-27.17,-17.34,-62.74,-0.313,-0.223,1.237,-0.45,-2.68,0.00,0.00,0.45,2.68,0.00,3.47,8.71,30.64,26.04,0.00,3.05,-3.16,350.00,1100,1500,1500,1100,1308,1505,1502,10096,762
96235,17,-33.03,-37.09,-67.12,-0.021,-0.037,1.090,-0.47,-3.40,0.00,0.00,0.47,3.40,0.00,3.54,11.29,36.57,48.38,0.00,5.21,4.88,350.00,1100,1500,1500,1100,1308,1505,1502,10080,762
96247,17,-31.20,-42.05,-68.60,0.014,-0.159,1.159,-1.51,-1.78,0.00,0.00,1.51,1.78,0.00,7.18,5.63,38.38,47.67,0.00,3.36,5.27,350.00,1100,1500,1500,1100,1308,1505,1502,10101,762
96259,17,-36.08,-31.36,-72.66,-0.179,-0.105,1.133,-1.55,-2.55,0.00,0.00,1.55,2.55,0.00,7.34,8.33,43.41,39.68,0.00,4.33,-0.70,350.00,1100,1500,1500,1100,1308,1505,1502,10096,762
96271,17,-40.88,-43.50,-76.89,-0.108,-0.007,1.039,-1.14,-4.12,0.00,0.00,1.14,4.12,0.00,5.91,13.87,46.79,57.36,0.00,5.50,4.41,350.00,1100,1500,1500,1100,1308,1501,1506,10096,762
96283,17,-41.08,-58.37,-79.77,0.070,0.094,0.964,-1.27,-3.10,0.00,0.00,1.27,3.10,0.00,6.38,10.34,47.46,68.72,0.00,4.17,9.01,350.00,1100,1500,1500,1100,1309,1505,1502,10092,762
96295,17,-44.97,-45.90,-82.43,0.043,-0.013,0.963,-1.23,-2.84,0.00,0.00,1.23,2.84,0.00,6.24,9.46,51.21,55.36,0.00,4.51,1.83,350.00,1100,1500,1500,1100,1309,1505,1502,10080,762
96307,17,-48.46,-50.89,-85.63,0.021,0.054,0.920,-1.17,-1.63,0.00,0.00,1.17,1.63,0.00,6.05,5.22,54.51,56.11,0.00,4.88,3.23,350.00,1100,1500,1500,1100,1309,1505,1502,10101,762
96319,17,-49.66,-49.09,-89.47,-0.186,0.009,1.064,-1.36,-3.56,0.00,0.00,1.36,3.56,0.00,6.72,12.01,56.38,61.09,0.00,4.11,2.23,350.00,1100,1500,1500,1100,1309,1505,1502,10109,762
96331,17,-55.00,-57.62,-91.24,0.156,-0.097,0.791,-1.39,-2.59,0.00,0.00,1.39,2.59,0.00,6.85,8.65,61.85,66.26,0.00,5.15,6.36,350.00,1100,1500,1500,1100,1309,1502,1505,10113,762
96343,17,-55.34,-47.01,-96.17,-0.244,-0.088,1.271,-1.68,-3.97,0.00,0.00,1.68,3.97,0.00,7.86,13.50,63.20,60.51,0.00,4.09,0.53,350.00,1100,1500,1500,1100,1309,1505,1502,10096,762
96355,17,-61.25,-51.69,-98.36,0.010,0.080,0.872,-1.27,-3.81,0.00,0.00,1.27,3.81,0.00,6.45,12.98,67.70,64.67,0.00,5.30,3.23,350.00,1100,1500,1500,1100,1309,1505,1502,10080,762
96367,17,-68.29,-55.28,-100.82,0.049,0.011,0.886,-1.16,-2.77,0.00,0.00,1.16,2.77,0.00,6.08,9.38,74.36,64.66,0.00,7.33,4.00,350.00,1100,1500,1500,1100,1309,1501,1506,10096,762
96379,17,-64.54,-54.74,-105.35,-0.033,-0.019,0.941,-1.96,-3.67,0.00,0.00,1.96,3.67,0.00,8.91,12.55,73.45,67.29,0.00,3.97,3.59,350.00,1100,1500,1500,1100,1309,1501,1506,10101,762
96391,17,-72.80,-50.90,-106.41,-0.104,0.093,0.918,-1.28,-4.61,0.00,0.00,1.28,4.61,0.00,6.55,15.87,79.34,66.77,0.00,6.23,2.14,350.00,1100,1500,1500,1100,1309,1501,1506,10101,762
96403,17,-74.30,-60.64,-109.59,0.294,0.042,0.750,-1.65,-2.07,0.00,0.00,1.65,2.07,0.00,7.86,7.03,82.16,67.67,0.00,5.97,6.09,350.00,1100,1500,1500,1100,1309,1504,1503,10096,762
96415,17,-75.05,-53.83,-113.83,-0.176,-0.101,1.044,-2.71,-2.19,0.00,0.00,2.71,2.19,0.00,11.59,7.46,86.65,61.29,0.00,4.51,1.50,350.00,1100,1500,1500,1100,1309,1504,1503,10105,762
96427,17,-85.76,-54.29,-115.16,-0.062,0.055,0.898,-2.03,-2.27,0.00,0.00,2.03,2.27,0.00,9.21,7.77,94.97,62.06,0.00,8.32,2.15,350.00,1100,1500,1500,1100,1309,1504,1503,10101,762
96439,17,-84.35,-62.89,-118.10,0.228,-0.123,0.720,-3.76,0.12,0.00,0.00,3.76,-0.12,0.00,15.30,-0.59,99.66,62.31,0.00,6.44,5.41,350.00,1100,1500,1500,1100,1309,1504,1503,10096,762
96451,17,-86.85,-48.25,-120.80,-0.316,-0.028,1.025,-3.50,-2.94,0.00,0.00,3.50,2.94,0.00,14.42,10.14,101.26,58.38,0.00,5.97,-1.69,350.00,1100,1500,1500,1100,1309,1501,1506,10088,762
96463,17,-87.73,-64.27,-122.79,0.323,0.195,0.627,-2.50,-0.83,0.00,0.00,2.50,0.83,0.00,10.94,2.78,98.67,67.05,0.00,5.71,6.77,350.00,1100,1500,1500,1100,1309,1502,1505,10113,762
96475,17,-93.04,-60.32,-126.41,-0.184,-0.167,0.915,-3.95,-0.09,0.00,0.00,3.95,0.09,0.00,16.08,0.17,109.13,60.48,0.00,7.10,2.58,350.00,1100,1500,1500,1100,1309,1502,1505,10088,762
96487,17,-94.11,-47.41,-129.16,-0.139,-0.031,0.956,-3.68,-3.01,0.00,0.00,3.68,3.01,0.00,15.15,10.44,109.26,57.85,0.00,6.80,-1.55,350.00,1100,1500,1500,1100,1309,1504,1503,10080,762
96499,17,-91.43,-60.84,-131.93,0.059,-0.067,0.772,-3.87,-2.07,0.00,0.00,3.87,2.07,0.00,15.85,7.17,107.28,68.00,0.00,4.91,5.45,350.00,1100,1500,1500,1100,1309,1504,1503,10096,762
96511,17,-98.05,-57.92,-134.44,-0.137,0.036,0.780,-3.87,-3.10,0.00,0.00,3.87,3.10,0.00,15.88,10.78,113.93,68.70,0.00,7.23,3.14,350.00,1100,1500,1500,1100,1309,1501,1506,10105,762
96523,17,-91.36,-48.00,-136.87,0.107,-0.046,0.903,-4.24,-4.66,0.00,0.00,4.24,4.66,0.00,17.24,16.31,108.60,64.30,0.00,3.85,0.29,350.00,1100,1500,1500,1100,1309,1500,1507,10117,762
96535,17,-98.64,-65.61,-140.87,0.077,-0.019,0.675,-4.53,0.93,0.00,0.00,4.53,-0.93,0.00,18.28,-3.28,116.92,62.33,0.00,6.73,6.59,350.00,1100,1500,1500,1100,1309,1500,1507,10134,762
96547,17,-102.43,-47.89,-142.74,-0.254,0.038,1.008,-4.84,-2.45,0.00,0.00,4.84,2.45,0.00,19.43,8.58,121.85,56.47,0.00,8.06,-1.23,350.00,1100,1500,1500,1100,1309,1504,1503,10126,762
96559,17,-97.63,-55.76,-145.09,0.202,-0.107,0.670,-4.97,-2.39,0.00,0.00,4.97,2.39,0.00,19.92,8.40,117.55,64.16,0.00,5.14,4.24,350.00,1100,1500,1500,1100,1309,1500,1503,10101,762
96571,17,-100.77,-62.22,-148.50,-0.085,-0.043,0.825,-4.81,-0.38,0.00,0.00,4.81,0.38,0.00,19.40,1.37,120.17,63.58,0.00,6.36,4.91,350.00,1100,1500,1500,1100,1309,1500,1507,10101,762
96583,17,-101.10,-56.77,-150.15,-0.002,-0.044,0.908,-5.50,-2.09,0.00,0.00,5.50,2.09,0.00,21.86,7.37,122.96,64.15,0.00,6.14,2.65,350.00,1100,1500,1500,1100,1309,1502,1505,10105,762
96595,17,-103.03,-60.57,-152.69,0.221,-0.038,0.612,-5.23,-0.08,0.00,0.00,5.23,0.08,0.00,20.99,0.33,124.02,60.91,0.00,6.76,4.04,350.00,1100,1500,1500,1100,1309,1502,1505,10109,762
96607,17,-100.94,-60.94,-155.20,-0.041,0.089,0.895,-4.84,-0.34,0.00,0.00,4.84,0.34,0.00,19.65,1.27,120.59,62.20,0.00,5.39,3.49,350.00,1100,1500,1500,1100,1309,1504,1503,10109,762
96619,17,-103.16,-61.33,-158.99,-0.068,0.013,0.794,-5.12,-1.63,0.00,0.00,5.12,1.63,0.00,20.68,5.78,123.83,67.11,0.00,6.26,3.59,350.00,1100,1500,1500,1100,1309,1504,1503,10117,762
96631,17,-106.44,-69.99,-159.79,-0.029,-0.056,0.822,-5.02,-1.23,0.00,0.00,5.02,1.23,0.00,20.39,4.39,126.83,74.38,0.00,7.74,6.06,350.00,1100,1500,1500,1100,1309,1501,1506,10096,762
96643,17,-101.95,-62.74,-164.15,-0.058,-0.172,0.884,-5.78,-3.43,0.00,0.00,5.78,3.43,0.00,23.09,12.10,125.04,74.84,0.00,5.45,3.05,350.00,1100,1500,1500,1100,1309,1504,1503,10084,762
96655,17,-103.12,-76.56,-164.86,0.054,-0.015,0.684,-5.69,-1.88,0.00,0.00,5.69,1.88,0.00,22.85,6.71,125.96,83.26,0.00,5.95,8.20,350.00,1100,1500,1500,1100,1309,1504,1503,10096,762
96667,17,-102.85,-68.19,-166.97,0.011,-0.062,0.913,-5.93,-3.24,0.00,0.00,5.93,3.24,0.00,23.75,11.51,126.60,79.70,0.00,5.96,3.73,350.00,1100,1500,1500,1100,1309,1501,1506,10096,762
96679,17,-99.03,-68.25,-169.88,-0.118,-0.145,0.867,-6.16,-4.04,0.00,0.00,6.16,4.04,0.00,24.60,14.33,123.62,82.58,0.00,4.17,3.48,350.00,1100,1500,1500,1100,1309,1501,1506,10080,762
96691,17,-101.99,-80.41,-172.04,-0.005,0.178,0.724,-5.60,-3.99,0.00,0.00,5.60,3.99,0.00,22.69,14.19,124.68,94.60,0.00,6.12,8.00,350.00,1100,1500,1500,1100,1309,1500,1507,10063,762
96703,17,-95.56,-72.23,-175.02,-0.119,-0.086,0.886,-6.53,-6.35,0.00,0.00,6.53,6.35,0.00,26.02,22.51,121.58,94.74,0.00,3.63,3.89,350.00,1100,1500,1500,1100,1309,1500,1507,10051,762
96715,17,-95.72,-72.53,-178.99,0.035,-0.424,0.658,-8.27,-5.25,0.00,0.00,8.27,5.25,0.00,32.16,18.73,127.88,91.26,0.00,5.80,3.68,350.00,1100,1500,1500,1100,1309,1500,1507,10047,762
96727,17,-55.68,-118.65,-157.38,-0.612,-2.820,2.001,-18.52,-7.45,0.00,0.00,18.52,7.45,0.00,68.20,26.46,123.88,145.11,0.00,-7.57,20.70,350.00,1100,1500,1500,1100,1309,1503,1504,10080,762
96739,17,-14.85,-174.00,-109.13,-0.413,-1.551,1.752,-24.41,-8.20,0.00,0.00,24.41,8.20,0.00,89.04,29.17,103.89,203.16,0.00,-12.20,32.86,220.26,1100,1500,1500,1100,1309,1503,1504,10047,762
96751,17,28.77,-194.34,-89.03,-0.349,-0.556,0.442,-28.07,-12.02,0.00,0.00,28.07,12.02,0.00,102.11,42.65,73.34,236.99,0.00,-15.57,30.16,182.98,1194,1461,1467,1109,1309,1504,1503,10001,763
96763,17,45.49,-233.78,-85.45,-0.214,-0.351,0.934,-18.98,-10.84,0.00,0.00,18.98,10.84,0.00,70.49,38.63,25.00,272.42,0.00,-11.86,34.96,276.54,1194,1461,1467,1109,1309,1500,1507,9976,763
96775,17,57.66,-217.69,-100.19,-0.229,-0.185,0.674,-16.77,-13.43,0.00,0.00,16.77,13.43,0.00,62.92,47.82,5.25,265.52,0.00,-8.80,20.05,350.00,1194,1461,1467,1109,1309,1500,1507,9967,763
96787,17,54.56,-204.93,-114.39,-0.104,-0.061,0.776,-15.88,-16.67,0.00,0.00,15.88,16.67,0.00,59.97,59.31,5.41,264.24,0.00,-1.74,12.97,350.00,1194,1461,1467,1109,1309,1504,1503,9963,763
96799,17,56.48,-188.14,-126.21,-0.436,-0.289,0.930,-14.50,-21.22,0.00,0.00,14.50,21.22,0.00,55.28,75.44,-1.20,263.58,0.00,1.13,6.26,350.00,1194,1461,1467,1109,1309,1504,1503,9992,763
96811,17,84.48,-196.16,-145.38,-0.451,-0.585,0.781,-16.46,-24.20,0.00,0.00,16.46,24.20,0.00,62.31,86.09,-22.17,282.24,0.00,-8.85,11.83,350.00,1194,1461,1467,1109,1309,1501,1506,9992,763
96823,17,95.10,-189.60,-174.75,-0.120,-0.301,0.735,-17.17,-22.43,0.00,0.00,17.17,22.43,0.00,64.96,80.11,-30.15,269.70,0.00,-10.03,10.17,350.00,1194,1461,1467,1109,1309,1503,1504,9976,763
96835,17,92.91,-182.92,-190.94,0.069,-0.218,0.569,-16.30,-16.68,0.00,0.00,16.30,16.68,0.00,62.07,60.17,-30.85,243.08,0.00,-5.09,8.50,350.00,1194,1461,1467,1109,1309,1503,1504,9947,763
96847,17,90.55,-178.64,-198.60,0.043,0.033,0.541,-11.97,-13.17,0.00,0.00,11.97,13.17,0.00,47.02,47.99,-43.53,226.62,0.00,-3.22,8.43,350.00,1100,1500,1500,1100,1309,1503,1504,9976,763
96859,17,80.55,-186.67,-200.84,-0.042,0.092,0.804,-9.52,-12.06,0.00,0.00,9.52,12.06,0.00,38.54,44.24,-42.01,230.91,0.00,0.95,12.17,350.00,1100,1500,1500,1100,1309,1503,1504,10005,763
96871,17,76.27,-176.55,-203.68,-0.154,-0.088,0.792,-7.66,-14.48,0.00,0.00,7.66,14.48,0.00,32.12,52.84,-44.15,229.40,0.00,1.14,8.49,350.00,1100,1500,1500,1100,1309,1500,1507,10030,763
96883,17,76.04,-172.20,-213.31,-0.063,-0.321,0.899,-8.34,-14.06,0.00,0.00,8.34,14.06,0.00,34.58,51.51,-41.46,223.71,0.00,0.25,7.24,350.00,1100,1500,1500,1100,1309,1503,1504,10034,763
96895,17,90.49,-152.26,-235.86,-0.172,-0.304,1.162,-10.04,-15.16,0.00,0.00,10.04,15.16,0.00,40.61,55.51,-49.88,207.76,0.00,-6.22,1.86,350.00,1100,1500,1500,1100,1309,1503,1504,10067,763
96907,17,91.47,-134.48,-246.80,0.193,-0.083,0.678,-8.36,-13.57,0.00,0.00,8.36,13.57,0.00,34.84,50.09,-56.64,184.58,0.00,-4.22,-0.38,350.00,1100,1500,1500,1100,1309,1503,1504,10059,763
96919,17,91.90,-142.42,-255.70,0.259,-0.260,0.559,-9.99,-7.67,0.00,0.00,9.99,7.67,0.00,40.61,29.53,-51.29,171.95,0.00,-2.88,5.81,350.00,1100,1500,1500,1100,1309,1503,1504,10059,763
96931,17,90.75,-137.13,-258.06,-0.084,0.040,0.918,-8.17,-6.78,0.00,0.00,8.17,6.78,0.00,34.32,26.47,-56.43,163.60,0.00,-1.70,4.58,350.00,1100,1500,1500,1100,1281,1501,1506,10047,763
96943,17,89.99,-142.98,-259.78,0.373,-0.162,0.369,-8.15,-0.90,0.00,0.00,8.15,0.90,0.00,34.33,5.93,-55.66,148.92,0.00,-1.17,8.59,350.00,1100,1500,1500,1100,1270,1501,1506,10051,767
96955,17,87.17,-136.03,-263.63,-0.103,-0.126,0.886,-8.16,-0.49,0.00,0.00,8.16,0.49,0.00,34.45,4.49,-52.72,140.52,0.00,0.18,4.52,350.00,1100,1500,1500,1100,1270,1501,1506,10063,767
96967,17,91.44,-126.46,-263.52,-0.287,0.048,0.933,-5.29,-5.36,0.00,0.00,5.29,5.36,0.00,24.46,21.57,-66.98,148.03,0.00,-2.19,3.20,350.00,1100,1500,1500,1100,1205,1501,1506,10076,767
96979,17,85.33,-140.70,-265.74,0.208,-0.161,0.629,-4.88,-3.48,0.00,0.00,4.88,3.48,0.00,23.09,15.05,-62.24,155.76,0.00,0.46,10.58,350.00,1100,1500,1500,1100,1205,1501,1506,10092,767
96991,17,91.04,-129.46,-268.05,-0.350,-0.140,1.134,-4.89,-6.57,0.00,0.00,4.89,6.57,0.00,23.16,25.90,-67.88,155.36,0.00,-2.57,5.00,350.00,1100,1500,1500,1100,1205,1499,1508,10088,767
97003,25,91.12,-129.29,-267.95,0.042,-0.128,0.792,-2.97,-7.63,0.00,-1.89,2.97,5.74,0.00,16.47,23.06,-74.65,152.35,0.00,-2.45,7.03,350.00,1100,1500,1500,1100,1027,1512,1479,10080,767
97015,25,102.92,-170.00,-267.23,0.150,-0.502,1.036,-8.05,-6.20,0.00,-1.89,8.05,4.31,0.00,28.19,15.07,-74.73,185.07,0.00,-7.22,20.63,350.00,1100,1500,1500,1100,1027,1512,1479,10067,767
97027,25,125.05,-161.74,-260.17,-0.193,0.005,1.210,-7.02,-9.75,2.34,-2.61,9.36,7.14,0.00,32.77,25.00,-92.29,186.74,0.00,-13.20,13.40,350.00,1100,1500,1500,1100,1027,1526,1471,10092,767
97039,25,134.18,-178.03,-262.04,0.249,-0.344,0.648,-9.02,-6.47,2.34,-2.61,11.36,3.86,0.00,39.75,13.50,-94.43,191.53,0.00,-11.80,16.02,350.00,1100,1500,1500,1100,1027,1526,1471,10126,767
97051,25,142.66,-155.33,-266.38,-0.352,-0.230,1.256,-8.33,-7.18,5.58,-2.25,13.91,4.93,0.00,48.67,17.26,-93.99,172.59,0.00,-11.32,3.48,350.00,1100,1100,1100,1100,1026,1562,1475,10151,761
97063,25,156.62,-158.63,-269.68,0.429,-0.298,0.532,-8.79,-3.05,0.00,0.00,8.79,3.05,0.00,30.77,10.67,-125.85,169.30,0.00,-13.02,7.87,350.00,1100,1100,1100,1100,1026,1506,1480,10167,761
97075,25,161.92,-125.61,-272.79,-0.425,-0.304,0.977,-8.21,-5.71,0.00,0.00,8.21,5.71,0.00,28.73,19.99,-133.19,145.60,0.00,-11.80,-5.77,350.00,1100,1100,1100,1100,1026,1506,1480,10188,761
97087,25,165.71,-126.77,-273.01,-0.200,0.062,0.836,-4.93,-7.52,0.00,0.00,4.93,7.52,0.00,17.24,26.31,-148.47,153.08,0.00,-10.45,0.47,350.00,1100,1100,1100,1100,1031,1501,1513,10217,761
97099,25,188.54,-104.76,-279.78,0.198,-0.130,0.755,-5.14,-5.68,0.00,0.00,5.14,5.68,0.00,18.01,19.88,-170.53,124.64,0.00,-17.36,-4.18,350.00,1100,1100,1100,1100,1031,1501,1513,10271,761
97111,25,192.71,-76.02,-280.37,-0.003,0.131,0.749,-2.08,-5.25,0.00,0.00,2.08,5.25,0.00,7.27,18.38,-185.43,94.40,0.00,-14.49,-11.29,350.00,1100,1100,1100,1100,1033,1499,1508,10300,761
97123,25,196.16,-75.18,-282.56,-0.076,0.053,0.724,-6.42,-2.88,0.00,0.00,6.42,2.88,0.00,22.47,10.06,-173.68,85.25,0.00,-11.28,-6.22,350.00,1100,1100,1100,1100,1033,1508,1499,10325,761
97135,25,195.86,-65.39,-282.33,-0.233,-0.059,0.924,-4.30,-3.80,0.00,0.00,4.30,3.80,0.00,15.06,13.32,-180.80,78.71,0.00,-9.08,-4.86,350.00,1100,1100,1100,1100,1033,1508,1499,10338,761
97147,25,200.43,-62.13,-283.71,0.068,-0.172,0.437,-5.38,-1.51,0.00,0.00,5.38,1.51,0.00,18.83,5.28,-181.61,67.41,0.00,-9.23,-1.43,350.00,1100,1100,1100,1100,1033,1500,1509,10359,765
97159,25,200.00,-53.16,-282.40,0.111,-0.183,0.418,-3.30,0.60,0.00,0.00,3.30,-0.60,0.00,11.54,-2.11,-188.46,51.05,0.00,-8.23,-1.45,350.00,1100,1100,1100,1100,1033,1500,1509,10392,765
97172,25,204.27,-41.57,-281.60,0.011,-0.150,0.420,-2.19,1.69,0.00,0.00,2.19,-1.69,0.00,7.65,-5.91,-196.62,35.66,0.00,-9.01,-2.98,350.00,1100,1100,1100,1100,1033,1500,1509,10421,765
97183,25,74.45,87.32,-275.66,-0.089,-0.538,2.318,8.57,9.34,0.00,0.00,-8.57,-9.34,0.00,-30.00,-32.70,-104.45,-120.02,0.00,40.85,-53.38,350.00,1100,1100,1100,1100,1033,1502,1506,10425,765
97195,25,34.05,150.55,-270.71,-0.026,-0.625,0.628,5.17,10.81,0.00,0.00,-5.17,-10.81,0.00,-18.08,-37.85,-52.13,-188.39,0.00,35.57,-57.91,350.00,1100,1100,1100,1100,1033,1502,1506,10438,765
97207,25,-30.12,198.93,-260.44,-0.597,-0.436,0.507,24.03,9.70,0.00,0.00,-24.03,-9.70,0.00,-84.09,-33.95,-53.97,-232.88,0.00,38.49,-52.80,350.00,1100,1100,1100,1100,1034,1508,1500,10442,765
97219,25,-73.94,77.08,-249.35,-0.190,-0.942,2.166,17.14,3.96,0.00,0.00,-17.14,-3.96,0.00,-60.00,-13.87,13.94,-90.95,0.00,35.32,19.46,350.00,1100,1100,1100,1100,1034,1508,1500,10454,765
97231,25,-60.63,-70.37,-255.11,-0.014,-0.527,0.809,10.32,1.95,0.00,0.00,-10.32,-1.95,0.00,-36.13,-6.82,24.49,63.55,0.00,15.47,60.66,350.00,1100,1100,1100,1100,1033,1500,1508,10459,765
97243,25,-52.52,-109.39,-254.88,-0.035,-0.632,0.081,11.17,1.89,0.00,0.00,-11.17,-1.89,0.00,-39.09,-6.61,13.42,102.77,0.00,7.40,53.57,350.00,1100,1100,1100,1100,1033,1507,1501,10459,769
97255,25,-34.65,-108.04,-257.54,-0.565,0.312,1.244,23.29,8.48,0.00,0.00,-23.29,-8.48,0.00,-81.50,-29.69,-46.85,78.35,0.00,-1.88,29.77,350.00,1100,1100,1100,1100,1033,1507,1501,10450,769
97267,25,17.64,-55.50,-252.99,-0.884,-0.222,1.215,15.13,4.32,0.00,0.00,-15.13,-4.32,0.00,-52.96,-15.13,-70.59,40.37,0.00,-16.78,-2.94,350.00,1100,1100,1100,1100,1033,1508,1501,10454,769
97279,25,69.71,0.25,-253.49,-0.746,0.197,0.342,10.97,-2.12,0.00,0.00,-10.97,2.12,0.00,-38.39,7.41,-108.11,7.16,0.00,-23.93,-21.00,350.00,1100,1100,1100,1100,1033,1508,1501,10459,769
97291,25,63.89,32.82,-245.83,-0.190,0.330,0.701,13.29,-4.12,0.00,0.00,-13.29,4.12,0.00,-46.52,14.43,-110.41,-18.39,0.00,-9.47,-22.32,350.00,1100,1100,1100,1100,1033,1500,1509,10454,769
97303,25,16.95,57.09,-236.24,-0.176,0.652,1.682,14.87,-3.50,0.00,0.00,-14.87,3.50,0.00,-52.04,12.24,-69.00,-44.85,0.00,10.94,-19.79,350.00,1100,1100,1100,1100,1033,1500,1509,10450,769
97315,25,-33.34,45.88,-227.01,0.228,0.055,-0.042,23.99,2.80,0.00,0.00,-23.99,-2.80,0.00,-83.96,-9.80,-50.62,-55.67,0.00,18.98,-8.42,350.00,1100,1100,1100,1100,1033,1500,1509,10450,769
97327,25,-76.57,16.07,-222.42,0.003,-0.160,0.458,24.09,-2.79,0.00,0.00,-24.09,2.79,0.00,-84.33,9.77,-7.76,-6.31,0.00,23.68,6.97,350.00,1100,1100,1100,1100,1033,1499,1509,10450,769
97339,25,-84.59,22.92,-216.50,-1.057,-0.824,0.759,19.04,-8.84,0.00,0.00,-19.04,8.84,0.00,-66.65,30.94,17.94,8.01,0.00,14.52,0.35,350.00,1100,1100,1100,1100,1033,1499,1509,10450,769
97351,25,-3.93,-36.45,-219.72,-0.113,-0.327,2.032,15.79,-12.20,0.00,0.00,-15.79,12.20,0.00,-55.25,42.71,-51.33,79.16,0.00,-14.54,28.64,350.00,1100,1100,1100,1100,1033,1502,1507,10454,761
97363,25,-4.60,-51.49,-214.49,-0.030,-0.402,-0.857,4.01,-14.94,0.00,0.00,-4.01,14.94,0.00,-14.05,52.29,-9.45,103.77,0.00,-4.73,26.68,350.00,1100,1100,1100,1100,1033,1504,1505,10450,761
97375,25,-9.24,-64.11,-213.67,-0.459,-0.118,0.488,21.28,-19.04,0.00,0.00,-21.28,19.04,0.00,-74.48,66.62,-65.24,130.74,0.00,-0.84,23.89,350.00,1100,1100,1100,1100,1033,1504,1505,10459,761
97387,25,20.80,-18.78,-211.20,0.174,1.068,2.119,19.06,-14.47,0.00,0.00,-19.06,14.47,0.00,-66.72,50.64,-87.52,69.42,0.00,-11.33,-1.60,350.00,1100,1100,1100,1100,1033,1500,1508,10446,761
97399,25,-47.81,10.53,-199.00,-0.260,0.611,1.062,20.35,-8.09,0.00,0.00,-20.35,8.09,0.00,-71.22,28.31,-23.41,17.78,0.00,17.14,-13.82,350.00,1100,1100,1100,1100,1033,1500,1508,10450,761
97411,25,-47.32,30.25,-198.31,-0.330,0.599,0.687,17.68,-10.90,0.00,0.00,-17.68,10.90,0.00,-61.89,38.14,-14.57,7.89,0.00,10.35,-13.26,350.00,1100,1100,1100,1100,1033,1499,1510,10459,761
97423,25,-11.31,6.54,-198.28,-0.532,0.589,2.049,14.48,-7.11,0.00,0.00,-14.48,7.11,0.00,-50.67,24.88,-39.36,18.34,0.00,-9.91,1.35,350.00,1100,1100,1100,1100,1033,1500,1508,10450,761
97435,25,4.63,7.07,-197.69,-1.094,0.226,1.541,11.60,-8.90,0.00,0.00,-11.60,8.90,0.00,-40.59,31.14,-45.21,24.07,0.00,-14.08,-0.52,350.00,1100,1100,1100,1100,1033,1500,1508,10438,761
97447,25,9.73,-24.45,-196.19,-0.214,0.529,0.379,13.42,-8.99,0.00,0.00,-13.42,8.99,0.00,-46.98,31.47,-56.72,55.92,0.00,-11.14,9.72,350.00,1100,1100,1100,1100,1033,1500,1509,10442,761
97459,25,18.22,-6.73,-190.24,-0.281,0.308,1.297,14.10,-11.42,0.00,0.00,-14.10,11.42,0.00,-49.35,39.95,-67.57,46.69,0.00,-10.75,-1.21,350.00,1100,1100,1100,1100,1033,1500,1509,10442,761
97471,25,17.02,-9.11,-189.33,0.052,0.192,1.123,14.49,-5.74,0.00,0.00,-14.49,5.74,0.00,-50.71,20.09,-67.73,29.20,0.00,-8.96,-3.12,350.00,1100,1100,1100,1100,1033,1508,1500,10454,761
97483,25,1.31,12.00,-182.43,-0.371,-0.037,0.634,13.26,-10.25,0.00,0.00,-13.26,10.25,0.00,-46.41,35.87,-47.72,23.87,0.00,-3.36,-8.22,350.00,1100,1100,1100,1100,1033,1501,1508,10450,761
97495,25,-9.97,6.38,-179.90,-0.238,-0.260,1.000,13.28,-13.26,0.00,0.00,-13.28,13.26,0.00,-46.48,46.39,-36.51,40.02,0.00,1.53,1.73,350.00,1100,1100,1100,1100,1033,1501,1508,10459,761
97507,25,-24.87,-16.84,-176.90,0.359,-0.475,-0.033,7.46,-11.26,0.00,0.00,-7.46,11.26,0.00,-26.11,39.39,-1.24,56.23,0.00,6.13,9.90,350.00,1100,1100,1100,1100,1033,1502,1506,10454,761
97519,25,-11.41,-2.02,-177.19,-0.371,-0.398,1.644,8.27,-8.94,0.00,0.00,-8.27,8.94,0.00,-28.93,31.30,-17.52,33.33,0.00,1.13,6.30,350.00,1100,1100,1100,1100,1033,1502,1506,10450,761
97531,25,-23.37,-18.52,-177.67,-0.377,0.197,0.346,11.73,-12.00,0.00,0.00,-11.73,12.00,0.00,-41.05,42.01,-17.67,60.52,0.00,5.08,11.84,350.00,1100,1100,1100,1100,1033,1501,1508,10454,761
97543,25,2.71,23.32,-179.40,-0.763,0.821,1.510,-4.54,-3.59,0.00,0.00,4.54,3.59,0.00,15.91,12.56,13.20,-10.75,0.00,-3.73,-13.32,350.00,1100,1100,1100,1100,1033,1507,1502,10446,762
97555,25,-18.33,0.09,-174.10,-0.303,0.352,1.312,-1.37,-3.90,0.00,0.00,1.37,3.90,0.00,4.78,13.65,23.11,13.56,0.00,6.16,-0.42,350.00,1100,1100,1100,1100,1033,1507,1502,10454,762
97567,25,31.64,32.88,-174.79,0.109,0.844,1.053,1.24,-4.57,0.00,0.00,-1.24,4.57,0.00,-4.33,16.01,-35.98,-16.88,0.00,-17.53,-17.10,350.00,1100,1100,1100,1100,1033,1501,1507,10459,762
97579,25,-2.99,4.98,-170.60,0.571,0.804,0.627,5.89,-0.62,0.00,0.00,-5.89,0.62,0.00,-20.61,2.16,-17.61,-2.83,0.00,0.38,-1.64,350.00,1100,1100,1100,1100,1033,1500,1507,10450,762
97591,25,-17.60,-4.24,-168.77,0.214,0.309,0.135,8.65,-0.04,0.00,0.00,-8.65,0.04,0.00,-30.27,0.14,-12.67,4.38,0.00,3.58,0.99,350.00,1100,1100,1100,1100,1033,1500,1509,10459,762
97603,25,2.03,-10.54,-169.35,0.125,-0.431,0.883,5.08,-1.44,0.00,0.00,-5.08,1.44,0.00,-17.78,5.05,-19.80,15.59,0.00,-7.87,1.86,350.00,1100,1100,1100,1100,1042,1506,1503,10450,762
97615,25,16.13,-22.46,-165.54,-0.509,0.671,1.707,7.25,-4.61,0.00,0.00,-7.25,4.61,0.00,-25.37,16.14,-41.50,38.59,0.00,-10.68,9.84,350.00,1100,1100,1100,1100,1042,1506,1503,10442,762
97627,25,-0.86,0.81,-159.50,-0.314,0.413,1.327,9.89,-6.11,0.00,0.00,-9.89,6.11,0.00,-34.60,21.39,-33.74,20.58,0.00,1.13,-0.05,350.00,1100,1100,1100,1100,1033,1501,1507,10446,762
97639,25,-7.86,-5.16,-157.93,-0.096,0.124,0.031,16.46,-7.27,0.00,0.00,-16.46,7.27,0.00,-57.62,25.45,-49.75,30.61,0.00,1.89,1.37,350.00,1100,1100,1100,1100,1033,1501,1507,10454,762
97651,25,-4.46,-9.26,-155.08,0.110,0.290,0.738,17.63,-6.86,0.00,0.00,-17.63,6.86,0.00,-61.72,24.00,-57.26,33.26,0.00,-1.23,5.89,350.00,1100,1100,1100,1100,1033,1500,1509,10459,760
97663,25,-13.41,2.35,-160.48,-0.218,-0.010,1.336,15.77,-5.19,0.00,0.00,-15.77,5.19,0.00,-55.19,18.18,-41.79,15.83,0.00,2.28,-0.16,350.00,1100,1100,1100,1100,1033,1502,1507,10459,760
97675,25,-9.19,-0.71,-160.18,-0.033,0.135,1.199,16.44,-3.61,0.00,0.00,-16.44,3.61,0.00,-57.52,12.64,-48.34,13.35,0.00,0.41,0.62,350.00,1100,1100,1100,1100,1033,1502,1507,10454,760
97687,25,-1.15,-11.73,-160.01,0.310,0.528,0.928,17.85,-0.98,0.00,0.00,-17.85,0.98,0.00,-62.48,3.45,-61.33,15.18,0.00,-3.33,4.05,350.00,1100,1100,1100,1100,1033,1502,1507,10450,760
97699,25,-8.62,-6.16,-163.55,-0.199,0.108,0.742,15.49,-3.49,0.00,0.00,-15.49,3.49,0.00,-54.21,12.20,-45.59,18.35,0.00,1.43,1.91,350.00,1100,1100,1100,1100,1033,1502,1507,10454,760
97711,25,7.72,-5.22,-163.84,-0.380,-0.220,0.864,12.30,-5.42,0.00,0.00,-12.30,5.42,0.00,-43.06,18.97,-50.78,24.19,0.00,-5.25,0.85,350.00,1100,1100,1100,1100,1033,1507,1502,10454,760
97723,25,-0.89,-1.39,-164.97,0.380,0.439,0.585,13.96,-1.23,0.00,0.00,-13.96,1.23,0.00,-48.86,4.30,-47.97,5.69,0.00,-1.84,-0.79,350.00,1100,1100,1100,1100,1033,1501,1508,10459,760
97735,25,-7.90,-5.66,-156.50,0.521,0.532,0.697,15.14,0.98,0.00,0.00,-15.14,-0.98,0.00,-52.99,-3.42,-45.09,2.23,0.00,-0.12,2.93,350.00,1100,1100,1100,1100,1033,1501,1508,10459,760
97747,25,-28.17,-1.47,-158.58,-0.055,-0.034,1.053,12.08,2.23,0.00,0.00,-12.08,-2.23,0.00,-42.26,-7.79,-14.10,-6.32,0.00,6.43,2.28,350.00,1100,1100,1100,1100,1033,1501,1508,10454,761
97759,25,-17.50,15.27,-154.30,0.444,-0.121,1.218,10.88,10.43,0.00,0.00,-10.88,-10.43,0.00,-38.09,-36.51,-20.59,-51.78,0.00,-0.18,-6.90,350.00,1100,1100,1100,1100,1033,1501,1508,10471,761
