time_ms,flags,gyro_x,gyro_y,gyro_z,accel_x,accel_y,accel_z,roll,pitch,angle_sp_roll,angle_sp_pitch,angle_err_roll,angle_err_pitch,angle_i_roll,rate_sp_roll,rate_sp_pitch,rate_err_roll,rate_err_pitch,rate_i_roll,pid_roll,pid_pitch,pid_yaw,m1,m2,m3,m4,rc_thr,rc_roll,rc_pitch,battery_mv,loop_us
208059,9,0.12,-0.03,0.04,0.010,-0.050,0.888,-1.70,0.39,0.00,0.00,1.70,-0.39,0.00,5.96,-1.36,5.84,-1.33,0.00,0.22,-0.05,-0.40,1100,1100,1100,1100,1036,1501,1505,11990,953
208071,9,0.12,-0.04,0.07,0.008,-0.051,0.888,-1.72,0.36,0.00,0.00,1.72,-0.36,0.00,6.00,-1.27,5.89,-1.23,0.00,0.23,-0.05,-0.86,1100,1100,1100,1100,1036,1501,1504,11990,953
208082,9,0.08,-0.03,0.04,0.009,-0.052,0.889,-1.73,0.35,0.00,0.00,1.73,-0.35,0.00,6.06,-1.22,5.98,-1.19,0.00,0.25,-0.05,-0.17,1100,1100,1100,1100,1036,1501,1504,11990,953
208094,9,0.07,-0.05,0.09,0.008,-0.050,0.889,-1.74,0.33,0.00,0.00,1.74,-0.33,0.00,6.10,-1.16,6.04,-1.11,0.00,0.25,-0.04,-0.89,1100,1100,1100,1100,1036,1506,1500,11990,953
208106,9,0.09,-0.02,0.10,0.011,-0.050,0.891,-1.73,0.35,0.00,0.00,1.73,-0.35,0.00,6.06,-1.22,5.96,-1.21,0.00,0.23,-0.06,-0.71,1100,1100,1100,1100,1036,1501,1504,11990,953
208119,9,0.12,-0.04,0.05,0.010,-0.051,0.889,-1.73,0.36,0.00,0.00,1.73,-0.36,0.00,6.07,-1.26,5.95,-1.22,0.00,0.23,-0.05,39.27,1100,1100,1100,1100,1036,1501,1504,11990,953
208131,9,0.09,-0.04,0.04,0.010,-0.050,0.889,-1.74,0.36,0.00,0.00,1.74,-0.36,0.00,6.08,-1.27,5.99,-1.24,0.00,0.24,-0.05,0.21,1100,1100,1100,1100,1036,1501,1504,11990,953
208142,9,0.08,-0.11,0.03,0.011,-0.048,0.889,-1.72,0.37,0.00,0.00,1.72,-0.37,0.00,6.03,-1.29,5.94,-1.18,0.00,0.24,-0.02,0.08,1100,1100,1100,1100,1036,1501,1504,11990,953
208154,9,0.05,-0.11,0.14,0.011,-0.050,0.889,-1.72,0.37,0.00,0.00,1.72,-0.37,0.00,6.02,-1.30,5.97,-1.19,0.00,0.26,-0.04,-1.64,1100,1100,1100,1100,1036,1506,1500,11986,815
208166,9,0.13,-0.01,0.03,0.011,-0.050,0.888,-1.73,0.37,0.00,0.00,1.73,-0.37,0.00,6.06,-1.30,5.93,-1.29,0.00,0.23,-0.08,0.72,1100,1100,1100,1100,1036,1501,1505,11982,815
208179,9,0.10,-0.03,0.02,0.011,-0.050,0.888,-1.73,0.38,0.00,0.00,1.73,-0.38,0.00,6.06,-1.34,5.96,-1.31,0.00,0.25,-0.07,39.46,1100,1100,1100,1100,1036,1501,1505,11990,815
208191,9,0.07,-0.02,0.04,0.011,-0.051,0.890,-1.73,0.41,0.00,0.00,1.73,-0.41,0.00,6.04,-1.42,5.97,-1.40,0.00,0.26,-0.07,-0.13,1100,1100,1100,1100,1036,1501,1505,11990,815
208202,9,0.11,0.01,-0.04,0.010,-0.052,0.890,-1.74,0.40,0.00,0.00,1.74,-0.40,0.00,6.09,-1.41,5.98,-1.42,0.00,0.24,-0.09,1.15,1100,1100,1100,1100,1036,1501,1505,11982,815
208214,9,0.06,-0.02,-0.09,0.010,-0.051,0.888,-1.74,0.41,0.00,0.00,1.74,-0.41,0.00,6.10,-1.44,6.04,-1.42,0.00,0.26,-0.07,1.42,1100,1100,1100,1100,1036,1505,1501,11978,815
208226,9,0.08,-0.00,0.00,0.010,-0.049,0.891,-1.73,0.41,0.00,0.00,1.73,-0.41,0.00,6.04,-1.43,5.96,-1.42,0.00,0.24,-0.07,-0.58,1100,1100,1100,1100,1036,1501,1504,11982,815
208239,9,0.13,-0.06,0.15,0.009,-0.051,0.889,-1.74,0.37,0.00,0.00,1.74,-0.37,0.00,6.09,-1.31,5.96,-1.25,0.00,0.22,-0.04,36.36,1100,1100,1100,1100,1036,1501,1504,11986,815
208251,9,0.17,-0.14,0.22,0.006,-0.053,0.890,-1.77,0.36,0.00,0.00,1.77,-0.36,0.00,6.18,-1.25,6.01,-1.11,0.00,0.21,-0.01,-2.74,1100,1100,1100,1100,1036,1501,1505,11982,815
208262,9,0.18,0.00,0.03,0.004,-0.049,0.894,-1.73,0.32,0.00,0.00,1.73,-0.32,0.00,6.06,-1.13,5.88,-1.13,0.00,0.20,-0.06,1.42,1100,1100,1100,1100,1036,1501,1505,11970,815
208275,9,0.06,0.33,-0.12,0.003,-0.054,0.894,-1.74,0.30,0.00,0.00,1.74,-0.30,0.00,6.07,-1.04,6.01,-1.37,0.00,0.27,-0.19,2.39,1100,1100,1100,1100,1036,1506,1500,11965,815
208286,9,0.12,-0.04,0.36,0.013,-0.044,0.886,-1.71,0.31,0.00,0.00,1.71,-0.31,0.00,6.00,-1.08,5.88,-1.05,0.00,0.26,-0.01,-6.48,1100,1100,1100,1100,1036,1501,1505,11949,815
208299,9,0.38,-0.47,0.19,-0.007,-0.072,0.888,-1.84,0.24,0.00,0.00,1.84,-0.24,0.00,6.42,-0.84,6.04,-0.37,0.00,0.11,0.18,46.23,1100,1100,1100,1100,1036,1501,1505,11936,815
208311,9,0.38,-0.21,-0.51,-0.014,-0.059,0.900,-1.82,0.25,0.00,0.00,1.82,-0.25,0.00,6.36,-0.87,5.99,-0.66,0.00,0.09,0.06,10.33,1100,1100,1100,1100,1036,1501,1504,11915,815
208322,9,0.03,0.05,-0.05,-0.008,-0.056,0.909,-1.76,0.30,0.00,0.00,1.76,-0.30,0.00,6.17,-1.06,6.15,-1.11,0.00,0.29,-0.11,-2.35,1100,1100,1100,1100,1036,1501,1504,11899,815
208334,9,0.68,0.01,0.83,-0.011,-0.049,0.899,-1.76,0.04,0.00,0.00,1.76,-0.04,0.00,6.17,-0.14,5.49,-0.16,0.00,-0.04,0.07,-14.12,1100,1100,1100,1100,1036,1505,1501,11882,815
208346,9,0.34,-1.26,0.38,0.013,-0.054,0.879,-1.81,0.16,0.00,0.00,1.81,-0.16,0.00,6.32,-0.57,5.98,0.69,0.00,0.06,0.67,-1.61,1100,1100,1100,1100,1036,1501,1504,11878,815
208359,9,-0.05,-0.43,-0.09,0.008,-0.046,0.881,-1.72,0.22,0.00,0.00,1.72,-0.22,0.00,6.04,-0.76,6.08,-0.33,0.00,0.25,0.19,43.22,1100,1100,1100,1100,1036,1501,1504,11878,816
208371,9,0.21,-0.13,0.18,0.024,-0.053,0.890,-1.74,0.16,0.00,0.00,1.74,-0.16,0.00,6.10,-0.55,5.90,-0.42,0.00,0.18,0.09,-1.47,1100,1100,1100,1100,1036,1501,1505,11853,816
208383,9,0.06,-0.48,0.24,0.024,-0.053,0.887,-1.90,0.37,0.00,0.00,1.90,-0.37,0.00,6.65,-1.30,6.59,-0.82,0.00,0.29,0.17,-1.44,1100,1100,1100,1100,1036,1501,1505,11865,816
208394,9,-0.17,-0.25,-0.05,0.007,-0.051,0.894,-1.79,0.40,0.00,0.00,1.79,-0.40,0.00,6.27,-1.38,6.44,-1.13,0.00,0.34,0.05,102.82,1100,1100,1100,1100,1036,1502,1504,11857,816
208406,9,0.16,0.33,-0.05,0.011,-0.059,0.893,-1.79,0.41,0.00,0.00,1.79,-0.41,0.00,6.26,-1.45,6.10,-1.78,0.00,0.20,-0.26,100.97,1100,1100,1100,1100,1036,1501,1505,11845,816
208419,9,-0.00,0.41,0.34,-0.004,-0.058,0.898,-1.87,0.36,0.00,0.00,1.87,-0.36,0.00,6.54,-1.27,6.54,-1.68,0.00,0.30,-0.26,32.35,1100,1100,1100,1100,1036,1501,1505,11836,816
208431,9,-0.12,-0.47,0.14,0.008,-0.048,0.882,-1.88,0.32,0.00,0.00,1.88,-0.32,0.00,6.58,-1.13,6.70,-0.66,0.00,0.36,0.16,0.00,1100,1100,1100,1100,1036,1501,1505,11828,816
208442,9,0.46,-0.18,0.20,0.007,-0.055,0.893,-1.80,0.31,0.00,0.00,1.80,-0.31,0.00,6.29,-1.07,5.83,-0.89,0.00,0.10,0.00,-1.59,1100,1100,1100,1100,1036,1501,1505,11828,816
208454,9,0.08,-0.35,-0.00,0.010,-0.074,0.887,-2.01,0.44,0.00,0.00,2.01,-0.44,0.00,7.03,-1.54,6.95,-1.19,0.00,0.28,0.06,2.64,1100,1100,1100,1100,1036,1504,1502,11832,815
208466,9,-0.28,-0.19,-0.58,-0.004,-0.059,0.899,-2.14,0.40,0.00,0.00,2.14,-0.40,0.00,7.49,-1.41,7.77,-1.22,0.00,0.43,-0.07,10.06,1100,1100,1100,1100,1036,1501,1505,11828,815
208479,9,0.45,-0.15,0.21,0.005,-0.040,0.881,-1.90,0.30,0.00,0.00,1.90,-0.30,0.00,6.63,-1.06,6.19,-0.91,0.00,0.09,-0.07,28.84,1100,1100,1100,1100,1036,1501,1505,11828,815
208491,9,0.41,0.34,1.52,0.028,-0.045,0.871,-1.64,0.51,0.00,0.00,1.64,-0.51,0.00,5.72,-1.80,5.31,-2.14,0.00,0.15,-0.26,94.55,1100,1100,1100,1100,1036,1501,1505,11841,815
208502,9,-0.31,-1.39,-0.62,0.037,-0.058,0.908,-1.98,0.80,0.00,0.00,1.98,-0.80,0.00,6.94,-2.79,7.26,-1.41,0.00,0.44,0.49,139.83,1100,1100,1100,1100,1036,1501,1505,11849,815
208514,9,0.33,-0.82,-1.73,-0.015,-0.034,0.885,-1.96,0.45,0.00,0.00,1.96,-0.45,0.00,6.87,-1.59,6.55,-0.77,0.00,0.10,0.08,25.94,1100,1100,1100,1100,1036,1505,1500,11849,815
208526,9,1.13,1.50,1.64,0.036,-0.063,0.837,-1.79,0.37,0.00,0.00,1.79,-0.37,0.00,6.28,-1.31,5.15,-2.80,0.00,-0.13,-0.78,-36.91,1100,1100,1100,1100,1036,1501,1504,11861,815
208539,9,-0.61,-1.05,0.47,0.035,-0.079,0.949,-2.35,0.85,0.00,0.00,2.35,-0.85,0.00,8.23,-2.98,8.84,-1.93,0.00,0.72,0.36,39.39,1100,1100,1100,1100,1036,1501,1504,11861,815
208551,9,-0.24,-1.29,-0.67,-0.037,-0.001,0.833,-1.86,0.37,0.00,0.00,1.86,-0.37,0.00,6.50,-1.30,6.74,-0.00,0.00,0.33,0.27,14.69,1100,1100,1100,1100,1036,1501,1504,11865,816
208562,9,1.80,0.09,-0.33,0.030,-0.037,0.895,-1.39,0.20,0.00,0.00,1.39,-0.20,0.00,4.85,-0.69,3.05,-0.78,0.00,-0.44,-0.07,4.88,1100,1100,1100,1100,1036,1501,1504,11865,816
208574,9,-0.36,0.95,-0.69,0.042,-0.069,0.946,-1.79,0.78,0.00,0.00,1.79,-0.78,0.00,6.26,-2.73,6.62,-3.68,0.00,0.58,-0.39,7.61,1100,1100,1100,1100,1036,1504,1501,11874,816
208587,9,-0.84,0.40,1.54,0.001,-0.013,0.848,-1.70,0.47,0.00,0.00,1.70,-0.47,0.00,5.93,-1.64,6.78,-2.04,0.00,0.59,-0.15,-27.89,1100,1100,1100,1100,1036,1501,1504,11878,816
208599,9,-0.58,1.02,-0.44,0.020,-0.029,0.879,-1.43,0.29,0.00,0.00,1.43,-0.29,0.00,4.99,-1.02,5.56,-2.04,0.00,0.33,-0.43,15.55,1100,1100,1100,1100,1036,1501,1504,11870,816
208611,9,2.77,-0.31,-0.18,0.040,-0.084,0.875,-1.88,0.38,0.00,0.00,1.88,-0.38,0.00,6.58,-1.34,3.81,-1.03,0.00,-0.96,0.43,4.43,1100,1100,1100,1100,1036,1501,1504,11865,816
208622,9,-0.64,-1.45,-1.20,-0.014,-0.037,0.938,-1.87,0.52,0.00,0.00,1.87,-0.52,0.00,6.53,-1.81,7.17,-0.35,0.00,0.52,0.78,18.04,1100,1100,1100,1100,1036,1501,1504,11865,816
208634,9,0.82,-0.61,0.87,-0.002,-0.078,0.850,-1.94,0.43,0.00,0.00,1.94,-0.43,0.00,6.79,-1.50,5.97,-0.89,0.00,-0.20,0.27,-21.40,1100,1100,1100,1100,1036,1504,1501,11870,816
208646,9,-0.97,0.77,0.64,-0.018,-0.062,0.916,-1.47,0.48,0.00,0.00,1.47,-0.48,0.00,5.13,-1.68,6.10,-2.45,0.00,0.60,-0.32,-6.76,1100,1100,1100,1100,1036,1501,1505,11882,816
208659,9,0.74,0.60,0.13,-0.005,-0.125,0.905,-2.14,0.44,0.00,0.00,2.14,-0.44,0.00,7.49,-1.56,6.74,-2.16,0.00,-0.10,0.07,39.94,1100,1100,1100,1100,1036,1501,1505,11878,816
208671,9,-1.93,0.73,-1.10,-0.013,-0.023,0.891,-1.49,0.67,0.00,0.00,1.49,-0.67,0.00,5.20,-2.36,7.13,-3.09,0.00,0.88,-0.25,21.92,1100,1100,1100,1100,1036,1501,1505,11878,816
208682,9,0.91,1.38,-0.03,-0.010,-0.084,0.894,-1.84,0.44,0.00,0.00,1.84,-0.44,0.00,6.45,-1.52,5.54,-2.90,0.00,-0.19,-0.60,-4.82,1100,1100,1100,1100,1036,1501,1505,11865,816
208694,9,-0.96,2.02,0.33,-0.017,-0.038,0.902,-1.43,0.08,0.00,0.00,1.43,-0.08,0.00,5.01,-0.28,5.97,-2.31,0.00,0.60,-0.71,-8.44,1100,1100,1100,1100,1036,1501,1505,11865,816
208706,9,0.80,-1.06,0.73,0.030,-0.046,0.879,-2.02,0.50,0.00,0.00,2.02,-0.50,0.00,7.08,-1.76,6.28,-0.69,0.00,-0.03,0.47,-13.06,1100,1100,1100,1100,1036,1501,1505,11882,816
208719,9,-0.71,2.24,-0.12,-0.070,-0.026,0.914,-1.57,-0.33,0.00,0.00,1.57,0.33,0.00,5.49,1.16,6.20,-1.07,0.00,0.34,-0.84,41.40,1100,1100,1100,1100,1036,1501,1505,11874,816
208731,9,0.61,-1.61,-0.43,0.056,-0.012,0.824,-1.61,0.21,0.00,0.00,1.61,-0.21,0.00,5.62,-0.72,5.01,0.89,0.00,0.06,0.82,6.33,1100,1100,1100,1100,1036,1501,1505,11878,816
208742,9,-0.36,0.75,-0.36,-0.019,-0.104,0.908,-1.76,0.05,0.00,0.00,1.76,-0.05,0.00,6.16,-0.16,6.52,-0.91,0.00,0.21,-0.20,5.58,1100,1100,1100,1100,1036,1501,1505,11874,816
208754,9,0.38,-2.36,0.67,0.013,0.016,0.913,-1.27,0.40,0.00,0.00,1.27,-0.40,0.00,4.45,-1.39,4.07,0.97,0.00,-0.04,1.03,-15.46,1100,1100,1100,1100,1036,1504,1501,11874,815
208766,9,2.46,-1.55,-0.09,-0.025,-0.142,0.911,-2.03,-0.02,0.00,0.00,2.03,0.02,0.00,7.09,0.08,4.63,1.63,0.00,-0.75,0.60,5.39,1100,1100,1100,1100,1036,1501,1504,11865,815
208779,9,-2.71,1.90,0.27,-0.051,-0.052,0.817,-1.86,-0.30,0.00,0.00,1.86,0.30,0.00,6.50,1.06,9.21,-0.84,0.00,1.78,-1.10,34.81,1100,1100,1100,1100,1036,1501,1504,11870,815
208791,9,1.28,-0.02,-0.82,0.011,-0.072,1.016,-2.07,-0.61,0.00,0.00,2.07,0.61,0.00,7.25,2.12,5.97,2.15,0.00,-0.40,0.41,15.08,1100,1100,1100,1100,1036,1501,1505,11861,815
208802,9,-0.88,0.56,0.70,0.015,-0.076,0.841,-1.76,-0.46,0.00,0.00,1.76,0.46,0.00,6.16,1.60,7.04,1.04,0.00,0.54,-0.04,-14.66,1100,1100,1100,1100,1036,1501,1505,11853,815
208814,9,0.72,0.19,-0.25,0.042,0.015,0.835,-1.55,0.11,0.00,0.00,1.55,-0.11,0.00,5.44,-0.38,4.71,-0.57,0.00,0.02,-0.12,6.59,1100,1100,1100,1100,1036,1503,1503,11861,815
208826,9,0.61,1.88,0.45,-0.035,-0.077,0.932,-2.05,-0.59,0.00,0.00,2.05,0.59,0.00,7.17,2.08,6.55,0.19,0.00,-0.12,-0.45,-2.19,1100,1100,1100,1100,1036,1501,1505,11861,815
208839,9,0.95,-0.10,-0.20,-0.050,-0.107,0.959,-2.27,-0.80,0.00,0.00,2.27,0.80,0.00,7.93,2.81,6.98,2.90,0.00,-0.11,0.52,38.54,1100,1100,1100,1100,1036,1501,1505,11865,815
208851,9,2.31,-2.89,-0.01,0.017,-0.039,0.916,-2.36,-0.61,0.00,0.00,2.36,0.61,0.00,8.26,2.14,5.95,5.03,0.00,-0.29,1.32,1.35,1100,1100,1100,1100,1036,1501,1505,11861,815
208862,9,1.77,-1.10,1.05,-0.011,-0.028,0.786,-2.28,-0.38,0.00,0.00,2.28,0.38,0.00,7.97,1.34,6.20,2.43,0.00,0.07,0.10,-20.09,1100,1100,1100,1100,1036,1501,1505,11861,815
208874,9,-1.83,0.62,-0.73,0.038,0.008,0.931,-1.62,0.05,0.00,0.00,1.62,-0.05,0.00,5.66,-0.16,7.50,-0.78,0.00,1.44,-0.60,18.12,1100,1100,1100,1100,1036,1503,1503,11865,815
208886,9,0.07,2.77,0.23,0.060,-0.014,0.884,-1.16,0.41,0.00,0.00,1.16,-0.41,0.00,4.06,-1.44,3.99,-4.22,0.00,0.24,-1.07,-2.49,1100,1100,1100,1100,1036,1501,1505,11865,815
208899,9,-1.16,3.80,-0.39,-0.004,-0.119,0.894,-1.02,0.73,0.00,0.00,1.02,-0.73,0.00,3.59,-2.57,4.74,-6.37,0.00,0.24,-1.04,39.60,1100,1100,1100,1100,1036,1501,1505,11865,815
208911,9,-3.10,1.94,0.37,-0.054,-0.050,0.930,-1.36,0.27,0.00,0.00,1.36,-0.27,0.00,4.75,-0.96,7.85,-2.90,0.00,0.99,0.05,-6.87,1100,1100,1100,1100,1036,1500,1505,11861,815
208922,9,0.09,1.44,0.49,-0.046,-0.110,0.868,-1.97,-0.60,0.00,0.00,1.97,0.60,0.00,6.91,2.08,6.82,0.64,0.00,-0.56,0.48,-7.61,1100,1100,1100,1100,1036,1500,1505,11861,815
208934,9,-2.34,-0.16,-0.37,-0.037,-0.081,0.893,-2.17,-0.65,0.00,0.00,2.17,0.65,0.00,7.61,2.28,9.95,2.44,0.00,0.98,0.43,11.23,1100,1100,1100,1100,1036,1502,1503,11870,815
208946,9,3.09,-2.30,0.16,-0.089,-0.079,0.945,-2.84,-1.90,0.00,0.00,2.84,1.90,0.00,9.94,6.66,6.85,8.96,0.00,-0.99,1.39,-1.55,1100,1100,1100,1100,1036,1500,1505,11878,815
208959,9,0.66,1.39,-0.78,-0.057,-0.053,0.877,-2.30,-2.21,0.00,0.00,2.30,2.21,0.00,8.07,7.74,7.41,6.35,0.00,0.12,-0.42,48.75,1100,1100,1100,1100,1036,1500,1505,11861,816
208971,9,1.65,-4.43,-0.32,0.111,0.104,0.862,-1.33,-1.17,0.00,0.00,1.33,1.17,0.00,4.64,4.11,2.99,8.54,0.00,0.05,1.77,1.87,1100,1100,1100,1100,1036,1500,1504,11865,816
208982,9,5.49,-3.06,0.09,0.089,-0.136,0.879,-1.56,0.18,0.00,0.00,1.56,-0.18,0.00,5.48,-0.64,-0.02,2.42,0.00,-2.01,0.92,-5.63,1100,1100,1100,1100,1036,1500,1504,11857,816
208995,9,-4.81,2.98,0.23,0.049,-0.084,0.808,-0.26,1.62,0.00,0.00,0.26,-1.62,0.00,0.89,-5.68,5.70,-8.66,0.00,2.55,-2.00,-6.65,1100,1100,1100,1100,1036,1503,1502,11857,816
209006,9,-0.13,-1.47,-0.36,0.098,-0.026,0.932,-0.77,2.24,0.00,0.00,0.77,-2.24,0.00,2.70,-7.85,2.82,-6.38,0.00,0.34,0.25,6.72,1100,1100,1100,1100,1036,1500,1505,11865,816
209019,9,-1.38,2.21,0.12,-0.030,-0.120,0.869,-1.45,2.10,0.00,0.00,1.45,-2.10,0.00,5.06,-7.36,6.44,-9.58,0.00,0.43,-1.36,35.13,1100,1100,1100,1100,1036,1500,1505,11857,816
209031,9,-2.91,2.05,0.65,-0.029,-0.016,0.871,-1.63,1.08,0.00,0.00,1.63,-1.08,0.00,5.71,-3.77,8.63,-5.82,0.00,1.47,-1.12,-13.30,1100,1100,1100,1100,1036,1500,1505,11865,816
209042,9,2.42,0.25,-0.07,-0.008,-0.044,0.960,-1.97,0.18,0.00,0.00,1.97,-0.18,0.00,6.90,-0.63,4.48,-0.88,0.00,-1.14,0.34,3.99,1100,1100,1100,1100,1036,1500,1505,11865,816
209054,9,-2.12,0.55,0.48,0.033,0.026,0.788,-1.28,0.47,0.00,0.00,1.28,-0.47,0.00,4.47,-1.63,6.59,-2.18,0.00,1.09,-0.41,-6.38,1100,1100,1100,1100,1036,1502,1503,11874,815
209066,9,2.15,-5.11,-0.60,0.130,0.053,0.807,-1.08,0.84,0.00,0.00,1.08,-0.84,0.00,3.76,-2.92,1.61,2.19,0.00,-0.54,1.93,14.04,1100,1100,1100,1100,1036,1500,1505,11882,815
209079,9,3.92,-0.74,0.07,-0.039,-0.055,0.945,-1.40,0.31,0.00,0.00,1.40,-0.31,0.00,4.89,-1.08,0.97,-0.34,0.00,-1.31,-0.28,35.86,1100,1100,1100,1100,1036,1500,1505,11878,815
209091,9,1.29,-0.54,0.53,-0.049,-0.018,0.820,-1.09,-0.29,0.00,0.00,1.09,0.29,0.00,3.83,1.02,2.54,1.55,0.00,0.03,-0.20,-12.71,1100,1100,1100,1100,1036,1500,1505,11861,815
209102,9,0.66,-2.87,-0.37,-0.015,-0.070,0.941,-1.54,-0.57,0.00,0.00,1.54,0.57,0.00,5.39,2.00,4.73,4.88,0.00,0.18,1.11,9.36,1100,1100,1100,1100,1036,1500,1505,11861,815
209114,9,-0.49,-0.47,0.64,-0.025,-0.161,0.914,-1.76,-0.55,0.00,0.00,1.76,0.55,0.00,6.16,1.91,6.65,2.38,0.00,0.47,-0.11,-8.82,1100,1100,1100,1100,1036,1500,1505,11857,815
209126,9,-1.52,-0.05,-1.04,0.092,-0.018,0.825,-1.17,0.24,0.00,0.00,1.17,-0.24,0.00,4.10,-0.84,5.62,-0.80,0.00,0.75,-0.05,20.41,1100,1100,1100,1100,1036,1500,1505,11861,815
209139,9,-2.21,1.89,-0.38,0.006,0.006,1.023,-0.91,0.75,0.00,0.00,0.91,-0.75,0.00,3.18,-2.63,5.39,-4.52,0.00,1.12,-1.00,43.59,1100,1100,1100,1100,1036,1500,1505,11853,815
209151,9,2.27,1.68,1.29,-0.115,-0.110,0.945,-1.39,-0.40,0.00,0.00,1.39,0.40,0.00,4.85,1.41,2.58,-0.27,0.00,-1.11,-0.16,-27.10,1100,1100,1100,1100,1036,1500,1505,11849,816
209162,9,-0.11,2.84,0.13,-0.117,-0.105,0.976,-1.47,-1.73,0.00,0.00,1.47,1.73,0.00,5.16,6.04,5.27,3.21,0.00,0.25,-0.57,-0.32,1100,1100,1100,1100,1036,1500,1505,11849,816
209174,9,-0.29,-1.63,0.13,-0.021,0.016,0.879,-1.62,-2.02,0.00,0.00,1.62,2.02,0.00,5.68,7.06,5.97,8.69,0.00,0.79,1.15,1.08,1100,1100,1100,1100,1036,1501,1503,11853,816
209186,9,-0.14,-0.52,-0.54,0.051,0.054,0.847,-1.31,-1.46,0.00,0.00,1.31,1.46,0.00,4.58,5.11,4.72,5.62,0.00,0.37,0.42,8.30,1100,1100,1100,1100,1036,1500,1504,11853,816
209199,9,-2.07,-0.29,-0.49,0.066,0.084,0.845,-0.68,-0.57,0.00,0.00,0.68,0.57,0.00,2.38,2.00,4.44,2.29,0.00,1.19,0.02,41.75,1100,1100,1100,1100,1036,1500,1504,11857,816
209211,9,3.85,1.89,0.88,-0.044,-0.055,0.910,-0.97,-1.16,0.00,0.00,0.97,1.16,0.00,3.40,4.05,-0.45,2.16,0.00,-1.63,-0.18,74.69,1100,1100,1100,1100,1036,1500,1504,11849,816
209222,9,-0.57,5.15,0.65,-0.150,-0.152,0.892,-0.98,-1.89,0.00,0.00,0.98,1.89,0.00,3.45,6.63,4.01,1.48,0.00,0.07,-1.35,84.65,1100,1100,1100,1100,1036,1500,1504,11861,816
209234,9,-3.17,-0.27,-0.11,-0.038,-0.039,0.900,-0.98,-2.19,0.00,0.00,0.98,2.19,0.00,3.44,7.65,6.61,7.92,0.00,1.45,1.16,8.52,1100,1100,1100,1100,1036,1502,1502,11870,816
209246,9,3.13,-2.39,-0.47,-0.042,-0.121,0.980,-1.82,-2.37,0.00,0.00,1.82,2.37,0.00,6.36,8.30,3.23,10.69,0.00,-1.66,1.91,10.28,1100,1100,1100,1100,1036,1500,1505,11878,816
209259,9,-3.68,1.36,-0.29,-0.010,-0.100,0.852,-1.84,-1.46,0.00,0.00,1.84,1.46,0.00,6.43,5.12,10.12,3.76,0.00,1.69,-0.43,39.13,1100,1100,1100,1100,1036,1500,1505,11865,816
209271,9,-0.05,-3.32,-0.07,0.127,-0.037,0.901,-2.30,-0.04,0.00,0.00,2.30,0.04,0.00,8.05,0.12,8.10,3.44,0.00,0.46,1.30,0.14,1100,1100,1100,1100,1036,1500,1505,11861,816
209282,9,1.19,4.91,0.95,-0.105,-0.194,0.967,-2.69,-0.92,0.00,0.00,2.69,0.92,0.00,9.43,3.22,8.24,-1.69,0.00,-0.43,-2.09,-14.16,1100,1100,1100,1100,1036,1500,1505,11857,816
209294,9,-3.07,0.66,0.72,0.007,0.022,0.863,-1.62,-0.25,0.00,0.00,1.62,0.25,0.00,5.68,0.88,8.75,0.22,0.00,1.92,-0.47,-7.57,1100,1100,1100,1100,1036,1501,1504,11857,816
209306,9,2.28,-3.00,-0.46,0.086,0.076,0.910,-1.51,-0.38,0.00,0.00,1.51,0.38,0.00,5.29,1.32,3.01,4.32,0.00,-0.63,1.54,11.58,1100,1100,1100,1100,1036,1500,1505,11853,816
209319,9,-1.89,1.60,0.05,-0.018,-0.068,0.888,-1.56,-0.25,0.00,0.00,1.56,0.25,0.00,5.47,0.87,7.35,-0.74,0.00,0.99,-0.94,126.29,1100,1100,1100,1100,1036,1500,1505,11849,816
209331,9,-0.68,-0.32,0.38,0.094,0.004,0.792,-1.47,0.26,0.00,0.00,1.47,-0.26,0.00,5.13,-0.89,5.80,-0.57,0.00,0.79,-0.04,-7.84,1100,1100,1100,1100,1036,1500,1504,11849,816
209342,9,3.23,1.41,0.59,-0.054,-0.080,0.919,-2.36,-0.39,0.00,0.00,2.36,0.39,0.00,8.27,1.37,5.03,-0.05,0.00,-1.25,-0.39,-5.51,1100,1100,1100,1100,1036,1500,1504,11845,816
209354,9,-2.22,1.72,-0.17,0.011,0.019,0.815,-1.65,-0.36,0.00,0.00,1.65,0.36,0.00,5.78,1.26,8.01,-0.46,0.00,1.24,-0.53,8.05,1100,1100,1100,1100,1036,1502,1503,11849,819
209366,9,2.67,-6.15,-0.35,0.121,0.050,0.846,-1.84,-0.06,0.00,0.00,1.84,0.06,0.00,6.45,0.22,3.78,6.37,0.00,-0.73,2.79,7.93,1100,1100,1100,1100,1036,1500,1505,11849,819
209379,9,4.06,-5.44,0.43,0.079,-0.199,0.818,-2.59,1.61,0.00,0.00,2.59,-1.61,0.00,9.07,-5.65,5.00,-0.20,0.00,-1.30,1.69,24.55,1100,1100,1100,1100,1036,1500,1505,11861,819
209391,9,0.43,0.64,0.54,0.017,-0.085,0.889,-2.18,1.76,0.00,0.00,2.18,-1.76,0.00,7.64,-6.16,7.21,-6.79,0.00,0.58,-1.49,-9.26,1100,1100,1100,1100,1036,1500,1505,11865,819
209403,9,0.16,-0.43,-0.59,0.006,-0.137,0.962,-2.59,1.54,0.00,0.00,2.59,-1.54,0.00,9.06,-5.39,8.90,-4.97,0.00,0.76,-0.43,17.74,1100,1100,1100,1100,1036,1500,1505,11878,819
209414,9,-0.29,2.57,0.36,-0.051,-0.098,0.946,-2.34,0.79,0.00,0.00,2.34,-0.79,0.00,8.19,-2.77,8.48,-5.33,0.00,0.73,-1.40,-2.35,1100,1100,1100,1100,1036,1500,1504,11878,819
209426,9,-1.04,-0.79,-0.55,0.037,0.055,0.851,-1.84,1.03,0.00,0.00,1.84,-1.03,0.00,6.44,-3.61,7.48,-2.82,0.00,0.88,0.23,8.16,1100,1100,1100,1100,1036,1500,1505,11870,819
209439,9,-1.10,-1.37,-0.01,0.077,0.002,0.952,-1.82,1.95,0.00,0.00,1.82,-1.95,0.00,6.37,-6.84,7.47,-5.47,0.00,0.84,0.08,-2.93,1100,1100,1100,1100,1036,1500,1505,11849,819
209451,9,-1.50,1.24,1.19,0.129,-0.088,0.761,-2.08,2.85,0.00,0.00,2.08,-2.85,0.00,7.28,-9.98,8.78,-11.22,0.00,0.70,-1.14,-24.01,1100,1100,1100,1100,1036,1500,1505,11849,815
209462,9,-3.62,5.24,-0.21,-0.016,-0.082,0.907,-1.97,2.87,0.00,0.00,1.97,-2.87,0.00,6.91,-10.04,10.53,-15.27,0.00,1.52,-2.75,8.03,1100,1100,1100,1100,1036,1500,1505,11861,815
209474,9,1.00,2.50,-0.01,-0.013,0.057,0.935,-1.77,1.52,0.00,0.00,1.77,-1.52,0.00,6.18,-5.31,5.18,-7.81,0.00,-0.62,-0.66,2.85,1100,1100,1100,1100,1036,1501,1504,11861,815
209486,9,1.42,-1.57,-0.27,0.023,0.011,0.751,-1.92,1.06,0.00,0.00,1.92,-1.06,0.00,6.71,-3.70,5.29,-2.14,0.00,-0.84,1.15,0.53,1100,1100,1100,1100,1036,1500,1505,11861,815
209499,9,-1.94,-1.50,-0.01,0.041,-0.048,0.870,-1.96,1.43,0.00,0.00,1.96,-1.43,0.00,6.85,-5.00,8.79,-3.50,0.00,1.01,0.60,32.67,1100,1100,1100,1100,1036,1500,1505,11870,815
209511,9,4.25,-0.57,1.05,-0.045,-0.141,0.977,-2.74,0.69,0.00,0.00,2.74,-0.69,0.00,9.59,-2.42,5.34,-1.85,0.00,-1.59,0.31,-17.17,1100,1100,1100,1100,1036,1500,1505,11882,815
209522,9,0.50,4.41,-0.71,-0.134,-0.154,0.874,-2.72,-0.55,0.00,0.00,2.72,0.55,0.00,9.54,1.92,9.04,-2.49,0.00,0.29,-1.47,18.40,1100,1100,1100,1100,1036,1500,1505,11878,815
209534,9,1.23,-2.36,-0.26,0.025,0.030,0.906,-2.11,-1.02,0.00,0.00,2.11,1.02,0.00,7.38,3.57,6.15,5.92,0.00,0.46,1.48,8.04,1100,1100,1100,1100,1036,1500,1505,11878,815
209546,9,5.45,-4.76,0.41,-0.033,-0.214,0.958,-3.00,-1.17,0.00,0.00,3.00,1.17,0.00,10.48,4.08,5.04,8.84,0.00,-1.59,2.17,-10.82,1100,1100,1100,1100,1036,1500,1504,11874,815
209559,9,-2.95,-1.57,0.12,0.081,-0.107,0.861,-1.94,0.36,0.00,0.00,1.94,-0.36,0.00,6.77,-1.26,9.73,0.32,0.00,2.42,-0.48,33.03,1100,1100,1100,1100,1036,1500,1504,11865,816
209571,9,2.10,-5.99,0.09,0.095,0.004,0.936,-2.26,1.41,0.00,0.00,2.26,-1.41,0.00,7.92,-4.92,5.82,1.07,0.00,0.33,0.80,1.84,1100,1100,1100,1100,1036,1500,1505,11865,816
209582,9,0.55,-0.60,-0.17,0.047,-0.105,0.803,-2.54,1.98,0.00,0.00,2.54,-1.98,0.00,8.90,-6.94,8.35,-6.35,0.00,0.54,-1.42,6.26,1100,1100,1100,1100,1036,1500,1505,11878,816
209594,9,-0.87,-0.55,0.16,0.047,0.121,0.836,-1.58,2.29,0.00,0.00,1.58,-2.29,0.00,5.54,-8.01,6.41,-7.46,0.00,1.42,-1.57,-4.36,1100,1100,1100,1100,1036,1501,1504,11882,816
209607,9,5.30,-2.24,0.21,0.058,0.023,0.922,-1.92,1.72,0.00,0.00,1.92,-1.72,0.00,6.71,-6.02,1.41,-3.78,0.00,-1.70,0.31,-5.35,1100,1100,1100,1100,1036,1500,1505,11878,816
209619,9,-2.53,1.90,0.66,-0.013,-0.049,0.792,-1.31,1.73,0.00,0.00,1.31,-1.73,0.00,4.60,-6.06,7.13,-7.95,0.00,1.51,-1.58,-10.31,1100,1100,1100,1100,1036,1500,1505,11878,816
209631,9,-0.52,-2.08,-0.40,0.110,-0.005,0.815,-1.18,2.29,0.00,0.00,1.18,-2.29,0.00,4.13,-8.02,4.65,-5.93,0.00,0.68,0.41,10.97,1100,1100,1100,1100,1036,1501,1505,11878,816
209642,9,2.16,0.11,-0.74,0.059,-0.158,0.902,-1.80,2.93,0.00,0.00,1.80,-2.93,0.00,6.28,-10.24,4.12,-10.35,0.00,-1.07,-0.59,14.17,1100,1100,1100,1100,1036,1501,1505,11870,816
209654,9,-3.42,2.76,-0.33,0.031,-0.026,0.812,-1.29,3.07,0.00,0.00,1.29,-3.07,0.00,4.52,-10.76,7.95,-13.51,0.00,1.49,-1.78,1.47,1100,1100,1100,1100,1036,1499,1505,11861,815
209666,9,-0.10,-1.98,0.25,0.051,-0.038,0.975,-1.83,2.87,0.00,0.00,1.83,-2.87,0.00,6.39,-10.03,6.49,-8.05,0.00,-0.20,0.96,-6.10,1100,1100,1100,1100,1036,1500,1504,11861,815
209679,9,-4.16,5.79,1.28,-0.062,-0.188,0.901,-2.14,2.06,0.00,0.00,2.14,-2.06,0.00,7.50,-7.20,11.66,-12.99,0.00,1.37,-2.20,11.79,1100,1100,1100,1100,1036,1500,1504,11857,815
209691,9,-4.31,1.74,-0.65,0.072,-0.017,0.862,-1.70,2.67,0.00,0.00,1.70,-2.67,0.00,5.96,-9.35,10.27,-11.09,0.00,1.45,-0.51,15.99,1100,1100,1100,1100,1036,1500,1504,11853,815
209702,9,-0.92,1.26,-0.80,0.031,0.022,0.951,-1.60,1.98,0.00,0.00,1.60,-1.98,0.00,5.61,-6.94,6.53,-8.20,0.00,-0.27,-0.07,15.75,1100,1100,1100,1100,1036,1500,1504,11845,815
209715,9,-1.16,1.29,0.42,0.049,-0.006,0.767,-1.48,2.26,0.00,0.00,1.48,-2.26,0.00,5.18,-7.90,6.35,-9.19,0.00,0.12,-0.60,-10.71,1100,1100,1100,1100,1036,1500,1504,11849,815
209726,9,1.62,-0.21,0.78,-0.003,-0.045,0.862,-2.09,1.62,0.00,0.00,2.09,-1.62,0.00,7.31,-5.68,5.69,-5.47,0.00,-0.74,0.11,-16.44,1100,1100,1100,1100,1036,1500,1504,11853,815
209739,9,3.27,1.71,0.32,-0.066,-0.056,0.945,-2.26,0.36,0.00,0.00,2.26,-0.36,0.00,7.92,-1.27,4.65,-2.98,0.00,-1.25,-0.28,31.30,1100,1100,1100,1100,1036,1500,1504,11849,815
209751,9,0.79,-0.58,-0.38,-0.069,-0.037,0.878,-2.12,-0.22,0.00,0.00,2.12,0.22,0.00,7.41,0.77,6.62,1.35,0.00,0.11,0.66,9.72,1100,1100,1100,1100,1036,1500,1504,11853,816
209762,9,0.35,-0.29,-1.21,-0.014,-0.086,0.921,-2.06,-1.14,0.00,0.00,2.06,1.14,0.00,7.20,3.99,6.85,4.27,0.00,0.58,0.75,22.02,1100,1100,1100,1100,1036,1500,1504,11853,816
209774,9,2.90,-1.27,0.26,-0.012,-0.133,0.916,-1.74,-1.25,0.00,0.00,1.74,1.25,0.00,6.09,4.39,3.19,5.66,0.00,-0.72,0.79,-6.91,1100,1100,1100,1100,1036,1499,1505,11861,816
209786,9,0.65,-1.82,0.47,-0.003,-0.008,0.879,-1.14,-0.97,0.00,0.00,1.14,0.97,0.00,3.99,3.41,3.34,5.23,0.00,0.31,0.64,-10.72,1100,1100,1100,1100,1036,1500,1504,11857,816
209799,9,0.05,-3.02,0.18,0.017,-0.030,0.990,-1.36,0.14,0.00,0.00,1.36,-0.14,0.00,4.76,-0.50,4.71,2.52,0.00,0.86,0.54,31.28,1100,1100,1100,1100,1036,1500,1504,11845,816
209811,9,0.97,0.05,0.12,0.067,-0.096,0.805,-1.86,0.63,0.00,0.00,1.86,-0.63,0.00,6.50,-2.19,5.54,-2.24,0.00,0.27,-0.79,-2.70,1100,1100,1100,1100,1036,1500,1504,11853,816
209822,9,-1.26,1.56,-1.02,0.018,-0.053,0.861,-1.82,1.32,0.00,0.00,1.82,-1.32,0.00,6.38,-4.62,7.64,-6.18,0.00,1.26,-1.69,16.99,1100,1100,1100,1100,1036,1500,1504,11849,816
209834,9,1.93,-0.80,0.37,0.116,0.086,0.825,-1.35,1.36,0.00,0.00,1.35,-1.36,0.00,4.72,-4.77,2.78,-3.98,0.00,-0.23,0.04,-7.85,1100,1100,1100,1100,1036,1500,1504,11849,816
209846,9,1.85,-2.58,0.87,0.050,0.038,0.794,-1.35,1.71,0.00,0.00,1.35,-1.71,0.00,4.72,-5.98,2.87,-3.40,0.00,-0.45,0.68,-16.11,1100,1100,1100,1100,1036,1500,1504,11845,816
209859,9,-0.25,-2.21,-0.18,0.047,-0.037,0.882,-1.12,1.93,0.00,0.00,1.12,-1.93,0.00,3.94,-6.75,4.18,-4.54,0.00,0.60,0.38,42.31,1100,1100,1100,1100,1036,1500,1504,11857,816
209871,9,4.29,-2.34,-0.06,0.029,0.014,0.847,-1.09,1.81,0.00,0.00,1.09,-1.81,0.00,3.83,-6.34,-0.46,-4.01,0.00,-1.70,0.75,-0.38,1100,1100,1100,1100,1036,1500,1504,11845,816
209882,9,0.90,2.95,-0.43,-0.139,-0.143,0.927,-1.59,0.40,0.00,0.00,1.59,-0.40,0.00,5.57,-1.38,4.67,-4.34,0.00,-0.24,-1.32,2.46,1100,1100,1100,1100,1036,1500,1504,11845,816
209894,9,-2.59,-2.00,0.78,0.027,-0.070,0.916,-1.54,0.17,0.00,0.00,1.54,-0.17,0.00,5.38,-0.61,7.97,1.39,0.00,1.52,1.05,-12.96,1100,1100,1100,1100,1036,1498,1506,11845,816
209906,9,0.83,-0.25,0.67,0.015,-0.111,0.909,-1.97,-0.26,0.00,0.00,1.97,0.26,0.00,6.91,0.93,6.08,1.18,0.00,-0.43,0.39,-8.74,1100,1100,1100,1100,1036,1500,1504,11849,816
209919,9,-5.50,2.66,-1.20,0.073,-0.047,0.865,-1.09,1.46,0.00,0.00,1.09,-1.46,0.00,3.83,-5.11,9.33,-7.77,0.00,2.15,-1.48,59.53,1100,1100,1100,1100,1036,1500,1504,11853,816
209931,9,-2.65,-0.27,-0.03,0.151,0.021,0.882,-1.12,2.76,0.00,0.00,1.12,-2.76,0.00,3.93,-9.68,6.59,-9.40,0.00,0.86,-0.29,-1.03,1100,1100,1100,1100,1036,1500,1504,11853,816
209942,9,-1.24,5.35,0.59,-0.092,-0.145,0.964,-1.35,2.01,0.00,0.00,1.35,-2.01,0.00,4.72,-7.03,5.95,-12.38,0.00,-0.42,-1.98,-14.33,1100,1100,1100,1100,1036,1500,1504,11853,816
209954,9,-5.24,4.90,0.93,-0.008,0.032,0.854,-1.00,1.50,0.00,0.00,1.00,-1.50,0.00,3.50,-5.27,8.74,-10.16,0.00,1.86,-1.48,-12.86,1100,1100,1100,1100,1036,1499,1505,11853,816
209966,9,3.18,-0.00,-0.00,-0.066,-0.033,0.854,-2.28,-0.66,0.00,0.00,2.28,0.66,0.00,7.99,2.32,4.80,2.32,0.00,-1.74,1.51,6.26,1100,1100,1100,1100,1036,1500,1504,11845,816
209979,9,0.09,3.70,-1.12,-0.141,-0.113,0.873,-2.42,-2.07,0.00,0.00,2.42,2.07,0.00,8.48,7.26,8.40,3.56,0.00,-0.14,-0.36,56.34,1100,1100,1100,1100,1036,1500,1504,11836,816
209991,9,2.53,-4.15,-0.39,0.031,-0.022,0.911,-2.28,-1.93,0.00,0.00,2.28,1.93,0.00,7.99,6.77,5.46,10.92,0.00,-0.44,2.46,1.43,1100,1100,1100,1100,1036,1500,1504,11845,816
210002,9,7.12,-6.27,0.50,0.004,-0.114,0.959,-2.67,-1.65,0.00,0.00,2.67,1.65,0.00,9.34,5.78,2.23,12.05,0.00,-2.44,2.84,-13.97,1100,1100,1100,1100,1036,1500,1504,11849,816
210015,9,-1.23,-2.47,0.97,0.044,-0.074,0.869,-1.88,-0.13,0.00,0.00,1.88,0.13,0.00,6.58,0.47,7.81,2.94,0.00,1.83,-0.14,-15.26,1100,1100,1100,1100,1036,1500,1504,11861,816
210026,9,4.23,-5.86,-0.29,0.081,-0.056,0.895,-2.32,0.81,0.00,0.00,2.32,-0.81,0.00,8.11,-2.82,3.87,3.04,0.00,-0.22,0.94,11.85,1100,1100,1100,1100,1036,1500,1504,11861,816
210039,9,1.10,3.06,-0.60,0.001,-0.180,0.886,-2.40,0.78,0.00,0.00,2.40,-0.78,0.00,8.39,-2.74,7.28,-5.80,0.00,0.83,-2.79,62.59,1100,1100,1100,1100,1036,1500,1504,11849,816
210051,9,-2.52,2.43,-0.31,0.023,0.073,0.867,-1.33,1.06,0.00,0.00,1.33,-1.06,0.00,4.66,-3.70,7.18,-6.13,0.00,2.24,-2.11,0.21,1100,1100,1100,1100,1036,1500,1504,11857,815
210062,9,3.60,-3.00,0.26,0.094,0.135,0.816,-1.16,1.03,0.00,0.00,1.16,-1.03,0.00,4.07,-3.62,0.47,-0.62,0.00,-1.22,1.43,-7.70,1100,1100,1100,1100,1036,1500,1504,11849,815
210074,9,-2.11,0.59,0.75,-0.057,-0.027,0.924,-0.76,0.95,0.00,0.00,0.76,-0.95,0.00,2.66,-3.32,4.77,-3.91,0.00,0.98,-0.54,-12.20,1100,1100,1100,1100,1036,1499,1505,11845,815
210086,9,0.28,-1.95,-0.50,0.069,-0.034,0.841,-0.87,0.78,0.00,0.00,0.87,-0.78,0.00,3.05,-2.74,2.77,-0.79,0.00,0.16,0.85,13.02,1100,1100,1100,1100,1036,1500,1504,11845,815
210099,9,3.67,2.67,-0.36,-0.091,-0.227,0.952,-1.89,-0.16,0.00,0.00,1.89,0.16,0.00,6.60,0.57,2.93,-2.11,0.00,-1.75,-0.91,38.29,1100,1100,1100,1100,1036,1500,1504,11857,815
210111,9,-4.33,2.83,-0.57,-0.019,-0.078,0.843,-1.42,0.31,0.00,0.00,1.42,-0.31,0.00,4.97,-1.07,9.30,-3.90,0.00,1.91,-1.02,3.51,1100,1100,1100,1100,1036,1500,1504,11861,815
210123,9,-2.64,1.33,-0.07,0.020,0.007,0.963,-1.71,-0.24,0.00,0.00,1.71,0.24,0.00,5.98,0.83,8.61,-0.51,0.00,1.11,0.23,1.13,1100,1100,1100,1100,1036,1500,1504,11861,815
210134,9,-4.02,5.42,0.91,-0.039,-0.156,0.966,-1.82,-0.34,0.00,0.00,1.82,0.34,0.00,6.36,1.18,10.38,-4.23,0.00,1.16,-1.31,81.25,1100,1100,1100,1100,1036,1500,1504,11857,815
210146,9,-4.04,2.60,-0.02,0.040,0.010,0.861,-1.19,0.13,0.00,0.00,1.19,-0.13,0.00,4.16,-0.46,8.21,-3.06,0.00,1.20,-0.22,98.65,1100,1100,1100,1100,1036,1500,1504,11853,815
210159,9,1.65,-0.78,0.03,0.013,0.013,0.933,-1.49,0.21,0.00,0.00,1.49,-0.21,0.00,5.21,-0.75,3.56,0.03,0.00,-1.52,1.17,29.16,1100,1100,1100,1100,1036,1500,1504,11845,816
210171,9,-3.84,1.17,0.08,0.024,-0.078,0.813,-1.71,0.97,0.00,0.00,1.71,-0.97,0.00,5.98,-3.41,9.82,-4.58,0.00,1.25,-0.64,-4.78,1100,1100,1100,1100,1036,1500,1504,11849,816
210182,9,-0.62,-2.33,-0.09,0.128,-0.085,0.739,-2.55,1.25,0.00,0.00,2.55,-1.25,0.00,8.92,-4.39,9.54,-2.07,0.00,0.44,0.70,2.29,1100,1100,1100,1100,1036,1500,1504,11845,816
210194,9,3.99,-1.28,-0.15,0.008,-0.114,0.866,-3.15,0.87,0.00,0.00,3.15,-0.87,0.00,11.02,-3.03,7.03,-1.75,0.00,-1.50,0.09,6.13,1100,1100,1100,1100,1036,1500,1505,11845,816
210206,9,0.83,-0.72,-0.19,-0.005,0.089,0.812,-2.22,0.96,0.00,0.00,2.22,-0.96,0.00,7.76,-3.37,6.93,-2.65,0.00,0.30,-0.53,4.11,1100,1100,1100,1100,1036,1500,1504,11845,816
210219,9,4.21,-8.05,-0.24,0.142,0.061,0.899,-2.03,1.61,0.00,0.00,2.03,-1.61,0.00,7.09,-5.64,2.89,2.41,0.00,-1.17,3.06,32.54,1100,1100,1100,1100,1036,1500,1504,11853,816
210231,9,-0.20,0.87,0.02,0.064,-0.228,0.919,-1.75,2.65,0.00,0.00,1.75,-2.65,0.00,6.12,-9.28,6.32,-10.15,0.00,0.59,-1.40,108.75,1100,1100,1100,1100,1036,1500,1504,11845,816
210242,9,-1.75,1.74,-0.37,0.099,-0.124,0.771,-0.90,3.92,0.00,0.00,0.90,-3.92,0.00,3.14,-13.74,4.88,-15.47,0.00,1.31,-2.02,119.04,1100,1100,1100,1100,1036,1500,1504,11853,816
210254,9,0.11,4.54,-0.42,-0.056,-0.087,1.026,-1.17,3.26,0.00,0.00,1.17,-3.26,0.00,4.08,-11.39,3.97,-15.93,0.00,0.16,-2.46,9.41,1100,1100,1100,1100,1036,1499,1506,11853,815
210266,9,-2.51,3.97,0.39,-0.125,0.008,0.944,-1.34,1.40,0.00,0.00,1.34,-1.40,0.00,4.70,-4.90,7.22,-8.87,0.00,1.15,-1.25,-6.06,1100,1100,1100,1100,1036,1500,1505,11857,815
210279,9,-3.00,2.64,-0.34,-0.012,0.018,0.807,-1.45,-0.07,0.00,0.00,1.45,0.07,0.00,5.06,0.25,8.07,-2.38,0.00,1.52,-0.13,2.05,1100,1100,1100,1100,1036,1500,1505,11841,815
210291,9,1.49,2.31,-0.12,-0.024,-0.029,0.965,-1.52,-0.99,0.00,0.00,1.52,0.99,0.00,5.31,3.47,3.82,1.17,0.00,-0.65,-0.08,-0.20,1100,1100,1100,1100,1036,1500,1504,11841,815
210302,9,3.12,0.22,1.49,0.021,-0.055,0.827,-1.57,-0.76,0.00,0.00,1.57,0.76,0.00,5.49,2.67,2.37,2.45,0.00,-1.26,0.57,-29.34,1100,1100,1100,1100,1036,1500,1504,11845,815
210314,9,1.82,-2.46,-0.10,0.004,-0.001,0.903,-1.30,0.27,0.00,0.00,1.30,-0.27,0.00,4.54,-0.95,2.72,1.51,0.00,-0.23,0.92,5.36,1100,1100,1100,1100,1036,1500,1504,11845,815
210327,9,2.06,-1.41,-0.76,0.019,0.022,0.828,-1.33,-0.21,0.00,0.00,1.33,0.21,0.00,4.67,0.72,2.61,2.13,0.00,-0.07,0.57,15.18,1100,1100,1100,1100,1036,1500,1504,11857,815
210339,9,0.53,1.85,-0.57,-0.039,-0.058,0.824,-1.48,-1.07,0.00,0.00,1.48,1.07,0.00,5.18,3.76,4.65,1.91,0.00,0.37,-0.31,4.19,1100,1100,1100,1100,1036,1500,1504,11865,815
210351,9,-2.42,3.00,-0.68,-0.020,-0.009,0.966,-0.84,-1.12,0.00,0.00,0.84,1.12,0.00,2.96,3.93,5.37,0.93,0.00,1.27,-0.34,8.00,1100,1100,1100,1100,1036,1501,1504,11861,816
210362,9,3.41,0.74,1.31,-0.050,-0.070,0.962,-1.07,-1.45,0.00,0.00,1.07,1.45,0.00,3.76,5.09,0.34,4.35,0.00,-1.92,1.17,-24.15,1100,1100,1100,1100,1036,1501,1504,11861,816
210374,9,-1.77,2.97,0.27,-0.129,-0.130,0.855,-1.00,-1.55,0.00,0.00,1.00,1.55,0.00,3.50,5.41,5.26,2.44,0.00,0.36,-0.12,-2.01,1100,1100,1100,1100,1036,1507,1498,11865,816
210386,9,-3.79,0.99,-1.43,-0.049,-0.109,0.936,-1.54,-2.50,0.00,0.00,1.54,2.50,0.00,5.38,8.73,9.17,7.75,0.00,1.74,0.99,30.30,1100,1100,1100,1100,1036,1501,1504,11861,816
210399,9,3.89,-3.35,-0.64,-0.044,-0.234,0.958,-2.46,-2.83,0.00,0.00,2.46,2.83,0.00,8.61,9.91,4.73,13.25,0.00,-1.70,2.77,33.40,1100,1100,1100,1100,1036,1501,1504,11861,816
210411,9,0.51,0.17,-0.23,0.023,-0.060,0.853,-1.75,-1.64,0.00,0.00,1.75,1.64,0.00,6.14,5.74,5.63,5.58,0.00,0.18,-0.21,-1.50,1100,1100,1100,1100,1036,1501,1504,11857,816
210422,9,0.83,-6.21,1.67,0.065,0.042,0.917,-1.91,-0.15,0.00,0.00,1.91,0.15,0.00,6.70,0.54,5.87,6.75,0.00,0.63,1.88,-27.56,1100,1100,1100,1100,1036,1501,1504,11853,816
210434,9,0.99,3.40,1.00,-0.122,-0.183,1.054,-2.23,-0.74,0.00,0.00,2.23,0.74,0.00,7.82,2.58,6.83,-0.82,0.00,-0.04,-1.83,-9.42,1100,1100,1100,1100,1036,1500,1505,11849,816
210446,9,-6.02,3.68,-1.28,0.072,-0.053,0.853,-0.93,0.10,0.00,0.00,0.93,-0.10,0.00,3.27,-0.35,9.29,-4.04,0.00,3.05,-1.88,29.54,1100,1100,1100,1100,1036,1501,1504,11853,816
210459,9,0.10,-0.60,-0.88,0.034,0.003,0.969,-0.99,-0.16,0.00,0.00,0.99,0.16,0.00,3.48,0.56,3.38,1.16,0.00,0.14,0.31,41.17,1100,1100,1100,1100,1036,1501,1504,11845,816
210471,9,-1.41,3.63,0.67,0.015,-0.097,0.885,-1.09,0.49,0.00,0.00,1.09,-0.49,0.00,3.83,-1.71,5.24,-5.33,0.00,0.31,-1.46,-15.98,1100,1100,1100,1100,1036,1501,1504,11853,816
210482,9,-2.94,-1.30,1.90,-0.057,0.079,0.844,-1.17,0.38,0.00,0.00,1.17,-0.38,0.00,4.09,-1.35,7.03,-0.04,0.00,1.46,0.36,-30.16,1100,1100,1100,1100,1036,1501,1504,11845,816
210494,9,5.16,-3.34,0.17,0.014,-0.002,0.894,-2.10,-0.96,0.00,0.00,2.10,0.96,0.00,7.36,3.36,2.20,6.70,0.00,-2.01,1.94,5.03,1100,1100,1100,1100,1036,1506,1499,11845,816
210506,9,-1.01,2.22,-0.42,-0.061,-0.116,0.834,-2.28,-0.83,0.00,0.00,2.28,0.83,0.00,7.99,2.90,9.01,0.68,0.00,0.78,-1.17,10.31,1100,1100,1100,1100,1036,1501,1504,11849,816
210519,9,0.71,-1.80,-0.12,0.056,-0.003,0.888,-2.02,-0.51,0.00,0.00,2.02,0.51,0.00,7.08,1.80,6.38,3.60,0.00,0.49,0.61,24.49,1100,1100,1100,1100,1036,1501,1504,11861,816
210531,9,5.85,-1.39,0.32,-0.014,0.002,0.940,-1.50,-0.48,0.00,0.00,1.50,0.48,0.00,5.26,1.67,-0.59,3.06,0.00,-2.15,0.73,-5.74,1100,1100,1100,1100,1036,1501,1504,11857,816
210542,9,-1.71,1.00,1.04,-0.060,0.046,0.791,-0.61,-0.78,0.00,0.00,0.61,0.78,0.00,2.14,2.72,3.85,1.72,0.00,1.43,-0.61,-14.39,1100,1100,1100,1100,1036,1501,1504,11845,816
210554,9,1.12,-2.82,-0.41,0.041,-0.060,0.859,-1.18,-1.29,0.00,0.00,1.18,1.29,0.00,4.14,4.50,3.03,7.32,0.00,0.26,1.55,14.01,1100,1100,1100,1100,1036,1507,1498,11841,815
210566,9,2.10,0.48,-0.46,-0.061,-0.153,0.926,-1.79,-1.51,0.00,0.00,1.79,1.51,0.00,6.25,5.30,4.15,4.82,0.00,-0.71,0.10,11.83,1100,1100,1100,1100,1036,1501,1504,11836,815
210579,9,-1.65,2.37,0.60,-0.049,-0.048,0.888,-1.52,-1.45,0.00,0.00,1.52,1.45,0.00,5.32,5.07,6.97,2.70,0.00,0.95,-0.81,14.78,1100,1100,1100,1100,1036,1501,1504,11841,815
210591,9,-0.33,-0.76,-0.08,0.041,-0.061,0.963,-1.52,-1.03,0.00,0.00,1.52,1.03,0.00,5.31,3.61,5.65,4.37,0.00,0.03,1.14,4.51,1100,1100,1100,1100,1036,1501,1504,11845,815
210602,9,-3.02,3.06,0.76,-0.041,-0.087,0.919,-1.17,-0.88,0.00,0.00,1.17,0.88,0.00,4.09,3.10,7.11,0.04,0.00,0.98,-0.72,-8.77,1100,1100,1100,1100,1036,1501,1504,11841,815
210614,9,-1.29,-1.30,-1.24,0.075,-0.042,0.858,-0.95,-0.26,0.00,0.00,0.95,0.26,0.00,3.32,0.92,4.61,2.22,0.00,0.34,1.21,26.44,1100,1100,1100,1100,1036,1506,1499,11836,815
210626,9,3.23,0.38,-0.75,-0.050,-0.097,0.962,-1.58,-0.75,0.00,0.00,1.58,0.75,0.00,5.53,2.64,2.31,2.26,0.00,-1.00,0.02,13.32,1100,1100,1100,1100,1036,1500,1504,11832,815
210639,9,3.80,-1.67,1.04,-0.124,-0.061,0.904,-2.38,-2.07,0.00,0.00,2.38,2.07,0.00,8.32,7.23,4.52,8.90,0.00,-0.66,1.04,4.56,1100,1100,1100,1100,1036,1500,1504,11832,815
210651,9,-0.25,2.22,-0.24,-0.135,0.018,1.091,-1.84,-2.99,0.00,0.00,1.84,2.99,0.00,6.43,10.46,6.68,8.24,0.00,1.02,-0.57,1.55,1100,1100,1100,1100,1036,1500,1504,11841,815
210662,9,-2.14,-1.07,0.36,0.096,-0.080,0.972,-1.78,-1.51,0.00,0.00,1.78,1.51,0.00,6.22,5.27,8.36,6.34,0.00,1.77,0.51,-9.37,1100,1100,1100,1100,1036,1500,1504,11828,815
210674,9,0.01,3.51,-0.19,0.074,-0.121,0.831,-1.70,-0.27,0.00,0.00,1.70,0.27,0.00,5.94,0.95,5.93,-2.57,0.00,0.33,-1.46,1.26,1100,1100,1100,1100,1036,1506,1498,11832,815
210686,9,-4.84,5.54,-0.14,-0.030,-0.002,0.903,-0.77,0.29,0.00,0.00,0.77,-0.29,0.00,2.68,-1.01,7.52,-6.56,0.00,2.17,-2.36,1.55,1100,1100,1100,1100,1036,1500,1504,11841,815
210699,9,-2.26,1.97,0.63,0.006,0.067,0.920,-0.70,-0.03,0.00,0.00,0.70,0.03,0.00,2.44,0.10,4.70,-1.87,0.00,0.74,-0.28,15.19,1100,1100,1100,1100,1036,1500,1504,11828,815
210711,9,1.47,2.26,1.14,-0.103,-0.079,0.984,-1.57,-0.91,0.00,0.00,1.57,0.91,0.00,5.50,3.19,4.04,0.93,0.00,-1.05,-0.30,-20.91,1100,1100,1100,1100,1036,1500,1504,11841,815
210722,9,-2.23,1.94,0.55,-0.107,-0.015,0.813,-1.90,-2.23,0.00,0.00,1.90,2.23,0.00,6.66,7.82,8.89,5.88,0.00,1.23,-0.00,-4.74,1100,1100,1100,1100,1036,1500,1504,11841,815
210735,9,2.46,-0.17,-0.38,-0.023,-0.018,0.845,-2.36,-3.40,0.00,0.00,2.36,3.40,0.00,8.27,11.91,5.81,12.08,0.00,-0.81,1.66,11.80,1100,1100,1100,1100,1036,1505,1499,11841,815
210746,9,1.57,3.52,-0.17,-0.088,-0.072,1.008,-1.85,-3.89,0.00,0.00,1.85,3.89,0.00,6.48,13.61,4.90,10.09,0.00,-0.57,-0.14,2.13,1100,1100,1100,1100,1036,1500,1504,11845,815
210759,9,1.85,-7.95,0.26,0.194,0.119,0.760,-0.70,-1.54,0.00,0.00,0.70,1.54,0.00,2.44,5.39,0.59,13.34,0.00,0.12,3.60,22.65,1100,1100,1100,1100,1036,1500,1504,11832,816
210771,9,7.92,-8.14,0.35,0.095,-0.007,0.787,-1.28,-0.75,0.00,0.00,1.28,0.75,0.00,4.48,2.63,-3.45,10.77,0.00,-2.59,2.76,-2.37,1100,1100,1100,1100,1036,1500,1504,11841,816
210782,9,0.91,0.37,0.18,-0.085,-0.158,0.889,-1.06,-0.52,0.00,0.00,1.06,0.52,0.00,3.73,1.82,2.82,1.45,0.00,0.70,-1.50,0.18,1100,1100,1100,1100,1036,1500,1504,11849,816
210794,9,1.61,-1.56,-0.52,-0.007,-0.043,0.960,-1.20,-0.99,0.00,0.00,1.20,0.99,0.00,4.20,3.47,2.59,5.03,0.00,0.46,0.22,11.87,1100,1100,1100,1100,1036,1506,1498,11853,816
210806,9,0.55,0.69,0.01,-0.058,-0.188,0.964,-1.83,-1.31,0.00,0.00,1.83,1.31,0.00,6.41,4.60,5.86,3.90,0.00,-0.07,0.06,-1.75,1100,1100,1100,1100,1036,1500,1504,11861,816
210819,9,-8.58,4.46,-0.23,0.057,-0.065,0.842,-0.54,0.22,0.00,0.00,0.54,-0.22,0.00,1.88,-0.77,10.46,-5.23,0.00,3.61,-1.97,34.00,1100,1100,1100,1100,1036,1500,1504,11853,816
210831,9,-2.96,2.20,-0.12,0.040,-0.001,0.939,-0.59,0.47,0.00,0.00,0.59,-0.47,0.00,2.08,-1.63,5.04,-3.83,0.00,0.73,-0.40,8.34,1100,1100,1100,1100,1036,1500,1504,11841,816
210842,9,-0.66,4.05,0.06,-0.092,-0.146,0.978,-0.95,-0.12,0.00,0.00,0.95,0.12,0.00,3.31,0.43,3.97,-3.62,0.00,-0.78,-0.69,3.26,1100,1100,1100,1100,1036,1500,1504,11845,816
210854,9,-2.21,-0.41,1.00,-0.045,-0.059,0.840,-1.27,-0.36,0.00,0.00,1.27,0.36,0.00,4.43,1.27,6.64,1.68,0.00,0.50,0.64,-17.30,1100,1100,1100,1100,1039,1503,1501,11836,815
210866,9,1.63,-2.94,-0.18,-0.033,-0.088,0.988,-2.19,-0.65,0.00,0.00,2.19,0.65,0.00,7.65,2.28,6.02,5.22,0.00,-1.00,1.70,4.54,1100,1100,1100,1100,1039,1501,1505,11841,815
210879,9,-0.33,-0.06,0.20,0.033,-0.116,0.922,-2.39,-0.38,0.00,0.00,2.39,0.38,0.00,8.35,1.35,8.68,1.41,0.00,0.38,-0.23,-1.65,1100,1100,1100,1100,1039,1501,1505,11845,815
210891,9,1.39,-5.00,-0.03,0.086,0.011,0.730,-2.39,0.38,0.00,0.00,2.39,-0.38,0.00,8.36,-1.34,6.97,3.66,0.00,0.38,1.14,2.80,1100,1100,1100,1100,1039,1501,1505,11845,815
210902,9,4.02,-1.64,0.08,-0.020,0.025,0.981,-2.05,-0.44,0.00,0.00,2.05,0.44,0.00,7.17,1.53,3.15,3.17,0.00,-0.94,-0.12,2.72,1100,1100,1100,1100,1039,1501,1505,11845,815
210914,9,3.11,-3.12,1.04,0.053,0.085,0.815,-1.01,-0.00,0.00,0.00,1.01,0.00,0.00,3.55,0.01,0.44,3.13,0.00,-0.49,0.36,-20.11,1100,1100,1100,1100,1039,1506,1501,11845,815
210926,9,2.67,-4.05,-0.01,0.094,-0.018,0.826,-1.17,0.71,0.00,0.00,1.17,-0.71,0.00,4.10,-2.48,1.43,1.58,0.00,-0.02,0.92,-1.21,1100,1100,1100,1100,1042,1500,1504,11841,815
210939,9,2.27,0.76,0.12,-0.004,-0.106,0.897,-1.63,0.80,0.00,0.00,1.63,-0.80,0.00,5.71,-2.82,3.44,-3.57,0.00,0.00,-1.18,1.37,1100,1100,1100,1100,1042,1500,1504,11824,815
210951,9,0.64,3.39,0.41,-0.184,-0.059,0.849,-1.68,-1.14,0.00,0.00,1.68,1.14,0.00,5.89,3.98,5.25,0.59,0.00,0.50,-1.42,76.88,1100,1100,1100,1100,1042,1500,1504,11828,847
210962,9,0.22,0.95,-1.13,-0.022,-0.001,0.968,-1.21,-1.75,0.00,0.00,1.21,1.75,0.00,4.23,6.13,4.02,5.18,0.00,0.41,0.50,107.65,1100,1100,1100,1100,1042,1500,1504,11824,847
210974,9,0.07,-0.78,0.20,0.059,-0.063,0.883,-1.34,-1.20,0.00,0.00,1.34,1.20,0.00,4.70,4.22,4.63,4.99,0.00,0.06,1.01,-4.47,1100,1100,1100,1100,1042,1505,1499,11816,847
210986,9,-3.21,0.50,-0.31,0.057,-0.134,0.847,-1.06,0.30,0.00,0.00,1.06,-0.30,0.00,3.72,-1.05,6.93,-1.55,0.00,1.09,0.13,1.72,1100,1100,1100,1100,1042,1500,1504,11824,847
210999,9,-3.97,3.33,-0.05,0.006,-0.045,0.999,-0.56,0.84,0.00,0.00,0.56,-0.84,0.00,1.98,-2.92,5.94,-6.25,0.00,1.35,-1.12,1.69,1100,1100,1100,1100,1042,1500,1504,11824,847
211011,9,-1.86,4.40,0.27,-0.021,-0.152,0.909,-1.33,0.53,0.00,0.00,1.33,-0.53,0.00,4.66,-1.86,6.51,-6.26,0.00,0.13,-0.92,41.18,1100,1100,1100,1100,1045,1500,1504,11828,847
211022,9,-3.63,3.51,-0.47,-0.039,-0.066,0.960,-1.38,0.29,0.00,0.00,1.38,-0.29,0.00,4.84,-1.03,8.47,-4.54,0.00,0.75,-0.59,56.19,1100,1100,1100,1100,1045,1500,1504,11836,847
211034,9,-0.73,-1.01,0.60,0.072,0.020,0.861,-2.28,0.27,0.00,0.00,2.28,-0.27,0.00,7.97,-0.95,8.71,0.07,0.00,-0.03,1.37,35.96,1100,1100,1100,1100,1047,1506,1498,11845,847
211046,9,1.16,-1.00,-0.43,0.049,-0.146,0.796,-2.79,0.85,0.00,0.00,2.79,-0.85,0.00,9.77,-2.97,8.61,-1.97,0.00,-0.78,1.11,53.12,1100,1100,1100,1100,1047,1498,1505,11832,847
211059,9,0.48,-0.15,-0.46,-0.054,0.006,0.931,-2.29,0.26,0.00,0.00,2.29,-0.26,0.00,8.01,-0.90,7.53,-0.75,0.00,0.47,-0.23,116.02,1100,1100,1100,1100,1047,1498,1505,11845,854
211071,9,8.61,-5.53,0.73,-0.048,0.015,0.835,-2.57,-1.18,0.00,0.00,2.57,1.18,0.00,9.00,4.14,0.39,9.68,0.00,-2.55,2.46,25.92,1100,1100,1100,1100,1047,1500,1505,11845,854
211082,9,4.00,-1.49,0.29,-0.093,-0.056,0.939,-2.14,-1.81,0.00,0.00,2.14,1.81,0.00,7.49,6.33,3.49,7.81,0.00,-0.40,0.22,38.55,1100,1100,1100,1100,1047,1500,1505,11849,854
211094,9,2.96,-6.31,0.29,0.075,0.078,0.875,-1.50,-1.12,0.00,0.00,1.50,1.12,0.00,5.25,3.90,2.29,10.21,0.00,0.50,1.66,34.15,1100,1100,1100,1100,1052,1505,1501,11849,854
211106,9,5.10,-4.73,0.07,0.048,-0.125,0.871,-1.84,-0.53,0.00,0.00,1.84,0.53,0.00,6.45,1.86,1.35,6.60,0.00,-1.16,1.27,37.02,1100,1100,1100,1100,1053,1501,1504,11845,854
211119,9,-5.75,4.36,-0.14,0.017,-0.111,0.882,-1.13,0.81,0.00,0.00,1.13,-0.81,0.00,3.96,-2.83,9.71,-7.19,0.00,3.32,-3.03,5.00,1100,1100,1100,1100,1053,1501,1504,11861,854
211131,9,-2.61,-0.31,-0.28,0.082,-0.066,0.904,-1.24,1.85,0.00,0.00,1.24,-1.85,0.00,4.33,-6.49,6.95,-6.18,0.00,1.46,-0.27,40.10,1100,1100,1100,1100,1053,1500,1505,11861,854
211143,9,-3.97,9.90,-0.10,-0.067,-0.121,1.035,-0.95,0.90,0.00,0.00,0.95,-0.90,0.00,3.31,-3.16,7.28,-13.05,0.00,0.94,-3.80,36.71,1100,1100,1100,1100,1053,1500,1505,11857,854
211154,9,-6.55,2.52,0.75,0.046,0.062,0.857,-0.60,1.27,0.00,0.00,0.60,-1.27,0.00,2.09,-4.46,8.64,-6.97,0.00,1.73,0.17,-12.58,1100,1100,1100,1100,1053,1500,1505,11853,847
211166,9,-0.74,2.82,0.70,0.045,-0.070,0.893,-1.85,1.16,0.00,0.00,1.85,-1.16,0.00,6.48,-4.05,7.22,-6.87,0.00,-0.91,0.27,-6.03,1100,1100,1100,1100,1066,1500,1504,11845,847
211179,9,-0.38,1.25,0.55,-0.039,-0.138,0.791,-2.50,0.15,0.00,0.00,2.50,-0.15,0.00,8.77,-0.52,9.15,-1.77,0.00,-0.81,0.71,39.70,1100,1100,1100,1100,1066,1500,1504,11861,847
211191,9,2.17,-3.17,-0.46,0.005,-0.053,0.812,-2.72,0.17,0.00,0.00,2.72,-0.17,0.00,9.52,-0.60,7.36,2.57,0.00,-0.86,1.74,10.48,1100,1100,1100,1100,1067,1501,1504,11857,847
211202,9,4.85,-4.78,-0.57,0.030,-0.098,0.975,-3.21,-0.10,0.00,0.00,3.21,0.10,0.00,11.22,0.36,6.37,5.14,0.00,-1.26,1.75,11.32,1100,1100,1100,1100,1067,1501,1504,11857,847
211214,9,4.02,-5.43,0.51,0.004,-0.030,0.747,-2.78,0.13,0.00,0.00,2.78,-0.13,0.00,9.72,-0.47,5.71,4.97,0.00,-0.16,0.86,-13.43,1100,1100,1100,1100,1067,1503,1502,11853,847
211226,9,6.65,-6.83,-0.59,0.054,0.002,0.904,-2.18,0.33,0.00,0.00,2.18,-0.33,0.00,7.63,-1.17,0.98,5.65,0.00,-1.34,1.33,10.17,1100,1100,1100,1100,1067,1501,1504,11845,847
211239,9,3.17,-4.75,0.30,0.144,-0.063,0.869,-1.80,1.98,0.00,0.00,1.80,-1.98,0.00,6.31,-6.93,3.15,-2.18,0.00,0.17,-0.06,33.46,1100,1100,1100,1100,1067,1501,1504,11857,847
211251,9,-1.44,-4.74,-0.51,0.199,-0.088,0.735,-1.28,4.50,0.00,0.00,1.28,-4.50,0.00,4.49,-15.75,5.93,-11.01,0.00,2.03,-0.35,8.64,1100,1100,1100,1100,1080,1502,1502,11853,851
211262,9,-1.63,3.88,-0.20,-0.052,-0.063,1.050,-1.03,3.58,0.00,0.00,1.03,-3.58,0.00,3.59,-12.52,5.23,-16.40,0.00,1.47,-3.40,5.42,1100,1100,1100,1100,1080,1502,1502,11853,851
211274,9,-0.27,5.28,0.53,-0.120,-0.089,0.900,-1.14,1.62,0.00,0.00,1.14,-1.62,0.00,4.00,-5.65,4.27,-10.93,0.00,0.14,-2.21,-13.03,1100,1100,1100,1100,1081,1504,1501,11845,851
211286,9,-6.88,7.15,-0.88,-0.027,-0.026,0.965,-0.91,0.93,0.00,0.00,0.91,-0.93,0.00,3.19,-3.25,10.07,-10.40,0.00,2.64,-2.19,15.41,1100,1100,1100,1100,1081,1500,1505,11849,851
211299,9,-7.18,3.49,0.45,0.038,-0.023,0.971,-1.33,1.23,0.00,0.00,1.33,-1.23,0.00,4.67,-4.32,11.85,-7.81,0.00,2.44,-0.65,-11.37,1100,1100,1100,1100,1081,1500,1505,11845,851
211311,9,-0.53,3.21,0.81,0.007,-0.095,0.881,-1.52,0.95,0.00,0.00,1.52,-0.95,0.00,5.33,-3.34,5.86,-6.55,0.00,-1.12,-0.30,19.42,1100,1100,1100,1100,1093,1500,1505,11841,851
211322,9,-2.98,3.21,0.47,-0.038,0.070,0.812,-1.13,0.22,0.00,0.00,1.13,-0.22,0.00,3.97,-0.78,6.95,-3.99,0.00,0.70,-0.45,35.64,1100,1100,1100,1100,1093,1500,1505,11836,851
211334,9,2.17,-0.83,0.68,-0.086,-0.046,0.845,-2.29,-1.13,0.00,0.00,2.29,1.13,0.00,8.01,3.96,5.84,4.78,0.00,-1.26,1.73,29.36,1100,1100,1100,1100,1095,1504,1500,11828,851
211347,9,0.99,1.67,-1.08,-0.091,-0.133,0.960,-2.16,-1.79,0.00,0.00,2.16,1.79,0.00,7.58,6.25,6.59,4.58,0.00,-0.57,0.13,56.51,1100,1100,1100,1100,1096,1500,1505,11828,851
211359,9,1.12,-2.20,-0.34,0.029,0.001,0.856,-1.89,-1.44,0.00,0.00,1.89,1.44,0.00,6.61,5.04,5.50,7.25,0.00,0.09,1.10,1.48,1100,1100,1100,1100,1096,1500,1505,11824,885
211371,9,3.12,-3.39,-0.21,0.063,-0.097,0.909,-2.14,-0.94,0.00,0.00,2.14,0.94,0.00,7.50,3.27,4.37,6.66,0.00,-1.19,1.81,31.32,1100,1100,1100,1100,1099,1500,1505,11832,885
211382,9,-7.04,4.85,0.60,-0.003,-0.146,0.867,-1.53,0.21,0.00,0.00,1.53,-0.21,0.00,5.36,-0.74,12.40,-5.59,0.00,3.39,-2.43,21.56,1100,1100,1100,1100,1099,1500,1505,11841,885
211394,9,1.71,0.47,-0.18,0.031,-0.096,0.936,-1.92,0.14,0.00,0.00,1.92,-0.14,0.00,6.72,-0.49,5.01,-0.97,0.00,-0.49,0.11,35.54,1100,1100,1100,1100,1101,1505,1499,11845,885
211406,9,2.14,5.32,-0.68,-0.153,-0.059,1.030,-1.42,-1.11,0.00,0.00,1.42,1.11,0.00,4.96,3.87,2.82,-1.44,0.00,-0.95,-1.58,39.91,1100,1100,1100,1100,1103,1500,1505,11832,885
211419,9,-3.62,1.12,0.45,-0.024,0.077,0.859,-0.95,-1.29,0.00,0.00,0.95,1.29,0.00,3.33,4.52,6.95,3.41,0.00,2.23,0.29,-12.33,1100,1100,1100,1100,1103,1500,1505,11820,885
211431,9,0.40,-0.18,0.79,0.040,-0.085,1.006,-1.89,-1.48,0.00,0.00,1.89,1.48,0.00,6.63,5.19,6.23,5.38,0.00,0.26,0.95,-12.82,1100,1100,1100,1100,1103,1500,1505,11824,885
211442,9,-2.77,4.28,0.79,0.029,-0.074,0.771,-1.80,-0.65,0.00,0.00,1.80,0.65,0.00,6.28,2.29,9.05,-1.99,0.00,1.18,-1.44,-9.23,1100,1100,1100,1100,1103,1500,1505,11820,885
211455,9,-0.19,0.49,-0.12,-0.038,0.014,0.917,-1.69,-0.23,0.00,0.00,1.69,0.23,0.00,5.91,0.81,6.10,0.32,0.00,0.17,0.23,1.72,1100,1100,1100,1100,1103,1502,1503,11811,1141
211466,9,3.64,-0.78,-0.75,0.019,-0.008,0.972,-1.64,-0.71,0.00,0.00,1.64,0.71,0.00,5.72,2.49,2.08,3.27,0.00,-1.38,1.04,14.66,1100,1100,1100,1100,1110,1500,1505,11816,1141
211479,9,-0.68,-0.68,0.44,0.001,-0.025,0.667,-1.35,-0.08,0.00,0.00,1.35,0.08,0.00,4.74,0.28,5.41,0.96,0.00,1.07,0.12,32.72,1100,1100,1100,1100,1110,1500,1505,11824,1141
211491,9,2.51,-2.35,-0.48,0.057,0.012,0.958,-1.39,-0.15,0.00,0.00,1.39,0.15,0.00,4.87,0.52,2.36,2.87,0.00,-0.42,0.80,7.42,1100,1100,1100,1100,1110,1501,1505,11828,1141
211502,9,1.25,2.98,-0.20,-0.027,-0.087,0.962,-1.61,-0.31,0.00,0.00,1.61,0.31,0.00,5.62,1.07,4.38,-1.91,0.00,-0.06,-1.26,3.87,1100,1100,1100,1100,1110,1501,1505,11832,1141
211514,9,-2.89,4.81,-0.01,-0.067,-0.109,0.818,-1.41,-0.32,0.00,0.00,1.41,0.32,0.00,4.95,1.12,7.84,-3.69,0.00,1.53,-1.54,-3.05,1100,1100,1100,1100,1110,1503,1503,11836,1141
211526,9,-2.30,3.34,-0.33,0.004,-0.057,0.931,-1.01,-0.75,0.00,0.00,1.01,0.75,0.00,3.52,2.61,5.81,-0.73,0.00,0.76,-0.20,7.61,1100,1100,1100,1100,1110,1501,1505,11841,1141
211539,9,4.23,-3.70,0.83,0.024,-0.001,0.876,-0.96,-1.15,0.00,0.00,0.96,1.15,0.00,3.36,4.03,-0.86,7.73,0.00,-2.18,2.82,26.68,1100,1100,1100,1100,1110,1501,1505,11832,1141
211551,9,0.58,-2.15,-0.66,0.033,-0.096,0.780,-1.39,-0.20,0.00,0.00,1.39,0.20,0.00,4.85,0.69,4.27,2.84,0.00,0.16,1.03,15.48,1100,1100,1100,1100,1113,1500,1504,11828,925
211562,9,-0.21,-1.71,-0.52,-0.012,-0.125,0.999,-2.11,-0.11,0.00,0.00,2.11,0.11,0.00,7.38,0.38,7.60,2.09,0.00,1.02,0.31,9.62,1100,1100,1100,1100,1113,1500,1504,11832,925
211574,9,2.88,2.26,-0.11,-0.119,-0.185,1.086,-2.55,-1.04,0.00,0.00,2.55,1.04,0.00,8.93,3.64,6.05,1.38,0.00,-0.73,-1.05,-4.10,1100,1100,1100,1100,1114,1502,1503,11828,925
211586,9,-4.38,3.48,-0.30,0.061,-0.047,0.873,-1.44,-0.29,0.00,0.00,1.44,0.29,0.00,5.05,1.01,9.43,-2.47,0.00,2.43,-1.64,3.73,1100,1100,1100,1100,1114,1500,1505,11828,925
211599,9,-0.93,-4.16,1.07,0.146,0.041,0.872,-0.91,1.49,0.00,0.00,0.91,-1.49,0.00,3.19,-5.22,4.12,-1.07,0.00,0.82,1.52,14.29,1100,1100,1100,1100,1114,1500,1505,11824,925
211611,9,-0.33,1.19,0.44,0.021,-0.041,0.851,-0.71,2.28,0.00,0.00,0.71,-2.28,0.00,2.49,-7.98,2.82,-9.16,0.00,-0.02,-1.11,-4.16,1100,1100,1100,1100,1114,1500,1505,11828,925
211622,9,-3.27,3.75,-0.30,-0.039,0.031,0.956,-0.41,1.96,0.00,0.00,0.41,-1.96,0.00,1.44,-6.85,4.71,-10.60,0.00,1.64,-2.37,8.24,1100,1100,1100,1100,1114,1500,1505,11824,925
211634,9,4.87,-3.09,-0.12,-0.032,-0.083,0.979,-1.75,0.55,0.00,0.00,1.75,-0.55,0.00,6.12,-1.94,1.25,1.15,0.00,-1.85,1.37,-0.32,1100,1100,1100,1100,1117,1503,1502,11820,925
211646,9,-1.26,1.17,0.55,-0.075,-0.169,0.747,-2.55,-0.46,0.00,0.00,2.55,0.46,0.00,8.93,1.60,10.18,0.43,0.00,0.84,-0.61,-9.63,1100,1100,1100,1100,1120,1500,1505,11820,925
211659,9,-1.62,-1.98,0.67,0.055,0.083,0.825,-1.78,-0.01,0.00,0.00,1.78,0.01,0.00,6.24,0.02,7.86,1.99,0.00,1.14,0.53,17.91,1100,1100,1100,1100,1120,1500,1505,11832,816
211671,9,4.41,-2.01,-0.77,0.075,0.011,0.955,-1.72,0.22,0.00,0.00,1.72,-0.22,0.00,6.03,-0.78,1.62,1.23,0.00,-2.05,1.05,53.76,1100,1100,1100,1100,1121,1500,1504,11836,816
211682,9,-1.37,2.53,-0.76,-0.057,-0.068,0.865,-1.10,-0.13,0.00,0.00,1.10,0.13,0.00,3.85,0.45,5.22,-2.08,0.00,0.81,-1.12,46.45,1100,1100,1100,1100,1121,1500,1504,11836,816
211694,9,2.37,-1.20,-0.38,0.003,-0.071,0.893,-1.30,-0.99,0.00,0.00,1.30,0.99,0.00,4.54,3.47,2.17,4.67,0.00,-0.57,1.13,3.41,1100,1100,1100,1100,1121,1502,1502,11841,816
211706,9,0.44,2.43,0.92,-0.117,-0.116,0.945,-1.41,-1.87,0.00,0.00,1.41,1.87,0.00,4.92,6.55,4.48,4.12,0.00,-0.18,-0.29,-13.54,1100,1100,1100,1100,1126,1500,1505,11841,816
211719,9,-1.39,0.97,0.91,-0.090,-0.064,0.953,-1.45,-1.91,0.00,0.00,1.45,1.91,0.00,5.06,6.70,6.45,5.73,0.00,0.66,0.39,-10.57,1100,1100,1100,1100,1126,1500,1505,11832,816
211731,9,2.43,-2.20,-0.99,-0.019,-0.130,0.982,-2.04,-1.68,0.00,0.00,2.04,1.68,0.00,7.13,5.87,4.71,8.07,0.00,-0.80,1.71,23.83,1100,1100,1100,1100,1126,1501,1505,11832,816
211742,9,-2.22,3.95,-0.75,-0.065,-0.062,0.785,-1.69,-1.49,0.00,0.00,1.69,1.49,0.00,5.91,5.22,8.13,1.27,0.00,1.32,-1.31,9.03,1100,1100,1100,1100,1126,1501,1505,11836,816
211755,9,-1.40,-0.42,-0.79,0.054,0.082,0.976,-0.81,-1.04,0.00,0.00,0.81,1.04,0.00,2.85,3.64,4.24,4.05,0.00,0.67,0.80,4.17,1100,1100,1100,1100,1126,1502,1504,11841,815
211766,9,3.22,-0.85,1.24,0.066,-0.016,0.945,-0.85,-0.41,0.00,0.00,0.85,0.41,0.00,2.96,1.44,-0.26,2.28,0.00,-1.03,0.41,-25.29,1100,1100,1100,1100,1126,1501,1505,11832,815
211779,9,2.78,-0.55,1.21,0.024,-0.080,0.682,-1.43,0.81,0.00,0.00,1.43,-0.81,0.00,4.99,-2.82,2.21,-2.27,0.00,-0.58,-0.16,-18.95,1100,1100,1100,1100,1126,1501,1505,11841,815
211791,9,-3.34,1.67,-0.94,0.046,-0.022,0.907,-1.23,1.70,0.00,0.00,1.23,-1.70,0.00,4.31,-5.95,7.65,-7.62,0.00,2.01,-1.39,49.02,1100,1100,1100,1100,1139,1501,1505,11841,815
211802,9,-1.84,2.02,-0.79,0.018,0.071,0.909,-1.24,0.86,0.00,0.00,1.24,-0.86,0.00,4.33,-3.01,6.17,-5.03,0.00,0.86,-0.62,37.42,1100,1100,1100,1100,1139,1501,1505,11841,815
211814,9,-1.63,3.47,0.05,0.082,-0.013,0.804,-1.24,1.18,0.00,0.00,1.24,-1.18,0.00,4.34,-4.12,5.97,-7.60,0.00,0.22,-0.79,20.92,1100,1100,1100,1100,1140,1502,1502,11845,815
211826,9,-1.69,-0.38,1.55,0.063,-0.016,0.839,-1.17,1.86,0.00,0.00,1.17,-1.86,0.00,4.09,-6.52,5.78,-6.14,0.00,0.31,0.73,3.13,1100,1100,1100,1100,1140,1500,1505,11845,815
211839,9,4.78,-0.19,0.99,-0.096,-0.128,0.903,-1.93,1.16,0.00,0.00,1.93,-1.16,0.00,6.76,-4.07,1.98,-3.89,0.00,-2.43,0.67,-7.60,1100,1100,1100,1100,1140,1500,1505,11832,815
211851,9,-1.05,2.34,-1.11,-0.110,-0.134,0.893,-1.98,-0.12,0.00,0.00,1.98,0.12,0.00,6.92,0.44,7.98,-1.90,0.00,0.68,-0.76,60.00,1100,1100,1100,1100,1140,1500,1505,11828,816
211863,9,1.58,-8.00,-1.80,0.119,0.031,0.845,-1.74,0.18,0.00,0.00,1.74,-0.18,0.00,6.10,-0.64,4.52,7.36,0.00,0.35,3.31,56.85,1100,1100,1100,1100,1140,1500,1505,11828,816
211874,9,5.44,-4.33,-0.28,0.046,-0.102,0.894,-2.13,0.46,0.00,0.00,2.13,-0.46,0.00,7.46,-1.60,2.01,2.73,0.00,-1.66,1.08,-6.17,1100,1100,1100,1100,1149,1500,1504,11824,816
211886,9,-2.73,2.66,1.62,0.010,-0.069,0.868,-1.25,1.31,0.00,0.00,1.25,-1.31,0.00,4.39,-4.58,7.12,-7.24,0.00,1.91,-2.37,-32.34,1100,1100,1100,1100,1149,1500,1504,11824,816
211899,9,-1.05,1.10,0.05,0.071,-0.032,0.953,-1.25,1.58,0.00,0.00,1.25,-1.58,0.00,4.37,-5.52,5.41,-6.62,0.00,0.82,-0.77,52.62,1100,1100,1100,1100,1149,1500,1504,11824,816
211911,9,-1.71,4.02,-0.60,-0.063,-0.127,0.899,-1.29,1.15,0.00,0.00,1.29,-1.15,0.00,4.50,-4.03,6.22,-8.05,0.00,0.44,-1.46,17.38,1100,1100,1100,1100,1155,1500,1504,11832,816
211922,9,-0.75,-1.50,-1.07,-0.004,-0.039,0.841,-1.09,1.32,0.00,0.00,1.09,-1.32,0.00,3.82,-4.62,4.58,-3.13,0.00,0.15,0.82,11.28,1100,1100,1100,1100,1155,1500,1504,11836,816
211934,9,0.78,0.95,-0.57,-0.072,-0.079,1.014,-1.68,0.28,0.00,0.00,1.68,-0.28,0.00,5.88,-0.99,5.10,-1.94,0.00,-0.26,-0.15,2.16,1100,1100,1100,1100,1161,1502,1505,11828,816
211946,9,-0.50,1.91,1.91,-0.107,-0.137,0.923,-2.19,-0.90,0.00,0.00,2.19,0.90,0.00,7.67,3.14,8.17,1.22,0.00,0.54,-0.32,-36.40,1100,1100,1100,1100,1164,1501,1505,11811,816
211959,9,-0.70,1.36,-0.08,0.030,-0.050,0.871,-2.03,-1.34,0.00,0.00,2.03,1.34,0.00,7.10,4.71,7.80,3.35,0.00,0.82,-0.00,8.36,1189,1139,1138,1188,1164,1501,1505,11799,823
211971,9,1.05,0.43,-0.82,-0.011,-0.006,0.992,-2.22,-1.22,0.00,0.00,2.22,1.22,0.00,7.78,4.25,6.73,3.82,0.00,0.05,-0.04,17.96,1189,1139,1138,1188,1164,1501,1505,11786,823
211982,9,0.26,3.32,-0.81,0.018,-0.074,0.858,-1.91,-0.07,0.00,0.00,1.91,0.07,0.00,6.70,0.23,6.44,-3.09,0.00,0.10,-1.44,4.19,1189,1139,1138,1188,1164,1501,1505,11782,823
211994,9,-4.23,4.09,0.19,-0.008,-0.035,0.953,-1.11,0.41,0.00,0.00,1.11,-0.41,0.00,3.90,-1.43,8.12,-5.52,0.00,2.04,-1.84,-14.52,1189,1139,1138,1188,1168,1502,1503,11766,823
212006,9,-1.29,-1.82,1.36,0.106,-0.017,0.909,-1.40,0.79,0.00,0.00,1.40,-0.79,0.00,4.91,-2.77,6.20,-0.94,0.00,0.98,1.02,-21.81,1189,1139,1138,1188,1170,1501,1504,11757,823
212019,9,2.43,1.22,0.29,-0.041,-0.208,0.897,-2.29,-0.11,0.00,0.00,2.29,0.11,0.00,8.02,0.38,5.59,-0.84,0.00,-1.30,-0.06,4.39,1189,1139,1138,1188,1170,1501,1504,11753,823
212031,9,-3.72,1.22,-1.37,0.012,-0.072,0.828,-2.20,-0.22,0.00,0.00,2.20,0.22,0.00,7.72,0.79,11.44,-0.44,0.00,1.56,-0.38,73.82,1189,1139,1138,1188,1171,1500,1504,11741,823
212042,9,-0.97,-8.13,-1.86,0.126,0.043,0.783,-2.13,0.30,0.00,0.00,2.13,-0.30,0.00,7.47,-1.04,8.44,7.10,0.00,0.80,3.76,72.66,1189,1139,1138,1188,1171,1500,1504,11736,823
212054,9,6.41,-3.43,-1.67,0.123,-0.027,0.807,-2.04,0.66,0.00,0.00,2.04,-0.66,0.00,7.13,-2.33,0.71,1.10,0.00,-3.09,1.81,63.15,1110,1229,1226,1117,1171,1501,1503,11724,822
212067,9,-3.63,7.05,-1.27,0.011,-0.130,0.815,-1.35,0.30,0.00,0.00,1.35,-0.30,0.00,4.73,-1.07,8.36,-8.12,0.00,1.50,-3.70,55.28,1110,1229,1226,1117,1176,1501,1505,11716,822
212079,9,-5.63,-0.80,-1.40,-0.009,0.028,0.788,-0.65,-0.18,0.00,0.00,0.65,0.18,0.00,2.29,0.62,7.93,1.42,0.00,3.12,-0.25,108.82,1110,1229,1226,1117,1176,1501,1505,11711,822
212091,9,3.70,0.77,-2.63,-0.120,0.068,1.097,-1.12,-1.60,0.00,0.00,1.12,1.60,0.00,3.93,5.60,0.22,4.83,0.00,-1.64,0.83,34.40,1110,1229,1226,1117,1176,1501,1504,11703,822
212102,9,1.45,8.99,-2.37,0.021,-0.151,1.033,-1.76,-1.66,0.00,0.00,1.76,1.66,0.00,6.16,5.82,4.71,-3.16,0.00,-0.85,-3.28,28.23,1110,1229,1226,1117,1176,1501,1504,11695,822
212114,9,-4.87,0.49,-0.53,-0.003,-0.058,0.749,-1.35,-0.94,0.00,0.00,1.35,0.94,0.00,4.73,3.28,9.60,2.80,0.00,2.64,-0.18,26.71,1110,1229,1226,1117,1176,1502,1503,11699,822
212126,9,1.70,-10.04,-2.10,0.087,-0.071,0.798,-1.81,0.66,0.00,0.00,1.81,-0.66,0.00,6.34,-2.30,4.63,7.74,0.00,0.17,4.34,48.98,1110,1229,1226,1117,1176,1501,1504,11691,822
212139,9,4.54,2.86,-4.06,-0.156,-0.063,1.091,-1.86,0.77,0.00,0.00,1.86,-0.77,0.00,6.51,-2.70,1.97,-5.56,0.00,-1.72,-1.53,43.99,1110,1229,1226,1117,1176,1501,1504,11682,822
212151,9,0.74,1.19,-2.04,-0.022,-0.188,0.996,-2.07,1.51,0.00,0.00,2.07,-1.51,0.00,7.24,-5.30,6.50,-6.49,0.00,0.08,-1.17,34.40,1152,1205,1205,1154,1180,1500,1504,11691,823
212162,9,-3.85,2.11,-1.87,0.096,-0.050,0.701,-1.51,0.52,0.00,0.00,1.51,-0.52,0.00,5.29,-1.82,9.14,-3.94,0.00,2.80,-1.36,33.91,1152,1205,1205,1154,1180,1500,1504,11703,823
212174,9,-3.90,-3.77,-1.58,0.061,0.150,0.731,-1.37,1.13,0.00,0.00,1.37,-1.13,0.00,4.80,-3.97,8.70,-0.20,0.00,2.76,1.03,-1.97,1152,1205,1205,1154,1181,1501,1503,11716,823
212186,9,-1.21,-1.15,-1.66,0.084,0.011,0.961,-1.89,1.61,0.00,0.00,1.89,-1.61,0.00,6.60,-5.62,7.81,-4.47,0.00,0.76,0.32,-0.33,1152,1205,1205,1154,1181,1500,1504,11707,823
212199,9,5.45,1.48,-1.45,0.115,-0.192,0.924,-2.37,2.17,0.00,0.00,2.37,-2.17,0.00,8.31,-7.59,2.86,-9.08,0.00,-3.14,-0.38,5.27,1152,1205,1205,1154,1181,1500,1504,11707,823
212211,9,-7.14,6.36,0.03,-0.042,-0.230,0.838,-2.36,1.68,0.00,0.00,2.36,-1.68,0.00,8.26,-5.90,15.40,-12.25,0.00,2.70,-3.30,-15.10,1152,1205,1205,1154,1186,1500,1505,11703,823
212222,9,-15.14,-0.21,-1.39,0.077,0.029,0.708,-1.60,1.71,0.00,0.00,1.60,-1.71,0.00,5.60,-5.99,20.75,-5.78,0.00,7.47,-0.21,15.31,1152,1205,1205,1154,1186,1500,1505,11695,823
212234,9,2.66,-1.36,-3.46,0.155,0.258,0.904,-2.38,1.17,0.00,0.00,2.38,-1.17,0.00,8.32,-4.08,5.66,-2.72,0.00,-0.90,1.30,82.14,1152,1205,1205,1154,1188,1501,1504,11707,823
212246,9,9.64,1.83,-2.89,-0.029,-0.088,1.103,-3.23,0.03,0.00,0.00,3.23,-0.03,0.00,11.32,-0.12,1.67,-1.95,0.00,-4.63,-0.39,53.93,1152,1205,1205,1154,1189,1500,1505,11711,823
212259,9,3.12,-9.72,-3.02,-0.027,-0.279,0.735,-3.33,-0.30,0.00,0.00,3.33,0.30,0.00,11.67,1.04,8.54,10.76,0.00,-1.56,4.58,60.57,1131,1248,1246,1129,1189,1500,1505,11711,823
212271,9,-8.07,-1.91,-2.90,-0.183,-0.075,0.759,-2.32,-1.59,0.00,0.00,2.32,1.59,0.00,8.11,5.55,16.18,7.47,0.00,4.27,1.25,15.79,1131,1248,1246,1129,1194,1500,1504,11695,823
212282,9,-4.34,2.55,-2.03,-0.164,-0.105,1.024,-2.41,-0.59,0.00,0.00,2.41,0.59,0.00,8.45,2.07,12.78,-0.48,0.00,2.82,-0.67,-4.88,1131,1248,1246,1129,1194,1500,1504,11682,823
212294,9,-1.36,8.60,-3.31,0.112,-0.019,0.965,-2.30,-0.82,0.00,0.00,2.30,0.82,0.00,8.04,2.86,9.39,-5.74,0.00,1.10,-3.09,22.76,1131,1248,1246,1129,1195,1501,1504,11695,823
212306,9,1.63,0.85,-0.74,0.046,0.011,0.927,-3.12,-1.23,0.00,0.00,3.12,1.23,0.00,10.92,4.31,9.28,3.46,0.00,-0.29,-0.21,-13.24,1131,1248,1246,1129,1196,1501,1504,11695,823
212319,9,6.08,-4.93,0.36,0.089,-0.077,0.886,-3.36,-0.49,0.00,0.00,3.36,0.49,0.00,11.76,1.70,5.68,6.64,0.00,-2.57,2.62,6.76,1131,1248,1246,1129,1196,1501,1504,11687,823
212331,9,0.15,3.07,-0.38,-0.161,-0.190,0.907,-3.02,-1.04,0.00,0.00,3.02,1.04,0.00,10.56,3.64,10.40,0.57,0.00,0.01,-0.65,-5.30,1131,1248,1246,1129,1196,1501,1504,11682,823
212342,9,-6.13,2.99,-0.29,-0.175,-0.023,0.976,-1.99,-0.83,0.00,0.00,1.99,0.83,0.00,6.97,2.90,13.10,-0.09,0.00,3.21,-1.06,-5.49,1131,1248,1246,1129,1196,1501,1504,11670,823
212354,1,-2.02,-6.66,-2.56,0.122,0.145,0.753,-1.01,1.01,0.00,0.00,1.01,-1.01,0.00,3.54,-3.53,5.56,3.12,0.00,1.53,3.41,36.14,1190,1213,1209,1188,1201,1501,1503,11682,820
212366,1,6.02,6.25,-2.97,0.128,0.087,1.067,-1.23,0.25,0.00,0.00,1.23,-0.25,0.00,4.32,-0.88,-1.70,-7.13,0.00,-2.41,-2.69,36.05,1190,1213,1209,1188,1202,1501,1504,11670,820
212379,1,3.00,3.92,-3.42,0.122,-0.222,0.850,-2.01,2.36,0.00,0.00,2.01,-2.36,0.00,7.08,-8.28,4.09,-12.20,0.00,-1.48,-2.66,28.55,1190,1213,1209,1188,1202,1501,1504,11682,820
212391,1,-8.69,-2.93,-4.32,-0.048,-0.013,0.818,-0.77,-0.08,0.00,0.00,0.77,0.08,0.00,2.75,0.25,11.45,3.18,0.00,3.99,1.42,37.02,1190,1213,1209,1188,1202,1501,1504,11666,820
212402,1,-4.64,-15.92,-3.23,-0.138,0.115,0.779,-1.02,1.94,0.00,0.00,1.02,-1.94,0.00,3.62,-6.84,8.26,9.08,0.00,2.66,6.86,4.58,1190,1213,1209,1188,1202,1501,1504,11670,820
212414,1,4.55,13.59,-4.19,-0.130,0.213,0.956,-0.70,1.22,0.00,0.00,0.70,-1.22,0.00,2.53,-4.33,-2.03,-17.91,0.00,-2.01,-5.84,66.50,1190,1213,1209,1188,1205,1501,1504,11657,820
212426,1,5.91,9.61,-2.33,-0.094,0.083,0.992,-2.41,3.61,0.00,0.00,2.41,-3.61,0.00,8.54,-12.75,2.62,-22.36,0.00,-2.57,-6.27,33.91,1190,1213,1209,1188,1206,1500,1505,11666,820
212439,1,2.41,2.55,-2.18,0.203,-0.049,0.799,-2.32,1.78,0.00,0.00,2.32,-1.78,0.00,8.26,-6.34,5.85,-8.90,0.00,-0.70,-1.41,34.01,1190,1213,1209,1188,1206,1500,1505,11653,820
212451,1,2.42,-8.46,-0.11,0.204,-0.166,0.816,-3.22,2.25,0.00,0.00,3.22,-2.25,0.00,11.43,-8.01,9.00,0.44,0.00,-0.16,3.22,22.64,1195,1216,1221,1190,1206,1500,1505,11662,820
212462,1,0.60,-0.77,1.71,0.033,-0.154,0.915,-3.61,2.32,0.00,0.00,3.61,-2.32,0.00,12.82,-8.28,12.21,-7.51,0.00,0.58,-0.95,5.99,1195,1216,1221,1190,1206,1500,1505,11662,820
212475,1,-1.26,1.92,-0.36,-0.016,-0.065,0.870,-3.25,1.94,0.00,0.00,3.25,-1.94,0.00,11.57,-6.95,12.83,-8.87,0.00,0.93,-1.53,49.17,1195,1216,1221,1190,1206,1501,1504,11670,820
212486,1,-2.14,-1.53,-1.86,-0.016,0.018,0.825,-3.02,1.99,0.00,0.00,3.02,-1.99,0.00,10.82,-7.14,12.95,-5.61,0.00,1.26,0.43,69.73,1195,1216,1221,1190,1208,1500,1505,11670,820
212499,1,3.65,2.78,-3.25,-0.114,0.072,1.023,-2.81,1.24,0.00,0.00,2.81,-1.24,0.00,10.10,-4.54,6.46,-7.32,0.00,-1.17,-1.23,41.42,1195,1216,1221,1190,1208,1500,1505,11649,820
212511,1,7.63,4.13,-4.08,0.034,-0.114,0.900,-3.01,1.88,0.00,0.00,3.01,-1.88,0.00,10.84,-6.79,3.21,-10.92,0.00,-3.07,-1.70,81.95,1195,1216,1221,1190,1208,1500,1505,11653,820
212522,1,6.54,7.74,-4.26,0.127,-0.161,0.836,-3.78,2.46,0.00,0.00,3.78,-2.46,0.00,13.55,-8.84,7.01,-16.58,0.00,-3.13,-4.26,74.34,1195,1216,1221,1190,1208,1500,1505,11645,820
212534,1,-3.48,5.00,-5.89,0.248,-0.263,0.743,-3.21,1.49,0.00,0.00,3.21,-1.49,0.00,11.60,-5.46,15.08,-10.46,0.00,1.53,-2.03,92.33,1195,1216,1221,1190,1208,1500,1505,11645,820
212546,1,-10.75,-13.88,-3.46,0.089,-0.270,0.702,-3.55,3.31,0.00,0.00,3.55,-3.31,0.00,12.80,-11.86,23.55,2.02,0.00,5.61,5.81,43.02,1195,1216,1221,1190,1210,1500,1504,11670,820
212559,1,-4.61,4.67,-3.15,-0.275,0.194,0.980,-2.94,1.97,0.00,0.00,2.94,-1.97,0.00,10.70,-7.19,15.31,-11.86,0.00,3.04,-2.86,3.96,1199,1217,1222,1199,1210,1500,1504,11653,824
212571,1,8.69,3.18,-3.21,0.161,0.185,0.784,-2.84,2.60,0.00,0.00,2.84,-2.60,0.00,10.38,-9.42,1.70,-12.60,0.00,-3.53,-1.10,45.52,1199,1217,1222,1199,1210,1500,1505,11657,824
212582,1,7.80,2.55,-3.32,0.118,0.024,0.942,-2.92,1.86,0.00,0.00,2.92,-1.86,0.00,10.71,-6.85,2.90,-9.41,0.00,-3.16,-1.84,51.53,1199,1217,1222,1199,1210,1500,1505,11666,824
212594,1,3.73,-2.72,-5.99,-0.218,-0.138,1.035,-1.73,-0.85,0.00,0.00,1.73,0.85,0.00,6.53,2.63,2.80,5.36,0.00,-1.20,0.96,94.49,1199,1217,1222,1199,1210,1499,1506,11670,824
212606,1,-2.31,-3.20,-6.10,0.008,-0.143,0.847,-1.08,-0.07,0.00,0.00,1.08,0.07,0.00,4.29,-0.10,6.60,3.11,0.00,1.83,2.23,75.34,1199,1217,1222,1199,1216,1500,1505,11670,824
212619,1,-1.95,2.27,-4.61,-0.096,-0.147,0.961,-1.81,1.72,0.00,0.00,1.81,-1.72,0.00,6.84,-6.38,8.79,-8.65,0.00,1.33,-1.09,-2.27,1199,1217,1222,1199,1216,1500,1505,11657,824
212631,1,-3.07,7.90,-4.67,-0.060,0.027,0.911,-1.50,0.65,0.00,0.00,1.50,-0.65,0.00,5.77,-2.65,8.84,-10.55,0.00,1.65,-3.53,40.57,1199,1217,1222,1199,1216,1500,1505,11662,824
212642,1,-0.23,0.92,-4.24,0.090,-0.013,0.821,-1.29,0.78,0.00,0.00,1.29,-0.78,0.00,5.06,-3.10,5.28,-4.02,0.00,0.41,0.14,41.40,1199,1217,1222,1199,1216,1500,1505,11678,824
212654,1,5.64,-2.27,-3.01,0.047,-0.122,0.957,-2.50,1.09,0.00,0.00,2.50,-1.09,0.00,9.33,-4.20,3.70,-1.93,0.00,-2.22,1.24,27.92,1188,1242,1243,1189,1216,1500,1505,11678,820
212666,1,4.67,2.29,-3.67,-0.012,-0.294,0.882,-3.61,0.75,0.00,0.00,3.61,-0.75,0.00,13.24,-3.00,8.57,-5.29,0.00,-1.89,-1.23,46.63,1188,1242,1243,1189,1217,1500,1504,11674,820
212679,1,-8.52,-3.09,-6.20,0.187,-0.237,0.607,-3.23,1.07,0.00,0.00,3.23,-1.07,0.00,11.91,-4.15,20.43,-1.06,0.00,4.64,1.05,55.09,1188,1242,1243,1189,1217,1500,1504,11653,820
212691,1,-9.23,-1.42,-7.24,-0.063,0.047,0.958,-2.81,0.45,0.00,0.00,2.81,-0.45,0.00,10.48,-1.97,19.71,-0.56,0.00,5.29,0.97,62.75,1188,1242,1243,1189,1219,1501,1503,11653,820
212702,1,4.26,-4.26,-8.02,0.173,0.200,0.990,-2.44,4.86,0.00,0.00,2.44,-4.86,0.00,9.23,-17.46,4.96,-13.20,0.00,-1.16,0.95,60.43,1188,1242,1243,1189,1219,1501,1503,11674,820
212714,1,8.15,9.01,-6.63,-0.126,0.040,0.979,-2.95,4.33,0.00,0.00,2.95,-4.33,0.00,11.06,-15.65,2.91,-24.66,0.00,-3.73,-6.71,59.10,1188,1242,1243,1189,1220,1500,1505,11653,820
212726,1,2.39,-5.04,-8.43,0.307,-0.020,0.515,-2.03,4.29,0.00,0.00,2.03,-4.29,0.00,7.85,-15.54,5.46,-10.50,0.00,-1.17,1.93,93.40,1188,1242,1243,1189,1220,1500,1505,11649,820
212739,1,-1.18,-10.69,-5.62,-0.033,-0.263,0.817,-2.36,3.73,0.00,0.00,2.36,-3.73,0.00,9.02,-13.62,10.20,-2.93,0.00,1.05,4.13,1.48,1188,1242,1243,1189,1220,1500,1505,11637,820
212751,1,0.50,4.07,-3.63,-0.464,-0.280,1.201,-2.97,2.18,0.00,0.00,2.97,-2.18,0.00,11.17,-8.24,10.68,-12.30,0.00,0.62,-2.82,6.42,1223,1228,1225,1227,1227,1500,1505,11653,819
212762,1,1.92,6.33,-4.47,-0.055,-0.092,0.824,-2.08,1.13,0.00,0.00,2.08,-1.13,0.00,8.08,-4.56,6.16,-10.89,0.00,0.05,-2.85,28.55,1223,1228,1225,1227,1227,1500,1505,11641,819
212774,1,-3.76,-2.15,-4.17,0.137,-0.064,0.754,-2.10,3.61,0.00,0.00,2.10,-3.61,0.00,8.17,-13.27,11.93,-11.12,0.00,3.01,-0.20,0.17,1223,1228,1225,1227,1227,1500,1505,11645,819
212787,1,1.77,-1.05,-5.34,0.144,0.176,1.057,-1.47,3.64,0.00,0.00,1.47,-3.64,0.00,5.98,-13.40,4.22,-12.35,0.00,0.46,-0.79,30.81,1223,1228,1225,1227,1227,1500,1505,11653,819
212799,1,7.56,4.07,-5.37,0.263,-0.048,0.907,-1.65,3.64,0.00,0.00,1.65,-3.64,0.00,6.64,-13.42,-0.91,-17.50,0.00,-2.95,-2.33,54.79,1223,1228,1225,1227,1227,1500,1505,11678,819
212811,1,-0.84,4.89,-4.53,-0.060,-0.293,0.893,-2.69,2.03,0.00,0.00,2.69,-2.03,0.00,10.28,-7.81,11.11,-12.70,0.00,0.10,-3.21,3.34,1223,1228,1225,1227,1227,1500,1505,11674,819
212822,1,-14.84,-1.65,-7.48,0.090,-0.120,0.766,-1.17,-0.36,0.00,0.00,1.17,0.36,0.00,4.98,0.56,19.83,2.20,0.00,6.42,2.91,53.03,1223,1228,1225,1227,1227,1500,1505,11657,819
212834,1,-11.29,-10.14,-6.63,-0.089,0.034,0.909,-1.04,1.25,0.00,0.00,1.04,-1.25,0.00,4.55,-5.11,15.84,5.03,0.00,5.37,6.67,28.74,1223,1228,1225,1227,1237,1500,1505,11653,819
212846,1,-3.60,-2.94,-5.55,-0.296,0.375,1.006,-1.69,2.48,0.00,0.00,1.69,-2.48,0.00,6.86,-9.44,10.46,-6.50,0.00,2.42,1.01,12.09,1223,1228,1225,1227,1237,1500,1505,11674,819
212859,1,4.41,1.50,-5.42,-0.049,0.466,0.831,-1.18,1.51,0.00,0.00,1.18,-1.51,0.00,5.10,-6.08,0.68,-7.58,0.00,-1.31,-1.85,56.17,1187,1281,1293,1186,1237,1500,1505,11666,825
212871,1,7.47,4.70,-5.41,0.066,0.190,1.037,-1.74,-0.37,0.00,0.00,1.74,0.37,0.00,7.07,0.52,-0.40,-4.18,0.00,-2.79,-2.59,11.10,1187,1281,1293,1186,1237,1500,1505,11662,825
212883,1,9.72,-13.24,-5.54,0.119,0.092,0.836,-1.65,1.49,0.00,0.00,1.65,-1.49,0.00,6.78,-6.02,-2.94,7.22,0.00,-3.66,5.83,18.03,1187,1281,1293,1186,1237,1500,1505,11628,825
212894,1,5.91,-3.56,-4.22,-0.325,-0.175,1.012,-2.55,0.38,0.00,0.00,2.55,-0.38,0.00,9.93,-2.14,4.02,1.41,0.00,-1.73,1.05,48.83,1187,1281,1293,1186,1237,1500,1504,11616,825
212906,1,1.92,6.19,-2.76,-0.324,-0.168,1.084,-2.60,0.14,0.00,0.00,2.60,-0.14,0.00,10.12,-1.32,8.21,-7.51,0.00,-0.18,-3.00,30.81,1187,1281,1293,1186,1237,1500,1504,11595,825
212919,1,0.50,8.68,-1.87,-0.148,-0.185,0.996,-2.32,0.40,0.00,0.00,2.32,-0.40,0.00,9.18,-2.23,8.68,-10.91,0.00,0.05,-3.25,10.15,1187,1281,1293,1186,1237,1500,1504,11603,825
212931,1,-4.45,1.03,-3.61,-0.042,-0.155,0.794,-2.09,1.88,0.00,0.00,2.09,-1.88,0.00,8.38,-7.42,12.83,-8.45,0.00,2.28,-0.66,69.46,1187,1281,1293,1186,1237,1500,1504,11620,825
212942,1,-3.30,3.92,-3.62,-0.323,0.071,1.041,-1.83,0.72,0.00,0.00,1.83,-0.72,0.00,7.51,-3.37,10.81,-7.29,0.00,1.90,-2.10,65.47,1187,1281,1293,1186,1237,1500,1504,11607,825
212954,1,0.03,3.92,-5.17,0.057,0.138,0.838,-1.34,2.81,0.00,0.00,1.34,-2.81,0.00,5.81,-10.72,5.78,-14.64,0.00,0.50,-1.80,92.53,1162,1318,1315,1161,1240,1499,1506,11591,824
212966,1,6.78,5.00,-3.94,0.112,0.050,0.828,-2.87,4.74,0.00,0.00,2.87,-4.74,0.00,11.20,-17.51,4.42,-22.51,0.00,-2.88,-3.84,61.75,1162,1318,1315,1161,1240,1500,1505,11607,824
212979,1,11.08,8.91,-2.59,0.081,-0.071,0.827,-4.16,2.70,0.00,0.00,4.16,-2.70,0.00,15.73,-10.39,4.66,-19.30,0.00,-5.35,-5.70,25.96,1162,1318,1315,1161,1240,1500,1505,11591,824
212991,1,10.12,13.52,-2.37,-0.194,-0.214,0.990,-3.35,-2.29,0.00,0.00,3.35,2.29,0.00,12.91,7.08,2.79,-6.44,0.00,-4.93,-5.15,-7.16,1162,1318,1315,1161,1241,1501,1503,11599,824
213002,1,1.64,-5.90,-3.62,0.123,-0.397,0.763,-2.21,-3.33,0.00,0.00,2.21,3.33,0.00,8.96,10.77,7.32,16.68,0.00,-0.15,5.42,24.41,1162,1318,1315,1161,1241,1501,1503,11599,824
213014,1,-5.55,-10.18,-4.36,0.158,-0.435,0.762,-1.24,0.18,0.00,0.00,1.24,-0.18,0.00,5.56,-1.51,11.12,8.67,0.00,3.71,5.41,38.85,1162,1318,1315,1161,1242,1502,1503,11616,824
213026,1,-6.22,0.14,-4.60,-0.091,-0.210,1.007,-1.33,2.84,0.00,0.00,1.33,-2.84,0.00,5.90,-10.86,12.12,-11.00,0.00,4.28,-2.25,37.38,1162,1318,1315,1161,1242,1500,1505,11616,824
213039,1,-5.31,0.69,-5.51,0.080,-0.160,0.861,-1.35,4.22,0.00,0.00,1.35,-4.22,0.00,5.97,-15.71,11.28,-16.40,0.00,3.41,-2.04,79.08,1162,1318,1315,1161,1242,1500,1505,11620,824
213051,1,-9.78,4.92,-6.23,-0.024,-0.016,0.906,-1.74,4.12,0.00,0.00,1.74,-4.12,0.00,7.35,-15.42,17.12,-20.34,0.00,5.05,-4.11,86.58,1157,1331,1333,1170,1249,1500,1504,11632,820
213062,1,-6.56,0.96,-7.01,-0.008,0.196,0.814,-1.36,1.77,0.00,0.00,1.36,-1.77,0.00,6.03,-7.20,12.59,-8.16,0.00,2.74,-0.31,90.79,1157,1331,1333,1170,1249,1500,1504,11649,820
213074,1,-1.82,1.33,-5.95,-0.100,0.171,0.964,-1.59,0.43,0.00,0.00,1.59,-0.43,0.00,6.86,-2.53,8.69,-3.86,0.00,0.61,0.10,59.33,1157,1331,1333,1170,1257,1500,1505,11637,820
213087,1,4.79,2.18,-4.12,-0.015,0.298,0.898,-1.35,0.84,0.00,0.00,1.35,-0.84,0.00,6.05,-3.99,1.26,-6.16,0.00,-1.90,-0.98,36.97,1157,1331,1333,1170,1257,1500,1505,11607,820
213099,1,13.70,5.00,-1.02,0.173,0.140,0.833,-1.14,-0.23,0.00,0.00,1.14,0.23,0.00,5.32,-0.20,-8.38,-5.21,0.00,-5.83,-2.07,-37.51,1157,1331,1333,1170,1257,1500,1505,11591,820
213111,1,12.41,3.72,-0.48,0.193,-0.301,0.918,-1.73,-1.00,0.00,0.00,1.73,1.00,0.00,7.39,2.50,-5.02,-1.22,0.00,-5.07,-1.62,5.18,1157,1331,1333,1170,1261,1500,1505,11570,820
213122,1,0.54,-9.58,-0.88,0.364,-0.492,0.656,-2.43,0.87,0.00,0.00,2.43,-0.87,0.00,9.86,-4.04,9.32,5.54,0.00,0.89,4.63,31.17,1157,1331,1333,1170,1261,1500,1505,11582,820
213134,1,-4.82,-4.69,-0.44,0.005,-0.482,0.897,-2.52,2.04,0.00,0.00,2.52,-2.04,0.00,10.19,-8.17,15.01,-3.48,0.00,3.60,1.62,51.53,1157,1331,1333,1170,1262,1501,1503,11582,820
213146,1,-10.59,-7.88,-0.30,0.098,-0.299,0.803,-2.67,5.93,0.00,0.00,2.67,-5.93,0.00,10.73,-21.85,21.32,-13.98,0.00,6.33,1.76,53.76,1157,1331,1333,1170,1262,1500,1505,11578,820
213159,1,-10.23,7.91,-0.26,-0.125,-0.068,0.881,-3.11,5.51,0.00,0.00,3.11,-5.51,0.00,12.30,-20.42,22.53,-28.33,0.00,5.74,-6.15,8.67,1247,1274,1282,1243,1262,1500,1505,11549,823
213171,1,-9.94,1.61,-2.54,0.147,0.046,0.684,-2.76,4.81,0.00,0.00,2.76,-4.81,0.00,11.11,-18.00,21.05,-19.62,0.00,4.60,-1.83,78.91,1247,1274,1282,1243,1262,1500,1505,11562,823
213182,1,-5.32,1.92,-3.81,-0.045,0.140,0.900,-2.65,2.97,0.00,0.00,2.65,-2.97,0.00,10.78,-11.63,16.10,-13.55,0.00,1.90,-1.03,81.15,1247,1274,1282,1243,1262,1500,1505,11570,823
213195,1,-3.12,0.52,-5.20,-0.084,0.216,0.838,-1.73,1.22,0.00,0.00,1.73,-1.22,0.00,7.57,-5.51,10.69,-6.03,0.00,0.98,0.53,78.10,1247,1274,1282,1243,1262,1502,1503,11562,823
213206,1,-4.79,-0.46,-6.15,-0.283,0.229,0.857,-0.99,0.73,0.00,0.00,0.99,-0.73,0.00,5.01,-3.82,9.80,-3.37,0.00,2.21,0.75,78.70,1247,1274,1282,1243,1263,1500,1504,11562,823
213219,1,-3.76,5.76,-5.90,-0.445,0.248,1.039,-1.43,-0.09,0.00,0.00,1.43,0.09,0.00,6.56,-0.97,10.32,-6.72,0.00,2.06,-2.09,90.50,1247,1274,1282,1243,1263,1500,1504,11557,823
213231,1,1.69,9.70,-5.01,-0.306,0.457,1.023,-1.70,0.22,0.00,0.00,1.70,-0.22,0.00,7.54,-2.05,5.85,-11.75,0.00,-0.16,-4.04,20.41,1247,1274,1282,1243,1263,1500,1505,11537,823
213242,1,10.44,9.08,-4.20,-0.155,0.551,0.949,-1.76,-0.47,0.00,0.00,1.76,0.47,0.00,7.78,0.38,-2.66,-8.71,0.00,-3.89,-4.07,7.89,1247,1274,1282,1243,1263,1500,1505,11532,823
213254,1,15.80,3.69,-3.15,0.037,0.489,0.784,-1.43,-1.09,0.00,0.00,1.43,1.09,0.00,6.65,2.56,-9.16,-1.14,0.00,-6.31,-2.54,26.64,1238,1286,1295,1231,1263,1501,1504,11516,833
213266,1,18.95,5.32,-3.41,-0.039,0.384,0.856,-0.46,-3.29,0.00,0.00,0.46,3.29,0.00,3.28,10.30,-15.67,4.98,0.00,-7.69,-2.62,37.06,1238,1286,1295,1231,1267,1500,1504,11520,833
213279,1,12.55,0.85,-3.65,0.004,0.071,0.879,-0.08,-4.58,0.00,0.00,0.08,4.58,0.00,1.96,14.84,-10.60,13.99,0.00,-4.74,0.84,47.23,1238,1286,1295,1231,1267,1500,1504,11549,833
213291,1,5.63,-1.80,-3.24,-0.124,-0.159,0.959,-0.55,-4.60,0.00,0.00,0.55,4.60,0.00,3.58,14.96,-2.05,16.76,0.00,-1.77,2.18,10.60,1238,1286,1295,1231,1275,1500,1504,11545,833
213302,1,5.19,4.08,-1.70,-0.215,-0.100,1.123,-0.92,-5.19,0.00,0.00,0.92,5.19,0.00,4.88,17.07,-0.31,12.99,0.00,-1.68,0.11,-2.21,1238,1286,1295,1231,1275,1500,1504,11528,833
213314,1,4.71,2.43,0.10,0.080,-0.095,0.881,-1.70,-2.61,0.00,0.00,1.70,2.61,0.00,7.61,8.08,2.89,5.66,0.00,-1.52,0.53,-18.09,1238,1286,1295,1231,1275,1502,1502,11532,833
213326,1,7.94,0.76,1.06,0.195,-0.022,0.738,-2.83,-0.03,0.00,0.00,2.83,0.03,0.00,11.59,-0.93,3.65,-1.69,0.00,-3.28,-0.23,-18.90,1238,1286,1295,1231,1276,1500,1504,11532,833
213339,1,5.47,-3.75,-0.24,0.083,-0.130,0.802,-3.09,-0.58,0.00,0.00,3.09,0.58,0.00,12.52,1.00,7.05,4.75,0.00,-2.55,1.75,61.90,1238,1286,1295,1231,1276,1500,1504,11545,833
213351,1,4.98,-2.02,-0.38,0.084,-0.342,0.799,-4.15,-0.71,0.00,0.00,4.15,0.71,0.00,16.28,1.46,11.30,3.48,0.00,-2.67,1.62,54.66,1223,1329,1329,1221,1276,1500,1504,11524,818
213362,1,-3.42,-6.90,-3.61,-0.139,-0.359,0.874,-3.66,-1.05,0.00,0.00,3.66,1.05,0.00,14.57,2.65,17.99,9.55,0.00,1.10,4.47,105.82,1223,1329,1329,1221,1276,1500,1504,11516,818
213374,1,-4.94,0.03,-4.78,-0.539,-0.354,1.049,-2.44,-3.69,0.00,0.00,2.44,3.69,0.00,10.34,11.92,15.28,11.88,0.00,1.76,2.17,128.38,1223,1329,1329,1221,1277,1501,1503,11532,818
213386,1,-7.59,3.33,-4.88,-0.444,-0.229,1.002,-1.00,-5.25,0.00,0.00,1.00,5.25,0.00,5.29,17.39,12.88,14.06,0.00,3.21,1.44,117.78,1223,1329,1329,1221,1278,1500,1504,11524,818
213399,1,-7.78,4.12,-4.81,-0.394,-0.115,1.055,-0.02,-5.98,0.00,0.00,0.02,5.98,0.00,1.87,20.00,9.66,15.88,0.00,3.29,1.38,80.77,1223,1329,1329,1221,1278,1500,1504,11516,818
213411,1,-5.82,-1.32,-3.09,-0.108,-0.012,0.887,0.44,-4.81,0.00,0.00,-0.44,4.81,0.00,0.24,15.96,6.06,17.29,0.00,2.74,3.15,19.96,1223,1329,1329,1221,1278,1500,1505,11516,818
213422,1,-3.75,-1.60,-1.56,0.136,0.109,0.806,1.29,-1.71,0.00,0.00,-1.29,1.71,0.00,-2.72,5.15,1.03,6.75,0.00,2.01,1.64,2.91,1223,1329,1329,1221,1278,1500,1505,11516,818
213434,1,-1.43,-3.64,-0.05,0.126,0.130,0.858,1.27,0.90,0.00,0.00,-1.27,-0.90,0.00,-2.66,-4.01,-1.23,-0.37,0.00,1.19,1.23,28.38,1223,1329,1329,1221,1279,1501,1503,11537,818
213446,1,-0.82,-4.50,-0.22,0.027,-0.016,0.958,0.64,-0.31,0.00,0.00,-0.64,0.31,0.00,-0.45,0.24,0.38,4.74,0.00,0.71,1.50,38.61,1223,1329,1329,1221,1280,1500,1504,11541,818
213459,1,-2.69,-2.25,-0.25,-0.054,-0.193,0.970,-0.43,-1.76,0.00,0.00,0.43,1.76,0.00,3.29,5.32,5.99,7.57,0.00,1.67,0.85,31.62,1246,1313,1314,1245,1280,1500,1504,11520,820
213471,1,-9.24,-4.21,-1.19,-0.063,-0.327,0.935,-1.06,-1.54,0.00,0.00,1.06,1.54,0.00,5.49,4.56,14.73,8.77,0.00,4.41,2.51,71.34,1246,1313,1314,1245,1279,1500,1505,11532,820
213482,1,-13.43,-4.79,-1.91,-0.081,-0.377,0.942,-1.77,-0.07,0.00,0.00,1.77,0.07,0.00,7.99,-0.60,21.42,4.19,0.00,6.43,3.01,78.37,1246,1313,1314,1245,1279,1500,1505,11516,820
213494,1,-17.93,-5.63,-2.63,-0.113,-0.302,0.969,-2.13,1.95,0.00,0.00,2.13,-1.95,0.00,9.28,-7.68,27.21,-2.05,0.00,8.75,2.72,57.16,1246,1313,1314,1245,1279,1500,1504,11520,820
213506,1,-17.45,-4.66,-2.63,0.023,-0.206,0.894,-2.40,4.98,0.00,0.00,2.40,-4.98,0.00,10.23,-18.35,27.68,-13.68,0.00,8.54,0.76,52.06,1246,1313,1314,1245,1279,1501,1504,11508,820
213519,1,-16.19,-0.17,-2.57,-0.039,-0.123,0.885,-1.88,7.03,0.00,0.00,1.88,-7.03,0.00,8.45,-25.57,24.64,-25.40,0.00,8.30,-2.01,55.36,1246,1313,1314,1245,1279,1501,1504,11483,820
213531,1,-13.45,11.42,-1.65,-0.292,-0.049,1.106,-1.49,4.80,0.00,0.00,1.49,-4.80,0.00,7.11,-17.84,20.57,-29.26,0.00,7.02,-6.20,30.86,1246,1313,1314,1245,1279,1500,1504,11499,820
213542,1,-11.11,6.30,-0.64,-0.124,-0.052,1.041,-1.19,1.85,0.00,0.00,1.19,-1.85,0.00,6.08,-7.54,17.19,-13.84,0.00,5.23,-2.11,12.18,1246,1313,1314,1245,1279,1500,1504,11528,820
213554,1,-4.45,9.12,0.08,-0.005,-0.004,0.862,-0.86,-0.77,0.00,0.00,0.86,0.77,0.00,4.94,1.66,9.39,-7.46,0.00,1.77,-1.95,32.11,1230,1328,1323,1233,1279,1500,1505,11516,820
213566,1,-2.15,4.33,0.56,0.141,-0.130,0.663,-1.21,-0.93,0.00,0.00,1.21,0.93,0.00,6.16,2.21,8.31,-2.12,0.00,0.65,0.82,26.20,1230,1328,1323,1233,1279,1500,1505,11520,820
213579,1,-4.09,2.41,-0.39,0.145,-0.299,0.714,-2.04,-0.54,0.00,0.00,2.04,0.54,0.00,9.09,0.86,13.18,-1.56,0.00,1.20,1.26,20.63,1230,1328,1323,1233,1279,1500,1505,11516,820
213591,1,-4.76,-4.37,-1.08,0.035,-0.369,0.836,-2.76,1.29,0.00,0.00,2.76,-1.29,0.00,11.62,-5.55,16.38,-1.17,0.00,1.61,2.38,59.73,1230,1328,1323,1233,1279,1500,1505,11499,820
213603,1,-6.86,0.59,-1.38,-0.182,-0.189,0.835,-2.56,2.18,0.00,0.00,2.56,-2.18,0.00,10.94,-8.69,17.80,-9.28,0.00,2.94,-1.31,66.05,1230,1328,1323,1233,1279,1500,1505,11495,820
213614,1,-8.52,12.40,-1.10,-0.470,-0.006,1.146,-1.90,1.64,0.00,0.00,1.90,-1.64,0.00,8.65,-6.82,17.18,-19.22,0.00,4.14,-6.17,42.59,1230,1328,1323,1233,1279,1500,1505,11495,820
213626,1,-9.89,11.09,-0.95,-0.299,0.228,1.032,-0.89,3.14,0.00,0.00,0.89,-3.14,0.00,5.14,-12.10,15.03,-23.19,0.00,5.04,-5.06,43.24,1230,1328,1323,1233,1279,1500,1505,11478,820
213639,1,-6.92,9.33,-0.71,0.002,0.430,0.864,-0.43,6.14,0.00,0.00,0.43,-6.14,0.00,3.57,-22.67,10.49,-32.00,0.00,3.53,-4.59,44.41,1230,1328,1323,1233,1279,1500,1505,11478,820
213651,1,-2.41,6.06,-0.40,0.154,0.617,0.821,-0.68,8.85,0.00,0.00,0.68,-8.85,0.00,4.46,-32.24,6.87,-38.30,0.00,1.23,-4.16,23.70,1249,1308,1303,1254,1279,1500,1505,11491,833
213662,1,0.97,-0.55,-0.34,0.304,0.681,0.659,-0.72,11.60,0.00,0.00,0.72,-11.60,0.00,4.62,-41.96,3.65,-41.41,0.00,-0.67,-2.26,17.99,1249,1308,1303,1254,1279,1500,1505,11474,833
213674,1,2.09,1.06,-0.69,-0.052,0.651,0.885,-0.66,10.09,0.00,0.00,0.66,-10.09,0.00,4.44,-36.75,2.35,-37.82,0.00,-1.52,-3.47,22.39,1249,1308,1303,1254,1279,1501,1504,11478,833
213686,1,-1.17,4.20,-0.48,-0.262,0.414,1.004,-0.86,5.26,0.00,0.00,0.86,-5.26,0.00,5.14,-19.92,6.31,-24.12,0.00,-0.72,-3.38,16.60,1249,1308,1303,1254,1279,1500,1505,11483,833
213699,1,-3.13,2.93,-0.63,-0.247,0.272,1.092,-0.93,1.05,0.00,0.00,0.93,-1.05,0.00,5.40,-5.21,8.53,-8.14,0.00,-0.37,-0.80,27.48,1249,1308,1303,1254,1279,1500,1505,11503,833
213711,1,-4.59,0.49,-0.52,-0.220,0.178,1.093,-1.83,-0.70,0.00,0.00,1.83,0.70,0.00,8.59,0.89,13.18,0.40,0.00,1.05,0.83,58.72,1249,1308,1303,1254,1279,1499,1506,11503,833
213722,1,-8.85,-3.25,-0.28,-0.109,0.202,0.956,-1.53,-0.26,0.00,0.00,1.53,0.26,0.00,7.57,-0.63,16.42,2.62,0.00,3.15,2.10,61.84,1249,1308,1303,1254,1279,1499,1506,11495,833
213734,1,-10.84,-2.13,-0.09,0.022,0.281,0.921,-1.21,2.16,0.00,0.00,1.21,-2.16,0.00,6.48,-9.12,17.31,-6.99,0.00,4.09,0.14,68.51,1249,1308,1303,1254,1279,1500,1504,11495,833
213746,1,-10.22,2.41,-0.43,0.058,0.355,0.922,-0.69,3.03,0.00,0.00,0.69,-3.03,0.00,4.67,-12.18,14.89,-14.59,0.00,3.41,-2.74,78.77,1249,1308,1303,1254,1279,1500,1504,11499,833
213759,1,-6.50,1.21,0.80,0.180,0.333,0.890,-1.11,2.55,0.00,0.00,1.11,-2.55,0.00,6.15,-10.52,12.66,-11.73,0.00,0.84,-2.41,27.43,1236,1312,1319,1248,1279,1500,1504,11503,819
213771,1,-3.36,-8.22,2.21,0.504,0.199,0.681,-1.49,4.01,0.00,0.00,1.49,-4.01,0.00,7.51,-15.66,10.86,-7.44,0.00,-1.57,0.98,37.70,1236,1312,1319,1248,1279,1500,1505,11503,819
213782,1,-1.33,-11.07,3.38,0.596,-0.051,0.546,-2.91,5.89,0.00,0.00,2.91,-5.89,0.00,12.47,-22.27,13.81,-11.20,0.00,-3.54,0.74,22.76,1236,1312,1319,1248,1279,1500,1505,11516,819
213794,1,3.17,-6.09,4.57,0.552,-0.191,0.629,-3.84,6.57,0.00,0.00,3.84,-6.57,0.00,15.78,-24.69,12.60,-18.61,0.00,-5.93,-1.26,18.16,1236,1312,1319,1248,1279,1505,1500,11516,819
213807,1,3.01,9.03,6.64,0.029,0.096,0.869,-1.53,5.61,0.00,0.00,1.53,-5.61,0.00,7.69,-21.39,4.68,-30.42,0.00,-5.72,-7.03,-6.08,1236,1312,1319,1248,1279,1501,1504,11503,819
213819,1,-3.01,4.34,5.61,-0.051,-0.307,0.787,-1.01,2.70,0.00,0.00,1.01,-2.70,0.00,5.88,-11.25,8.89,-15.58,0.00,-3.29,-2.16,13.99,1236,1312,1319,1248,1279,1501,1504,11478,819
213831,1,0.11,-3.45,7.19,0.034,-0.166,0.858,-1.88,2.96,0.00,0.00,1.88,-2.96,0.00,8.94,-12.17,8.83,-8.72,0.00,-3.61,1.15,-26.02,1236,1312,1319,1248,1279,1500,1504,11470,819
213842,1,-3.12,-7.36,5.73,0.141,-0.115,0.751,-3.07,6.64,0.00,0.00,3.07,-6.64,0.00,13.10,-25.13,16.22,-17.77,0.00,-1.61,0.97,12.41,1236,1312,1319,1248,1279,1500,1504,11478,819
213854,1,-4.91,-2.20,4.62,0.023,0.092,0.778,-2.97,8.15,0.00,0.00,2.97,-8.15,0.00,12.80,-30.47,17.72,-28.27,0.00,-0.51,-2.96,70.20,1233,1323,1325,1233,1279,1500,1505,11478,824
213866,1,-3.35,-0.70,4.02,0.178,0.227,0.775,-2.73,9.48,0.00,0.00,2.73,-9.48,0.00,11.96,-35.22,15.31,-34.53,0.00,-1.19,-4.02,74.99,1233,1323,1325,1233,1279,1500,1504,11491,824
213879,1,2.28,7.17,4.21,0.185,0.353,0.850,-2.72,8.85,0.00,0.00,2.72,-8.85,0.00,11.97,-33.11,9.69,-40.27,0.00,-3.73,-7.08,30.57,1233,1323,1325,1233,1279,1500,1504,11516,824
213891,1,6.87,6.62,4.11,0.235,0.383,0.708,-2.26,8.11,0.00,0.00,2.26,-8.11,0.00,10.38,-30.58,3.51,-37.20,0.00,-5.49,-5.18,19.31,1233,1323,1325,1233,1279,1500,1504,11512,824
213902,1,7.90,7.27,4.77,0.149,0.419,0.754,-1.12,5.52,0.00,0.00,1.12,-5.52,0.00,6.43,-21.55,-1.48,-28.82,0.00,-5.86,-3.79,2.24,1233,1323,1325,1233,1279,1500,1504,11499,824
213914,1,7.55,-0.54,4.93,0.118,0.210,0.806,-0.88,3.29,0.00,0.00,0.88,-3.29,0.00,5.59,-13.79,-1.95,-13.25,0.00,-5.78,1.14,32.07,1233,1323,1325,1233,1278,1500,1505,11487,824
213926,1,7.27,1.56,5.03,0.063,0.135,0.898,-0.73,0.76,0.00,0.00,0.73,-0.76,0.00,5.08,-4.96,-2.19,-6.52,0.00,-5.54,0.45,32.94,1233,1323,1325,1233,1279,1500,1504,11503,824
213939,1,-0.38,-1.89,5.30,0.123,-0.040,0.791,-0.51,0.20,0.00,0.00,0.51,-0.20,0.00,4.29,-2.99,4.67,-1.10,0.00,-2.20,1.93,-0.56,1233,1323,1325,1233,1279,1500,1504,11491,824
213951,1,-4.02,1.40,6.89,0.096,-0.059,0.923,0.19,0.59,0.00,0.00,-0.19,-0.59,0.00,1.84,-4.36,5.86,-5.76,0.00,-0.81,0.51,1.64,1272,1284,1284,1274,1279,1500,1504,11491,818
213962,1,-5.02,-0.61,8.72,0.015,-0.057,0.935,0.34,1.75,0.00,0.00,-0.34,-1.75,0.00,1.30,-8.44,6.32,-7.83,0.00,-0.07,1.35,-12.65,1272,1284,1284,1274,1279,1500,1504,11516,818
213974,1,-7.92,-2.82,8.53,0.169,-0.025,0.747,0.44,4.27,0.00,0.00,-0.44,-4.27,0.00,0.97,-17.29,8.89,-14.47,0.00,1.72,1.81,9.86,1272,1284,1284,1274,1279,1500,1505,11503,818
213986,1,-7.51,0.64,6.71,-0.095,0.026,1.094,0.04,3.86,0.00,0.00,-0.04,-3.86,0.00,2.34,-15.92,9.86,-16.56,0.00,1.76,-0.64,52.88,1272,1284,1284,1274,1279,1500,1505,11512,818
213999,1,-8.01,-3.12,5.23,-0.019,0.206,0.919,0.28,2.49,0.00,0.00,-0.28,-2.49,0.00,1.52,-11.14,9.53,-8.03,0.00,2.26,0.56,54.32,1272,1284,1284,1274,1279,1500,1505,11503,818
214011,1,-8.83,0.71,4.36,0.061,0.297,0.830,1.00,0.12,0.00,0.00,-1.00,-0.12,0.00,-1.01,-2.82,7.82,-3.53,0.00,2.40,-1.53,85.60,1272,1284,1284,1274,1279,1500,1505,11516,818
214022,1,-7.29,-1.87,5.77,0.357,0.189,0.703,0.15,0.69,0.00,0.00,-0.15,-0.69,0.00,1.99,-4.82,9.28,-2.95,0.00,0.87,-0.98,45.61,1272,1284,1284,1274,1279,1500,1505,11499,818
214034,1,1.13,-7.26,6.55,0.588,0.321,0.616,0.17,2.37,0.00,0.00,-0.17,-2.37,0.00,1.93,-10.72,0.79,-3.45,0.00,-3.57,1.18,29.32,1272,1284,1284,1274,1280,1500,1505,11495,818
214046,1,3.56,-4.93,7.19,0.595,0.164,0.536,-0.34,4.46,0.00,0.00,0.34,-4.46,0.00,3.71,-18.03,0.15,-13.11,0.00,-4.08,-0.58,15.95,1272,1284,1284,1274,1279,1500,1505,11499,818
214059,1,6.48,-3.90,7.49,0.550,0.153,0.564,-0.58,5.97,0.00,0.00,0.58,-5.97,0.00,4.57,-23.35,-1.92,-19.45,0.00,-5.11,-1.17,1.90,1254,1299,1299,1262,1279,1500,1505,11483,820
214071,1,5.48,-2.06,8.25,0.372,-0.042,0.726,-1.65,6.36,0.00,0.00,1.65,-6.36,0.00,8.32,-24.79,2.85,-22.73,0.00,-4.19,-2.02,8.33,1254,1299,1299,1262,1279,1500,1505,11478,820
214082,1,3.63,3.27,7.40,0.132,-0.156,0.843,-2.06,5.06,0.00,0.00,2.06,-5.06,0.00,9.77,-20.29,6.14,-23.56,0.00,-3.55,-3.61,28.84,1254,1299,1299,1262,1279,1500,1505,11474,820
214094,1,1.36,4.77,7.93,0.061,-0.241,0.878,-2.56,4.00,0.00,0.00,2.56,-4.00,0.00,11.54,-16.61,10.18,-21.38,0.00,-2.38,-3.31,9.10,1254,1299,1299,1262,1280,1500,1505,11478,820
214106,1,-0.67,9.59,6.93,-0.106,-0.335,0.940,-2.52,2.92,0.00,0.00,2.52,-2.92,0.00,11.41,-12.87,12.09,-22.45,0.00,-1.44,-4.38,31.83,1254,1299,1299,1262,1279,1500,1505,11503,820
214119,1,-2.33,15.25,7.54,-0.299,-0.236,1.051,-2.14,0.86,0.00,0.00,2.14,-0.86,0.00,10.09,-5.69,12.42,-20.94,0.00,-0.55,-5.40,41.09,1254,1299,1299,1262,1279,1500,1505,11516,820
214131,1,-5.90,14.64,7.68,-0.374,-0.187,1.107,-1.85,-0.10,0.00,0.00,1.85,0.10,0.00,9.09,-2.33,14.99,-16.97,0.00,1.13,-4.19,35.38,1254,1299,1299,1262,1279,1500,1505,11491,820
214142,1,-5.45,10.27,7.94,-0.178,-0.006,0.988,-1.43,0.36,0.00,0.00,1.43,-0.36,0.00,7.62,-3.92,13.07,-14.20,0.00,1.12,-2.50,36.45,1254,1299,1299,1262,1279,1500,1505,11503,820
214154,1,-5.54,6.75,8.52,-0.124,0.146,0.891,-1.56,1.08,0.00,0.00,1.56,-1.08,0.00,8.11,-6.45,13.65,-13.19,0.00,1.14,-2.16,21.07,1249,1309,1315,1244,1280,1500,1505,11499,832
214166,1,-3.58,3.21,8.48,0.091,0.293,0.867,-1.79,1.18,0.00,0.00,1.79,-1.18,0.00,8.94,-6.81,12.52,-10.02,0.00,-0.19,-1.63,25.84,1249,1309,1315,1244,1280,1500,1505,11503,832
214179,1,-0.72,-2.57,9.78,0.258,0.371,0.749,-2.57,3.05,0.00,0.00,2.57,-3.05,0.00,11.69,-13.37,12.41,-10.81,0.00,-1.91,-0.95,30.75,1249,1309,1315,1244,1280,1500,1505,11499,832
214191,1,1.92,-4.68,9.76,0.418,0.440,0.585,-2.25,5.23,0.00,0.00,2.25,-5.23,0.00,10.61,-21.02,8.68,-16.34,0.00,-3.80,-1.57,15.40,1249,1309,1315,1244,1280,1500,1505,11499,832
214202,1,5.36,-0.24,10.22,0.214,0.348,0.803,-2.82,5.77,0.00,0.00,2.82,-5.77,0.00,12.63,-22.98,7.27,-22.74,0.00,-5.94,-4.25,4.31,1249,1309,1315,1244,1280,1500,1505,11508,832
214215,1,7.29,7.64,10.09,0.037,0.300,0.960,-3.09,3.90,0.00,0.00,3.09,-3.90,0.00,13.62,-16.47,6.33,-24.11,0.00,-6.68,-5.94,0.91,1249,1309,1315,1244,1280,1500,1506,11508,832
214226,1,5.26,8.54,8.90,0.005,0.226,0.871,-2.70,1.87,0.00,0.00,2.70,-1.87,0.00,12.27,-9.40,7.01,-17.93,0.00,-5.45,-4.01,23.77,1249,1309,1315,1244,1280,1500,1504,11512,832
214239,1,0.17,5.07,9.14,-0.024,0.225,0.909,-1.68,0.73,0.00,0.00,1.68,-0.73,0.00,8.72,-5.39,8.55,-10.46,0.00,-2.85,-1.41,10.73,1249,1309,1315,1244,1280,1500,1504,11532,832
214251,1,-4.24,-2.90,8.40,-0.077,0.113,0.951,-1.68,1.03,0.00,0.00,1.68,-1.03,0.00,8.72,-6.48,12.95,-3.58,0.00,-0.85,1.87,36.11,1244,1313,1315,1243,1279,1500,1504,11524,818
214262,1,-5.91,-4.74,8.76,-0.103,0.081,0.998,-1.86,1.51,0.00,0.00,1.86,-1.51,0.00,9.37,-8.15,15.28,-3.41,0.00,0.13,1.38,30.66,1244,1313,1315,1243,1279,1500,1504,11512,818
214274,1,-0.16,-7.40,7.79,-0.066,0.137,1.039,-2.64,2.16,0.00,0.00,2.64,-2.16,0.00,12.14,-10.45,12.30,-3.05,0.00,-1.30,0.94,69.56,1244,1313,1315,1243,1279,1500,1505,11503,818
214286,1,4.15,-6.52,7.33,0.139,0.223,0.887,-2.53,3.07,0.00,0.00,2.53,-3.07,0.00,11.80,-13.66,7.65,-7.14,0.00,-1.56,-0.78,76.18,1244,1313,1315,1243,1279,1500,1505,11499,818
214299,1,6.86,-0.51,7.25,0.230,0.276,0.917,-2.28,2.65,0.00,0.00,2.28,-2.65,0.00,10.94,-12.22,4.08,-11.70,0.00,-1.73,-3.40,72.12,1244,1313,1315,1243,1279,1500,1505,11483,818
214311,1,10.22,0.71,8.21,0.265,0.255,0.889,-2.07,1.41,0.00,0.00,2.07,-1.41,0.00,10.24,-7.89,0.02,-8.60,0.00,-2.78,-2.89,82.43,1244,1313,1315,1243,1279,1500,1504,11508,818
214322,1,11.53,-8.53,9.18,0.443,0.128,0.596,-1.77,1.94,0.00,0.00,1.77,-1.94,0.00,9.20,-9.76,-2.33,-1.22,0.00,-3.42,1.91,66.17,1244,1313,1315,1243,1279,1500,1504,11487,818
214334,1,8.78,-8.15,10.17,0.418,-0.103,0.609,-2.39,2.04,0.00,0.00,2.39,-2.04,0.00,11.39,-10.09,2.62,-1.94,0.00,-2.79,1.77,49.89,1244,1313,1315,1243,1279,1499,1505,11487,818
214346,1,3.97,-8.97,10.49,0.586,-0.329,0.524,-3.70,3.94,0.00,0.00,3.70,-3.94,0.00,15.99,-16.76,12.03,-7.79,0.00,-1.36,2.49,53.71,1244,1313,1315,1243,1279,1500,1505,11499,818
214359,1,-1.97,-3.92,10.71,0.422,-0.502,0.676,-4.26,5.80,0.00,0.00,4.26,-5.80,0.00,17.97,-23.33,19.94,-19.41,0.00,0.46,0.02,69.50,1243,1314,1311,1247,1279,1500,1505,11499,820
214371,1,-7.58,-1.28,10.59,0.330,-0.633,0.741,-4.39,8.49,0.00,0.00,4.39,-8.49,0.00,18.47,-32.83,26.05,-31.55,0.00,2.31,-0.57,44.95,1243,1314,1311,1247,1279,1500,1505,11499,820
214382,1,-12.57,18.76,10.53,-0.136,-0.593,1.030,-3.73,7.13,0.00,0.00,3.73,-7.13,0.00,16.17,-28.14,28.74,-46.91,0.00,3.83,-7.21,54.83,1243,1314,1311,1247,1279,1500,1505,11470,820
214394,1,-16.32,25.69,10.49,-0.230,-0.508,1.002,-2.68,4.09,0.00,0.00,2.68,-4.09,0.00,12.51,-17.54,28.83,-43.23,0.00,4.79,-6.41,102.55,1243,1314,1311,1247,1279,1502,1503,11466,820
214406,1,-12.84,19.29,10.04,-0.114,-0.391,1.031,-2.72,1.03,0.00,0.00,2.72,-1.03,0.00,12.67,-6.85,25.51,-26.15,0.00,2.64,-1.41,110.23,1243,1314,1311,1247,1279,1500,1505,11458,820
214419,1,-9.28,0.87,9.42,0.203,-0.390,0.763,-3.68,2.04,0.00,0.00,3.68,-2.04,0.00,16.07,-10.39,25.35,-11.26,0.00,1.88,4.73,123.80,1243,1314,1311,1247,1279,1500,1505,11470,820
214431,1,-0.73,-1.61,7.88,0.078,-0.296,0.800,-4.66,0.98,0.00,0.00,4.66,-0.98,0.00,19.51,-6.69,20.24,-5.08,0.00,-1.30,3.33,100.52,1243,1314,1311,1247,1279,1500,1504,11462,820
214442,1,2.16,-4.21,8.45,0.067,-0.427,0.844,-4.64,0.01,0.00,0.00,4.64,-0.01,0.00,19.48,-3.31,17.32,0.89,0.00,-1.61,3.22,69.27,1243,1314,1311,1247,1279,1500,1504,11478,820
214454,1,-4.19,-3.26,10.56,-0.098,-0.558,0.920,-4.93,-0.53,0.00,0.00,4.93,0.53,0.00,20.55,-1.44,24.74,1.82,0.00,1.84,2.11,51.98,1201,1352,1356,1205,1279,1501,1503,11487,814
214466,1,-11.37,-1.55,12.33,-0.051,-0.402,0.835,-3.87,0.45,0.00,0.00,3.87,-0.45,0.00,16.86,-4.85,28.22,-3.29,0.00,5.25,1.90,32.82,1201,1352,1356,1205,1279,1500,1505,11462,814
214479,1,-16.56,4.32,13.81,-0.156,-0.195,0.987,-3.15,2.78,0.00,0.00,3.15,-2.78,0.00,14.39,-13.05,30.95,-17.36,0.00,7.75,-0.73,9.54,1201,1352,1356,1205,1279,1500,1505,11445,814
214491,1,-16.39,12.05,13.90,-0.190,0.207,0.930,-1.48,3.68,0.00,0.00,1.48,-3.68,0.00,8.55,-16.25,24.94,-28.29,0.00,7.50,-3.48,45.98,1201,1352,1356,1205,1279,1500,1505,11458,814
214502,1,-9.27,9.46,14.94,-0.272,0.378,1.030,-1.69,2.84,0.00,0.00,1.69,-2.84,0.00,9.32,-13.35,18.59,-22.81,0.00,4.12,-3.09,45.57,1201,1352,1356,1205,1279,1500,1505,11470,814
214514,1,0.09,6.36,13.43,0.243,0.507,0.771,-1.59,5.01,0.00,0.00,1.59,-5.01,0.00,9.01,-20.98,8.92,-27.33,0.00,0.06,-2.83,84.39,1201,1352,1356,1205,1279,1500,1504,11487,814
214526,1,6.64,5.54,13.16,0.132,0.281,0.726,-2.47,4.45,0.00,0.00,2.47,-4.45,0.00,12.13,-19.06,5.49,-24.60,0.00,-2.63,-2.98,89.06,1201,1352,1356,1205,1279,1500,1505,11491,814
214539,1,5.21,3.66,13.75,0.488,0.061,0.676,-3.16,4.98,0.00,0.00,3.16,-4.98,0.00,14.57,-20.94,9.36,-24.60,0.00,-1.85,-1.47,66.46,1201,1352,1356,1205,1279,1500,1505,11478,814
214551,1,1.94,-3.50,13.22,0.608,0.009,0.584,-3.42,12.54,0.00,0.00,3.42,-12.54,0.00,15.53,-47.50,13.58,-44.00,0.00,-0.24,-0.28,91.29,1190,1366,1368,1191,1279,1500,1505,11491,829
214562,1,0.95,6.28,13.65,-0.074,-0.049,0.933,-1.84,15.01,0.00,0.00,1.84,-15.01,0.00,10.00,-56.27,9.05,-62.55,0.00,0.09,-5.35,76.80,1190,1366,1368,1191,1279,1500,1505,11495,829
214574,1,1.87,16.09,15.44,-0.228,-0.100,0.979,-1.00,9.53,0.00,0.00,1.00,-9.53,0.00,7.08,-37.23,5.21,-53.32,0.00,-0.24,-6.84,39.49,1190,1366,1368,1191,1279,1500,1505,11495,829
214586,1,4.39,15.69,17.86,0.231,-0.207,0.734,-2.07,7.67,0.00,0.00,2.07,-7.67,0.00,10.83,-30.78,6.44,-46.46,0.00,-1.34,-4.36,3.90,1190,1366,1368,1191,1279,1500,1505,11508,829
214599,1,5.89,26.26,17.42,0.397,-0.354,0.727,-3.11,7.21,0.00,0.00,3.11,-7.21,0.00,14.48,-29.23,8.59,-55.49,0.00,-2.41,-7.18,39.21,1190,1366,1368,1191,1279,1500,1505,11516,829
214611,1,5.16,23.34,15.82,0.236,-0.726,0.843,-4.31,6.67,0.00,0.00,4.31,-6.67,0.00,18.70,-27.41,13.54,-50.75,0.00,-2.47,-4.12,68.07,1190,1366,1368,1191,1279,1500,1505,11512,829
214623,1,13.28,15.72,13.96,0.334,-0.358,0.807,-5.64,6.86,0.00,0.00,5.64,-6.86,0.00,23.38,-28.13,10.10,-43.85,0.00,-5.92,-0.28,98.77,1190,1366,1368,1191,1279,1500,1505,11512,829
214634,1,7.08,9.87,13.02,0.045,-0.379,0.674,-4.92,5.52,0.00,0.00,4.92,-5.52,0.00,20.89,-23.48,13.81,-33.35,0.00,-1.84,2.78,115.94,1190,1366,1368,1191,1279,1500,1504,11491,829
214646,1,-1.68,13.31,14.23,-0.395,-0.323,0.927,-2.70,1.62,0.00,0.00,2.70,-1.62,0.00,13.18,-9.88,14.86,-23.20,0.00,3.06,1.76,92.36,1190,1366,1368,1191,1279,1500,1505,11487,829
214659,1,-7.68,23.37,15.28,-0.423,-0.092,1.086,-1.24,-0.34,0.00,0.00,1.24,0.34,0.00,8.07,-3.01,15.74,-26.38,0.00,6.70,-1.91,82.35,1221,1341,1336,1217,1279,1500,1505,11487,814
214671,1,-9.23,26.07,17.67,-0.530,0.218,1.168,-0.49,-0.24,0.00,0.00,0.49,0.24,0.00,5.45,-3.39,14.69,-29.46,0.00,7.81,-3.36,50.42,1221,1341,1336,1217,1279,1500,1505,11499,814
214682,1,-3.00,21.60,18.33,-0.009,0.225,1.000,-0.40,-0.16,0.00,0.00,0.40,0.16,0.00,5.16,-3.66,8.16,-25.25,0.00,4.79,-0.86,51.79,1221,1341,1336,1217,1279,1500,1505,11478,814
214694,1,4.13,11.82,19.30,0.241,0.213,0.771,-1.59,3.23,0.00,0.00,1.59,-3.23,0.00,9.37,-15.56,5.24,-27.38,0.00,1.81,1.55,35.36,1221,1341,1336,1217,1279,1500,1505,11470,814
214706,1,4.15,20.34,18.78,0.146,0.087,0.719,-1.88,2.90,0.00,0.00,1.88,-2.90,0.00,10.40,-14.40,6.24,-34.74,0.00,1.85,-2.96,50.30,1221,1341,1336,1217,1279,1500,1505,11462,814
214719,1,4.29,17.17,19.07,0.043,0.056,0.824,-2.05,2.00,0.00,0.00,2.05,-2.00,0.00,11.01,-11.30,6.72,-28.47,0.00,1.47,-0.71,54.45,1221,1341,1336,1217,1279,1500,1505,11462,814
214731,1,3.57,18.79,18.60,-0.072,0.018,0.992,-1.83,2.16,0.00,0.00,1.83,-2.16,0.00,10.28,-11.86,6.71,-30.65,0.00,1.23,-1.90,60.26,1221,1341,1336,1217,1279,1500,1505,11462,814
214742,1,6.07,20.50,19.55,-0.010,-0.012,0.888,-2.08,2.86,0.00,0.00,2.08,-2.86,0.00,11.15,-14.35,5.08,-34.85,0.00,-0.43,-3.22,48.67,1221,1341,1336,1217,1279,1500,1505,11462,814
214754,1,11.16,23.37,21.75,0.088,-0.001,0.877,-2.65,1.55,0.00,0.00,2.65,-1.55,0.00,13.17,-9.77,2.01,-33.14,0.00,-3.27,-4.56,13.48,1244,1308,1312,1249,1279,1500,1504,11478,823
214766,1,16.32,16.96,23.50,0.436,-0.097,0.663,-3.82,3.03,0.00,0.00,3.82,-3.03,0.00,17.28,-14.95,0.96,-31.91,0.00,-6.08,-2.30,-6.04,1244,1308,1312,1249,1279,1500,1505,11491,823
214779,1,13.78,16.10,23.92,0.363,-0.368,0.731,-4.91,4.45,0.00,0.00,4.91,-4.45,0.00,21.16,-19.96,7.38,-36.06,0.00,-5.11,-2.78,30.43,1244,1308,1312,1249,1279,1500,1505,11516,823
214791,1,8.10,13.05,23.84,0.085,-0.560,0.788,-5.31,5.29,0.00,0.00,5.31,-5.29,0.00,22.59,-22.94,14.48,-35.99,0.00,-2.21,-0.69,10.03,1244,1308,1312,1249,1279,1500,1505,11516,823
214802,1,0.62,13.91,23.83,-0.306,-0.638,0.991,-4.06,4.53,0.00,0.00,4.06,-4.53,0.00,18.21,-20.34,17.59,-34.25,0.00,1.58,0.16,18.38,1244,1308,1312,1249,1279,1500,1505,11499,823
214814,1,-3.72,17.35,23.33,-0.137,-0.470,0.966,-3.44,5.41,0.00,0.00,3.44,-5.41,0.00,16.08,-23.49,19.79,-40.84,0.00,4.36,-0.59,35.47,1244,1308,1312,1249,1279,1500,1505,11499,823
214827,1,-1.05,10.90,23.25,0.067,-0.123,0.778,-2.77,8.32,0.00,0.00,2.77,-8.32,0.00,13.78,-33.77,14.83,-44.67,0.00,4.32,1.18,39.97,1244,1308,1312,1249,1279,1500,1505,11503,823
214839,1,3.45,18.05,24.09,-0.205,0.067,0.872,-1.55,7.29,0.00,0.00,1.55,-7.29,0.00,9.51,-30.24,6.07,-48.29,0.00,2.82,-3.04,21.31,1244,1308,1312,1249,1279,1500,1505,11516,823
214851,1,5.23,22.86,25.40,-0.255,0.113,0.894,-0.83,3.03,0.00,0.00,0.83,-3.03,0.00,7.04,-15.37,1.81,-38.23,0.00,2.21,-3.96,-5.98,1276,1279,1274,1284,1279,1500,1505,11503,816
214862,1,9.22,24.69,26.02,-0.188,0.149,0.874,-0.22,-1.31,0.00,0.00,0.22,1.31,0.00,4.91,-0.16,-4.30,-24.85,0.00,0.44,-2.87,-8.59,1276,1279,1274,1284,1279,1500,1505,11499,816
214874,1,12.21,10.88,26.06,-0.074,0.029,0.819,-0.70,-3.80,0.00,0.00,0.70,3.80,0.00,6.58,8.57,-5.64,-2.31,0.00,-0.49,3.24,-1.59,1276,1279,1274,1284,1279,1500,1505,11478,816
214886,1,12.39,-1.49,25.15,0.056,0.021,0.663,-0.96,-2.87,0.00,0.00,0.96,2.87,0.00,7.53,5.35,-4.87,6.83,0.00,0.37,6.08,20.62,1276,1279,1274,1284,1279,1500,1504,11474,816
214899,1,7.76,-2.35,24.16,-0.139,0.024,0.778,-0.99,-0.85,0.00,0.00,0.99,0.85,0.00,7.62,-1.72,-0.13,0.63,0.00,3.18,3.06,65.61,1276,1279,1274,1284,1279,1500,1504,11458,816
214911,1,3.72,-0.24,22.60,-0.269,0.100,0.886,-0.65,0.78,0.00,0.00,0.65,-0.78,0.00,6.46,-7.43,2.75,-7.19,0.00,5.23,0.14,78.94,1276,1279,1274,1284,1279,1500,1504,11449,816
214922,1,1.37,6.83,21.80,-0.359,0.248,0.967,-0.01,0.77,0.00,0.00,0.01,-0.77,0.00,4.24,-7.39,2.88,-14.23,0.00,6.01,-3.66,86.17,1276,1279,1274,1284,1279,1500,1504,11458,816
214935,1,1.32,11.49,21.51,-0.298,0.439,0.982,0.97,0.49,0.00,0.00,-0.97,-0.49,0.00,0.83,-6.43,-0.50,-17.93,0.00,5.41,-5.74,82.90,1276,1279,1274,1284,1279,1500,1505,11458,816
214946,1,1.55,6.30,22.30,-0.124,0.504,0.858,1.51,1.55,0.00,0.00,-1.51,-1.55,0.00,-1.09,-10.14,-2.63,-16.45,0.00,4.59,-3.43,61.05,1276,1279,1274,1284,1279,1500,1505,11449,816
214959,1,7.55,-0.26,23.61,0.040,0.603,0.849,0.73,1.89,0.00,0.00,-0.73,-1.89,0.00,1.69,-11.37,-5.87,-11.11,0.00,1.30,-1.31,61.43,1208,1339,1351,1216,1279,1500,1505,11470,823
214971,1,15.02,-14.87,24.58,0.381,0.591,0.615,0.29,4.50,0.00,0.00,-0.29,-4.50,0.00,3.22,-20.52,-11.81,-5.65,0.00,-2.01,2.76,17.79,1208,1339,1351,1216,1279,1501,1505,11487,823
214982,1,21.37,-20.00,25.17,0.393,0.479,0.578,-0.55,6.54,0.00,0.00,0.55,-6.54,0.00,6.19,-27.72,-15.18,-7.72,0.00,-4.12,1.49,12.76,1208,1339,1351,1216,1279,1501,1505,11478,823
214994,1,21.91,-21.33,26.15,0.235,0.246,0.692,-2.00,6.11,0.00,0.00,2.00,-6.11,0.00,11.30,-26.28,-10.61,-4.95,0.00,-3.54,-0.01,1.62,1208,1339,1351,1216,1279,1500,1505,11462,823
215006,1,20.07,-16.03,26.47,0.136,0.174,0.799,-2.01,4.24,0.00,0.00,2.01,-4.24,0.00,11.36,-19.74,-8.72,-3.71,0.00,-2.32,-1.98,5.07,1208,1339,1351,1216,1279,1500,1504,11458,823
215019,1,17.16,-18.99,27.09,0.031,0.125,0.862,-2.35,3.91,0.00,0.00,2.35,-3.91,0.00,12.55,-18.64,-4.61,0.35,0.00,-0.97,0.10,25.91,1208,1339,1351,1216,1279,1500,1504,11462,823
215031,1,7.41,-29.68,23.86,-0.010,0.049,0.980,-2.08,5.18,0.00,0.00,2.08,-5.18,0.00,11.63,-23.14,4.23,6.54,0.00,3.15,4.40,59.51,1208,1339,1351,1216,1279,1500,1504,11478,823
215042,1,-5.09,-42.10,18.71,0.081,0.028,0.833,-1.38,7.28,0.00,0.00,1.38,-7.28,0.00,9.21,-30.57,14.30,11.52,0.00,6.63,6.31,127.49,1208,1339,1351,1216,1279,1500,1504,11466,823
215054,1,-12.27,-44.88,17.37,-0.136,0.129,0.831,-0.79,6.94,0.00,0.00,0.79,-6.94,0.00,7.14,-29.46,19.42,15.42,0.00,7.17,3.59,114.93,1161,1388,1408,1157,1279,1501,1504,11478,818
215066,1,-12.52,-42.02,17.74,-0.154,0.231,0.887,-0.42,3.96,0.00,0.00,0.42,-3.96,0.00,5.87,-19.08,18.38,22.95,0.00,5.26,0.27,80.08,1161,1388,1408,1157,1279,1500,1505,11470,818
215079,1,-4.90,-44.27,19.77,-0.169,0.137,0.981,-0.92,-0.53,0.00,0.00,0.92,0.53,0.00,7.62,-3.35,12.52,40.92,0.00,0.35,1.05,42.84,1161,1388,1408,1157,1279,1500,1505,11458,818
215091,1,5.76,-54.80,22.54,0.281,0.126,0.716,-1.74,-1.96,0.00,0.00,1.74,1.96,0.00,10.52,1.69,4.76,56.50,0.00,-4.89,5.03,-9.56,1161,1388,1408,1157,1279,1500,1505,11462,818
215102,1,9.34,-64.99,25.12,0.608,-0.072,0.460,-3.33,1.49,0.00,0.00,3.33,-1.49,0.00,16.09,-10.39,6.76,54.60,0.00,-6.04,6.78,-39.66,1161,1388,1408,1157,1279,1500,1505,11441,818
215114,1,9.31,-66.81,26.15,0.566,-0.233,0.543,-4.19,3.99,0.00,0.00,4.19,-3.99,0.00,19.13,-19.17,9.82,47.65,0.00,-5.57,5.13,-28.46,1161,1388,1408,1157,1279,1500,1505,11445,818
215126,1,8.18,-71.58,26.25,0.312,-0.452,0.559,-5.19,4.71,0.00,0.00,5.19,-4.71,0.00,22.65,-21.70,14.47,49.88,0.00,-4.73,6.86,-7.22,1161,1388,1408,1157,1279,1500,1504,11433,818
215139,1,2.03,-69.99,25.49,-0.127,-0.584,0.810,-4.40,2.21,0.00,0.00,4.40,-2.21,0.00,19.94,-13.00,17.90,56.99,0.00,-1.62,5.77,57.89,1161,1388,1408,1157,1279,1500,1504,11462,818
215151,1,-3.20,-64.04,24.78,-0.100,-0.612,0.958,-3.67,2.18,0.00,0.00,3.67,-2.18,0.00,17.40,-12.92,20.60,51.13,0.00,1.44,2.57,70.74,1225,1329,1335,1225,1279,1500,1505,11458,819
215162,1,-3.83,-59.62,23.57,0.144,-0.350,0.857,-2.40,5.73,0.00,0.00,2.40,-5.73,0.00,12.96,-25.39,16.79,34.23,0.00,2.22,0.17,102.94,1225,1329,1335,1225,1279,1500,1505,11474,819
215174,1,7.82,-35.00,25.44,-0.030,-0.327,1.207,-2.52,8.11,0.00,0.00,2.52,-8.11,0.00,13.40,-33.79,5.58,1.21,0.00,-1.90,-10.73,100.74,1225,1329,1335,1225,1279,1500,1505,11487,819
215186,1,17.89,-23.71,28.72,-0.563,-0.185,1.560,-2.92,4.62,0.00,0.00,2.92,-4.62,0.00,14.83,-21.63,-3.06,2.08,0.00,-1.24,-9.86,70.93,1225,1329,1335,1225,1279,1500,1505,11487,819
215199,1,0.29,-0.52,35.31,-0.497,-0.190,1.894,-3.14,-0.17,0.00,0.00,3.14,0.17,0.00,15.62,-4.90,15.33,-4.38,0.00,6.96,-14.14,-55.82,1225,1329,1335,1225,1279,1500,1505,11478,819
215211,1,-0.33,4.79,38.69,-0.071,-0.085,0.957,-3.04,-1.92,0.00,0.00,3.04,1.92,0.00,15.32,1.25,15.65,-3.54,0.00,4.86,-11.03,-40.76,1225,1329,1335,1225,1279,1500,1505,11466,819
215222,1,-11.11,3.44,39.95,0.200,-0.064,0.580,-2.21,1.37,0.00,0.00,2.21,-1.37,0.00,12.45,-10.26,23.55,-13.70,0.00,7.31,-6.21,-27.64,1225,1329,1335,1225,1279,1500,1505,11478,819
215234,1,-14.62,2.18,40.77,0.298,-0.226,0.703,-2.70,4.42,0.00,0.00,2.70,-4.42,0.00,14.18,-20.96,28.80,-23.14,0.00,7.13,-2.80,-28.05,1225,1329,1335,1225,1279,1500,1505,11487,819
215246,1,-15.25,13.30,38.74,-0.103,-0.103,0.861,-1.86,2.62,0.00,0.00,1.86,-2.62,0.00,11.26,-14.71,26.51,-28.00,0.00,5.81,-4.26,17.23,1225,1329,1335,1225,1279,1500,1505,11487,819
215259,1,-22.10,13.51,37.23,-0.315,-0.280,0.920,-1.65,1.53,0.00,0.00,1.65,-1.53,0.00,10.51,-10.92,32.61,-24.44,0.00,7.54,-1.53,10.95,1245,1309,1298,1261,1279,1500,1505,11495,839
215271,1,-25.63,17.68,34.22,-0.201,-0.376,1.019,-1.33,0.94,0.00,0.00,1.33,-0.94,0.00,9.43,-8.89,35.06,-26.57,0.00,7.88,-1.52,52.50,1245,1309,1298,1261,1279,1500,1505,11491,839
215282,1,-20.72,7.83,32.81,-0.230,-0.409,1.126,-2.07,0.41,0.00,0.00,2.07,-0.41,0.00,12.04,-7.04,32.76,-14.87,0.00,5.60,2.74,61.57,1245,1309,1298,1261,1279,1500,1505,11499,839
215294,1,-17.63,3.61,32.05,-0.226,-0.368,0.962,-2.15,1.15,0.00,0.00,2.15,-1.15,0.00,12.33,-9.64,29.97,-13.25,0.00,5.03,2.43,92.09,1245,1309,1298,1261,1279,1500,1505,11495,839
215306,1,-20.25,3.35,31.85,0.002,-0.376,0.887,-2.35,3.13,0.00,0.00,2.35,-3.13,0.00,13.03,-16.59,33.28,-19.93,0.00,6.72,1.00,89.73,1245,1309,1298,1261,1279,1500,1505,11495,839
215319,1,-20.72,6.12,31.87,0.028,-0.296,0.918,-2.32,4.67,0.00,0.00,2.32,-4.67,0.00,12.95,-22.05,33.68,-28.16,0.00,6.96,-1.14,58.32,1245,1309,1298,1261,1279,1500,1505,11474,839
215331,1,-21.57,8.64,32.63,-0.076,-0.239,0.949,-2.69,5.62,0.00,0.00,2.69,-5.62,0.00,14.28,-25.42,35.84,-34.06,0.00,6.95,-2.68,84.13,1245,1309,1298,1261,1279,1500,1504,11478,839
215343,1,-16.87,4.42,32.73,0.159,-0.398,0.780,-3.62,8.16,0.00,0.00,3.62,-8.16,0.00,17.58,-34.39,34.45,-38.81,0.00,4.57,-1.06,86.25,1245,1309,1298,1261,1279,1503,1504,11470,839
215354,1,-18.78,4.79,33.58,0.201,-0.162,0.877,-4.17,8.55,0.00,0.00,4.17,-8.55,0.00,19.52,-35.85,38.30,-40.64,0.00,5.73,-1.93,76.58,1229,1326,1326,1232,1279,1503,1502,11478,845
215366,1,-16.28,3.29,34.22,0.184,-0.116,0.822,-3.97,8.80,0.00,0.00,3.97,-8.80,0.00,18.87,-36.79,35.15,-40.07,0.00,3.97,-1.99,66.10,1229,1326,1326,1232,1279,1500,1505,11483,845
215379,1,-12.43,-3.04,34.91,0.324,-0.232,0.759,-4.14,8.91,0.00,0.00,4.14,-8.91,0.00,19.51,-37.24,31.94,-34.20,0.00,1.76,0.26,57.34,1229,1326,1326,1232,1279,1500,1505,11453,845
215391,1,-10.14,-4.44,35.78,0.137,-0.368,0.927,-4.38,6.74,0.00,0.00,4.38,-6.74,0.00,20.39,-29.75,30.53,-25.31,0.00,0.46,0.28,20.08,1229,1326,1326,1232,1279,1500,1505,11458,845
215402,1,-3.56,-10.92,36.47,0.206,-0.248,0.805,-3.89,4.97,0.00,0.00,3.89,-4.97,0.00,18.71,-23.60,22.27,-12.68,0.00,-2.28,2.61,12.69,1229,1326,1326,1232,1279,1500,1505,11462,845
215414,1,-4.68,-17.08,37.34,0.262,-0.390,0.689,-3.93,3.88,0.00,0.00,3.93,-3.88,0.00,18.85,-19.83,23.53,-2.75,0.00,-1.80,4.32,13.00,1229,1326,1326,1232,1279,1500,1505,11470,845
215426,1,-11.68,-21.28,37.96,0.132,-0.559,0.716,-3.77,2.95,0.00,0.00,3.77,-2.95,0.00,18.32,-16.60,30.00,4.67,0.00,0.82,5.30,9.04,1229,1326,1326,1232,1279,1500,1505,11458,845
215439,1,-20.92,-21.39,37.22,-0.105,-0.608,0.764,-2.73,1.35,0.00,0.00,2.73,-1.35,0.00,14.70,-11.02,35.62,10.37,0.00,3.91,4.98,40.55,1229,1326,1326,1232,1279,1500,1505,11466,845
215451,1,-31.19,-18.10,36.59,-0.404,-0.564,0.879,-1.39,-1.84,0.00,0.00,1.39,1.84,0.00,10.00,0.14,41.19,18.23,0.00,7.02,3.79,64.64,1217,1326,1343,1228,1279,1500,1505,11478,856
215462,1,-34.88,-20.27,36.58,-0.539,-0.536,1.127,-1.36,-5.86,0.00,0.00,1.36,5.86,0.00,9.91,14.25,44.79,34.52,0.00,7.46,4.76,69.91,1217,1326,1343,1228,1279,1500,1505,11483,856
215474,1,-35.84,-32.96,36.15,-0.340,-0.318,1.053,-1.12,-7.38,0.00,0.00,1.12,7.38,0.00,9.07,19.65,44.90,52.61,0.00,7.39,8.02,119.89,1217,1326,1343,1228,1279,1500,1505,11478,856
215486,1,-32.23,-46.42,36.81,-0.203,-0.097,0.873,-1.17,-6.51,0.00,0.00,1.17,6.51,0.00,9.27,16.66,41.50,63.09,0.00,5.85,9.15,111.04,1217,1326,1343,1228,1279,1500,1505,11462,856
215499,1,-31.66,-44.11,39.03,-0.024,-0.304,0.776,-2.65,-7.03,0.00,0.00,2.65,7.03,0.00,14.46,18.55,46.13,62.67,0.00,6.14,4.45,41.71,1217,1326,1343,1228,1279,1500,1505,11445,856
215511,1,-12.25,-23.38,46.58,-0.030,-0.216,1.113,-4.23,-7.79,0.00,0.00,4.23,7.79,0.00,20.01,21.28,32.26,44.65,0.00,-0.76,-3.97,-43.65,1217,1326,1343,1228,1279,1500,1505,11445,856
215522,1,3.65,-1.83,54.36,-0.104,-0.115,0.872,-4.92,-9.17,0.00,0.00,4.92,9.17,0.00,22.48,26.18,18.83,28.01,0.00,-4.35,-8.81,-109.80,1217,1326,1343,1228,1279,1500,1505,11420,856
215534,1,2.71,1.69,57.39,0.057,-0.186,0.667,-4.65,-8.01,0.00,0.00,4.65,8.01,0.00,21.59,22.21,18.89,20.52,0.00,-0.52,-4.83,-86.79,1217,1326,1343,1228,1279,1500,1505,11441,856
215547,1,-2.17,8.68,58.10,-0.287,-0.231,0.969,-3.55,-7.88,0.00,0.00,3.55,7.88,0.00,17.77,21.84,19.94,13.16,0.00,3.53,-4.22,-49.19,1217,1326,1343,1228,1279,1500,1505,11441,856
215559,1,-4.10,5.12,57.38,-0.405,-0.243,0.953,-2.20,-7.92,0.00,0.00,2.20,7.92,0.00,13.08,22.03,17.17,16.91,0.00,5.08,-0.29,-3.08,1322,1240,1228,1324,1279,1500,1505,11445,900
215571,1,-6.68,2.91,56.40,-0.230,-0.136,0.870,-0.88,-6.23,0.00,0.00,0.88,6.23,0.00,8.48,16.20,15.16,13.29,0.00,6.15,0.67,25.18,1322,1240,1228,1324,1279,1500,1505,11453,900
215582,1,-8.25,-1.02,54.82,-0.079,-0.165,0.902,-0.82,-0.96,0.00,0.00,0.82,0.96,0.00,8.25,-2.24,16.50,-1.22,0.00,6.22,0.40,49.00,1322,1240,1228,1324,1279,1500,1505,11462,900
215594,1,-3.55,-5.59,52.01,-0.089,-0.053,0.967,-1.15,3.36,0.00,0.00,1.15,-3.36,0.00,9.45,-17.37,13.00,-11.79,0.00,3.92,-0.40,87.00,1322,1240,1228,1324,1279,1500,1505,11453,900
215606,1,-0.98,-4.01,50.74,-0.176,-0.022,0.941,-1.49,6.06,0.00,0.00,1.49,-6.06,0.00,10.64,-26.90,11.62,-22.89,0.00,3.13,-3.45,86.29,1322,1240,1228,1324,1279,1500,1505,11462,900
215619,1,0.96,-6.09,50.12,-0.116,0.111,0.905,-1.19,8.02,0.00,0.00,1.19,-8.02,0.00,9.63,-33.84,8.66,-27.75,0.00,2.44,-3.86,51.49,1322,1240,1228,1324,1279,1500,1505,11453,900
215631,1,-0.98,-7.10,50.32,-0.048,0.087,0.846,-0.89,9.92,0.00,0.00,0.89,-9.92,0.00,8.57,-40.56,9.55,-33.47,0.00,3.18,-4.38,25.16,1322,1240,1228,1324,1279,1500,1505,11441,900
215642,1,-2.46,-9.14,51.53,0.013,0.098,0.835,-1.21,10.86,0.00,0.00,1.21,-10.86,0.00,9.73,-43.96,12.19,-34.81,0.00,3.37,-3.99,-1.93,1322,1240,1228,1324,1279,1500,1505,11449,900
215654,1,8.96,-5.83,54.76,-0.038,0.041,1.133,-2.80,10.91,0.00,0.00,2.80,-10.91,0.00,15.32,-44.23,6.36,-38.41,0.00,-1.10,-5.80,-48.97,1341,1225,1221,1337,1282,1500,1505,11449,905
215666,1,9.11,-6.01,59.31,-0.043,0.178,0.717,-2.93,11.01,0.00,0.00,2.93,-11.01,0.00,15.82,-44.71,6.71,-38.71,0.00,0.44,-5.58,-100.37,1341,1225,1221,1337,1279,1500,1505,11466,905
215679,1,21.33,4.04,66.34,0.018,0.003,1.033,-4.20,9.47,0.00,0.00,4.20,-9.47,0.00,20.32,-39.41,-1.01,-43.45,0.00,-3.36,-7.16,-170.46,1341,1225,1221,1337,1279,1500,1505,11495,905
215691,1,21.81,0.99,69.36,0.118,0.138,0.777,-4.73,11.66,0.00,0.00,4.73,-11.66,0.00,22.20,-47.20,0.39,-48.19,0.00,-2.19,-4.59,-132.42,1341,1225,1221,1337,1279,1500,1505,11483,905
215702,1,13.95,12.98,66.33,-0.131,0.157,0.882,-4.40,9.25,0.00,0.00,4.40,-9.25,0.00,21.09,-38.84,7.14,-51.82,0.00,1.55,-7.39,-35.17,1341,1225,1221,1337,1279,1500,1505,11487,905
215714,1,14.19,11.16,64.19,-0.265,0.064,1.233,-3.78,6.59,0.00,0.00,3.78,-6.59,0.00,18.96,-29.62,4.77,-40.78,0.00,0.36,-4.91,-2.80,1341,1225,1221,1337,1279,1500,1505,11466,905
215726,1,12.58,0.95,60.53,-0.156,-0.047,0.952,-3.92,3.68,0.00,0.00,3.92,-3.68,0.00,19.48,-19.49,6.90,-20.44,0.00,-0.07,0.42,45.13,1341,1225,1221,1337,1279,1500,1504,11433,905
215739,1,12.73,-1.98,56.31,-0.113,-0.173,1.011,-3.40,0.29,0.00,0.00,3.40,-0.29,0.00,17.71,-7.63,4.97,-5.65,0.00,-1.07,1.42,64.16,1341,1225,1221,1337,1279,1500,1504,11437,905
215751,1,15.02,-12.67,54.92,0.254,-0.367,0.795,-4.14,0.08,0.00,0.00,4.14,-0.08,0.00,20.33,-6.88,5.30,5.80,0.00,-2.76,4.70,70.03,1218,1339,1346,1211,1279,1500,1505,11449,999
215762,1,22.70,-12.90,57.69,0.266,-0.226,0.770,-4.59,1.21,0.00,0.00,4.59,-1.21,0.00,21.93,-10.83,-0.76,2.07,0.00,-5.54,2.20,2.23,1218,1339,1346,1211,1279,1500,1505,11462,999
215774,1,24.49,-2.83,59.65,0.090,-0.300,0.667,-5.34,-0.62,0.00,0.00,5.34,0.62,0.00,24.60,-4.43,0.12,-1.60,0.00,-5.30,-2.46,-27.60,1218,1339,1346,1211,1279,1500,1505,11441,999
215786,1,23.57,-4.88,60.63,0.332,-0.165,0.684,-4.71,0.64,0.00,0.00,4.71,-0.64,0.00,22.45,-8.86,-1.13,-3.98,0.00,-4.23,-1.34,-31.11,1218,1339,1346,1211,1279,1500,1505,11441,999
215799,1,18.78,-7.43,62.41,0.323,-0.145,0.652,-4.99,3.97,0.00,0.00,4.99,-3.97,0.00,23.46,-20.51,4.68,-13.09,0.00,-1.89,-1.10,-70.82,1218,1339,1346,1211,1279,1500,1505,11441,999
215811,1,13.12,-6.22,63.32,0.316,-0.133,0.576,-5.61,5.72,0.00,0.00,5.61,-5.72,0.00,25.65,-26.68,12.53,-20.46,0.00,0.08,-1.54,-49.90,1218,1339,1346,1211,1279,1500,1505,11441,999
215822,1,12.80,-9.19,64.32,0.363,-0.206,0.726,-5.82,7.02,0.00,0.00,5.82,-7.02,0.00,26.46,-31.29,13.66,-22.10,0.00,-0.17,-0.25,-63.79,1218,1339,1346,1211,1279,1500,1505,11449,999
215834,1,8.84,-19.92,64.26,0.625,-0.158,0.454,-6.02,12.78,0.00,0.00,6.02,-12.78,0.00,27.20,-51.53,18.36,-31.61,0.00,1.76,2.62,-59.02,1218,1339,1346,1211,1279,1500,1505,11445,999
215846,1,12.18,-20.08,62.37,0.559,-0.189,0.611,-6.91,16.20,0.00,0.00,6.91,-16.20,0.00,30.37,-63.64,18.19,-43.56,0.00,0.64,0.92,-23.25,1218,1339,1346,1211,1279,1501,1505,11449,999
215859,1,16.41,-19.61,60.86,0.263,-0.229,0.920,-7.15,15.64,0.00,0.00,7.15,-15.64,0.00,31.29,-61.84,14.88,-42.23,0.00,-0.19,-0.38,-10.89,1237,1321,1317,1239,1279,1501,1505,11445,813
215871,1,15.24,-23.01,59.68,0.119,-0.292,0.743,-7.32,14.68,0.00,0.00,7.32,-14.68,0.00,31.95,-58.62,16.71,-35.61,0.00,0.83,0.92,2.40,1237,1321,1317,1239,1279,1507,1504,11449,813
215882,1,12.30,-20.10,57.84,0.028,-0.434,0.844,-6.95,10.61,0.00,0.00,6.95,-10.61,0.00,30.70,-44.48,18.41,-24.38,0.00,1.98,0.53,25.80,1237,1321,1317,1239,1279,1507,1504,11445,813
215894,1,13.76,-16.68,57.42,0.125,-0.425,0.846,-6.19,8.89,0.00,0.00,6.19,-8.89,0.00,28.11,-38.56,14.35,-21.88,0.00,0.52,-0.97,21.00,1237,1321,1317,1239,1279,1511,1504,11445,813
215906,1,15.38,-8.48,58.24,0.216,-0.559,0.744,-6.19,8.85,4.95,0.00,11.14,-8.85,0.00,45.50,-38.51,30.12,-30.04,0.00,0.32,-3.63,1.94,1237,1321,1317,1239,1279,1555,1503,11466,813
215919,1,15.77,1.86,57.84,0.258,-0.509,0.732,-5.07,7.99,4.95,0.00,10.02,-7.99,0.00,41.66,-35.60,25.90,-37.47,0.00,-0.15,-5.94,4.05,1237,1321,1317,1239,1279,1555,1503,11462,813
215931,1,10.40,5.00,56.63,0.043,-0.408,1.129,-3.05,5.54,8.37,0.00,11.42,-5.54,0.00,46.64,-27.08,36.24,-32.09,0.00,2.01,-5.41,35.85,1237,1321,1317,1239,1279,1593,1503,11470,813
215942,1,6.18,-7.26,56.87,0.430,-0.418,0.819,-3.03,6.79,8.37,0.00,11.40,-6.79,0.00,46.69,-31.49,40.51,-24.23,0.00,2.83,0.54,19.23,1237,1321,1317,1239,1279,1593,1503,11458,813
215955,1,-0.13,-5.84,55.06,0.353,-0.351,0.788,-2.65,7.72,8.37,0.00,11.02,-7.72,0.00,45.45,-34.82,45.58,-28.98,0.00,4.41,-1.09,48.33,1218,1329,1339,1229,1279,1593,1504,11449,814
215966,1,0.70,-4.27,55.41,0.281,-0.168,0.850,-2.59,10.17,9.99,0.00,12.58,-10.17,0.00,51.01,-43.50,50.31,-39.23,0.00,3.24,-2.81,30.19,1218,1329,1339,1229,1279,1611,1504,11478,814
215979,1,-6.98,-13.02,54.34,0.462,-0.179,0.495,-3.97,13.88,9.99,0.00,13.96,-13.88,0.00,55.95,-56.59,62.92,-43.57,0.00,6.13,0.69,20.69,1218,1329,1339,1229,1279,1611,1504,11474,814
215991,1,-12.34,-1.26,53.21,0.257,-0.031,0.678,-3.74,16.17,10.08,0.00,13.82,-16.17,0.00,55.60,-64.78,67.94,-63.51,0.00,7.05,-5.27,26.76,1218,1329,1339,1229,1279,1612,1504,11470,814
216002,1,-14.31,5.01,54.02,0.019,-0.021,0.855,-4.15,15.82,10.08,0.00,14.23,-15.82,0.00,57.20,-63.70,71.51,-68.71,0.00,6.36,-6.93,1.15,1218,1329,1339,1229,1279,1612,1504,11483,814
216014,1,-21.02,8.48,54.20,-0.097,0.070,0.848,-3.28,13.31,10.71,0.00,13.99,-13.31,0.00,56.47,-55.05,77.49,-63.54,0.00,8.81,-6.46,29.37,1218,1329,1339,1229,1279,1619,1504,11474,814
216026,1,-19.07,10.30,54.72,-0.085,0.150,0.818,-2.53,11.01,10.80,0.00,13.33,-11.01,0.00,54.33,-47.13,73.40,-57.43,0.00,7.17,-6.11,23.45,1218,1329,1339,1229,1279,1620,1504,11491,814
216039,1,-22.20,14.59,55.02,-0.072,0.191,0.916,-2.01,10.15,10.80,0.00,12.81,-10.15,0.00,52.63,-44.22,74.83,-58.82,0.00,8.07,-7.25,2.70,1218,1329,1339,1229,1279,1620,1504,11466,814
216051,1,-20.34,12.34,55.09,-0.075,0.165,0.862,-1.80,8.89,12.96,0.00,14.76,-8.89,0.00,59.60,-39.88,79.94,-52.22,0.00,7.28,-5.23,3.30,1263,1283,1284,1284,1279,1644,1504,11466,814
216062,1,-13.35,7.12,55.41,-0.013,0.261,0.906,-2.07,8.07,12.96,0.00,15.03,-8.07,0.00,60.70,-37.10,74.05,-44.22,0.00,4.52,-3.39,-0.50,1263,1283,1284,1284,1279,1644,1504,11441,814
216074,1,-8.11,4.83,55.76,0.104,0.189,0.816,-2.31,7.81,13.59,0.00,15.90,-7.81,0.00,63.90,-36.26,72.00,-41.09,0.00,3.37,-3.27,5.76,1263,1283,1284,1284,1279,1651,1504,11458,814
216086,1,-3.71,4.21,55.53,0.127,0.209,0.783,-2.60,8.15,13.59,0.00,16.19,-8.15,0.00,65.08,-37.55,68.79,-41.75,0.00,2.45,-4.45,11.48,1263,1283,1284,1284,1279,1651,1503,11453,814
216099,1,-2.97,-5.14,55.24,0.188,0.136,0.707,-2.92,9.14,13.59,0.00,16.51,-9.14,0.00,66.38,-41.07,69.35,-35.93,0.00,3.09,-1.18,12.05,1263,1283,1284,1284,1279,1651,1503,11437,814
216111,1,-2.79,-5.68,54.65,0.236,0.028,0.725,-2.82,8.09,13.50,0.00,16.32,-8.09,0.00,65.85,-37.48,68.64,-31.81,0.00,3.07,-0.98,-7.41,1263,1283,1284,1284,1279,1650,1503,11437,814
216122,1,-2.94,-6.62,54.19,0.126,-0.173,0.798,-3.38,7.48,13.50,0.00,16.88,-7.48,0.00,67.98,-35.40,70.93,-28.78,0.00,2.86,-0.67,-5.18,1263,1283,1284,1284,1279,1650,1503,11433,814
216134,1,-2.68,-11.37,54.27,0.064,-0.377,0.869,-4.10,6.27,13.23,0.00,17.33,-6.27,0.00,69.73,-31.25,72.41,-19.88,0.00,2.84,1.56,-12.20,1263,1283,1284,1284,1279,1647,1504,11437,814
216146,1,3.10,-5.11,54.60,0.007,-0.386,0.912,-3.54,5.40,13.14,0.00,16.68,-5.40,0.00,67.58,-28.25,64.49,-23.13,0.00,1.24,-1.44,-13.20,1263,1283,1284,1284,1279,1646,1504,11453,814
216159,1,2.09,-6.69,55.62,-0.014,-0.512,0.741,-3.33,4.97,13.14,0.00,16.47,-4.97,0.00,67.02,-26.79,64.93,-20.10,0.00,3.36,0.06,1.10,1290,1272,1263,1289,1279,1646,1504,11458,814
216171,1,5.51,6.29,53.79,-0.078,-0.407,0.996,0.17,4.05,12.87,0.00,12.70,-4.05,0.00,53.93,-23.64,48.43,-29.92,0.00,1.34,-4.63,35.58,1290,1272,1263,1289,1279,1643,1504,11458,814
216182,1,-8.17,-5.06,51.71,-0.364,-0.685,1.193,-1.47,2.01,12.87,0.00,14.34,-2.01,0.00,59.78,-16.53,67.95,-11.48,0.00,8.04,1.03,63.27,1290,1272,1263,1289,1279,1643,1504,11458,814
216194,1,5.15,1.31,51.36,-0.155,-0.350,0.938,-1.72,-0.35,13.05,0.00,14.77,0.35,0.00,61.43,-8.29,56.28,-9.60,0.00,1.70,-0.75,44.44,1290,1272,1263,1289,1279,1645,1504,11462,814
216206,1,1.92,-3.96,48.18,-0.367,-0.322,1.024,-1.27,-2.95,12.96,0.00,14.23,2.95,0.00,59.66,0.82,57.74,4.79,0.00,3.42,1.18,89.51,1290,1272,1263,1289,1279,1644,1504,11458,814
216219,1,-0.76,-6.70,47.32,-0.186,-0.193,0.915,-1.12,-3.54,12.96,0.00,14.08,3.54,0.00,59.27,2.92,60.04,9.62,0.00,4.38,1.71,100.58,1290,1272,1263,1289,1279,1644,1504,11462,814
216231,1,-2.89,-2.07,47.34,-0.218,-0.105,0.977,-1.13,-3.71,12.96,0.00,14.09,3.71,0.00,59.43,3.56,62.32,5.63,0.00,4.82,-2.27,58.79,1290,1272,1263,1289,1279,1644,1504,11445,814
216242,1,-1.73,-3.21,48.06,-0.027,0.028,0.901,-1.21,-1.84,12.96,0.00,14.17,1.84,0.00,59.87,-2.97,61.60,0.24,0.00,3.72,-3.04,36.79,1290,1272,1263,1289,1279,1644,1504,11462,814
216254,1,2.68,8.26,49.84,-0.048,0.213,1.123,-1.19,-1.34,12.69,0.00,13.88,1.34,0.00,58.97,-4.71,56.29,-12.97,0.00,1.40,-7.96,9.66,1263,1290,1293,1268,1279,1641,1504,11445,814
216266,1,6.17,12.26,51.61,-0.045,0.328,0.937,-0.65,-1.55,12.96,0.00,13.61,1.55,0.00,58.16,-3.93,51.99,-16.19,0.00,-0.37,-7.77,-16.26,1263,1290,1293,1268,1279,1644,1501,11433,814
216279,1,7.75,9.06,53.17,0.021,0.368,0.840,-0.02,-2.68,12.96,0.00,12.98,2.68,0.00,56.08,0.05,48.32,-9.01,0.00,-1.52,-4.32,-34.14,1263,1290,1293,1268,1279,1644,1501,11437,814
216291,1,9.21,8.11,53.49,-0.082,0.278,0.988,0.29,-4.93,12.42,0.00,12.13,4.93,0.00,53.22,7.94,44.01,-0.17,0.00,-2.91,-2.39,-17.43,1263,1290,1293,1268,1279,1638,1504,11441,814
216302,1,7.71,3.44,53.07,0.052,0.066,0.807,-0.16,-6.37,12.42,0.00,12.58,6.37,0.00,54.91,13.08,47.20,9.64,0.00,-2.88,1.09,-5.08,1263,1290,1293,1268,1279,1638,1504,11412,814
216314,1,3.47,2.81,51.64,0.123,-0.051,0.852,-0.25,-6.89,11.88,0.00,12.13,6.89,0.00,53.47,14.95,50.01,12.13,0.00,-1.52,1.75,30.73,1263,1290,1293,1268,1279,1632,1504,11408,814
216326,1,-1.87,-4.38,51.10,0.110,-0.128,0.901,-0.20,-5.64,11.43,0.00,11.63,5.64,0.00,51.82,10.62,53.70,15.01,0.00,0.63,4.01,36.99,1263,1290,1293,1268,1279,1627,1504,11420,814
216339,1,-4.12,-7.91,50.76,0.178,-0.112,0.740,-0.15,-3.48,11.43,0.00,11.58,3.48,0.00,51.73,3.13,55.85,11.04,0.00,1.60,4.57,19.57,1263,1290,1293,1268,1279,1627,1504,11449,814
216351,1,-8.13,-2.29,50.55,-0.036,-0.034,0.907,0.46,-2.11,11.43,0.00,10.97,2.11,0.00,49.72,-1.67,57.86,0.62,0.00,3.46,0.50,39.96,1238,1312,1318,1245,1279,1627,1504,11449,814
216363,1,-11.86,-5.80,50.62,-0.085,0.064,0.964,1.09,0.09,11.43,0.00,10.34,-0.09,0.00,47.62,-9.35,59.48,-3.55,0.00,5.19,0.62,38.11,1238,1312,1318,1245,1279,1627,1504,11466,814
216374,1,-11.07,-2.44,51.06,-0.045,0.097,0.944,0.95,1.22,11.97,0.00,11.02,-1.22,0.00,50.12,-13.33,61.19,-10.89,0.00,5.02,-2.06,31.55,1238,1312,1318,1245,1279,1633,1498,11466,814
216386,1,-9.03,0.71,52.40,-0.003,0.226,0.973,0.45,1.71,11.25,0.00,10.80,-1.71,0.00,49.44,-15.06,58.47,-15.76,0.00,4.69,-3.91,18.31,1238,1312,1318,1245,1279,1625,1504,11462,814
216399,1,-6.51,1.26,52.70,0.146,0.389,0.907,0.40,2.09,11.25,0.00,10.85,-2.09,0.00,49.72,-16.40,56.23,-17.66,0.00,4.14,-3.49,7.43,1238,1312,1318,1245,1279,1625,1504,11437,814
