time_ms,flags,gyro_x,gyro_y,gyro_z,accel_x,accel_y,accel_z,roll,pitch,angle_sp_roll,angle_sp_pitch,angle_err_roll,angle_err_pitch,angle_i_roll,rate_sp_roll,rate_sp_pitch,rate_err_roll,rate_err_pitch,rate_i_roll,pid_roll,pid_pitch,pid_yaw,m1,m2,m3,m4,rc_thr,rc_roll,rc_pitch,battery_mv,loop_us
167419,9,0.12,-0.07,0.05,0.021,-0.052,0.890,-1.81,1.02,0.00,0.00,1.81,-1.02,0.00,6.32,-3.58,6.20,-3.51,0.00,0.23,-0.12,-0.16,1000,1000,1000,1000,1019,1504,1504,12032,816
167431,9,0.19,-0.03,0.04,0.021,-0.053,0.890,-1.82,1.03,0.00,0.00,1.82,-1.03,0.00,6.38,-3.60,6.19,-3.56,0.00,0.21,-0.14,0.01,1000,1000,1000,1000,1019,1504,1504,12032,816
167442,9,0.11,-0.06,0.04,0.020,-0.053,0.889,-1.85,1.03,0.00,0.00,1.85,-1.03,0.00,6.47,-3.61,6.36,-3.55,0.00,0.26,-0.13,-0.04,1000,1000,1000,1000,1019,1504,1504,12032,816
167454,9,0.12,-0.08,0.09,0.020,-0.052,0.889,-1.85,1.03,0.00,0.00,1.85,-1.03,0.00,6.49,-3.60,6.36,-3.52,0.00,0.26,-0.13,-0.84,1100,1100,1100,1100,1019,1504,1504,12032,817
167466,9,0.12,0.01,0.08,0.019,-0.052,0.891,-1.85,1.02,0.00,0.00,1.85,-1.02,0.00,6.47,-3.57,6.35,-3.58,0.00,0.25,-0.17,-0.56,1100,1100,1100,1100,1019,1504,1504,12032,817
167479,9,0.10,0.01,0.04,0.020,-0.053,0.891,-1.86,1.02,0.00,0.00,1.86,-1.02,0.00,6.52,-3.56,6.42,-3.58,0.00,0.26,-0.16,0.05,1100,1100,1100,1100,1019,1504,1504,12032,817
167491,9,0.14,-0.00,0.04,0.020,-0.053,0.889,-1.87,1.02,0.00,0.00,1.87,-1.02,0.00,6.55,-3.57,6.40,-3.56,0.00,0.25,-0.14,0.01,1100,1100,1100,1100,1019,1504,1504,12028,817
167502,9,0.17,-0.05,0.09,0.020,-0.053,0.887,-1.87,1.01,0.00,0.00,1.87,-1.01,0.00,6.56,-3.55,6.38,-3.50,0.00,0.24,-0.12,-0.81,1100,1100,1100,1100,1019,1504,1504,12028,817
167514,9,0.18,-0.06,-0.08,0.020,-0.052,0.888,-1.88,1.02,0.00,0.00,1.88,-1.02,0.00,6.58,-3.58,6.40,-3.52,0.00,0.24,-0.12,2.12,1100,1100,1100,1100,1019,1504,1504,12019,817
167527,9,0.14,0.01,-0.09,0.023,-0.052,0.889,-1.87,1.04,0.00,0.00,1.87,-1.04,0.00,6.55,-3.63,6.42,-3.64,0.00,0.27,-0.16,1.23,1100,1100,1100,1100,1019,1500,1508,12024,817
167539,9,0.10,-0.02,0.17,0.022,-0.052,0.889,-1.88,1.05,0.00,0.00,1.88,-1.05,0.00,6.56,-3.69,6.47,-3.67,0.00,0.29,-0.15,-3.49,1100,1100,1100,1100,1019,1500,1508,12015,817
167551,9,0.03,-0.08,0.47,0.021,-0.052,0.890,-1.86,1.04,0.00,0.00,1.86,-1.04,0.00,6.52,-3.63,6.49,-3.54,0.00,0.29,-0.12,-6.60,1100,1100,1100,1100,1019,1504,1504,12015,817
167562,9,-0.04,-0.04,0.24,0.022,-0.053,0.888,-1.89,1.03,0.00,0.00,1.89,-1.03,0.00,6.63,-3.59,6.67,-3.55,0.00,0.31,-0.14,-0.21,1100,1100,1100,1100,1019,1504,1504,12015,817
167574,9,0.18,0.05,-0.21,0.022,-0.048,0.890,-1.85,1.02,0.00,0.00,1.85,-1.02,0.00,6.47,-3.58,6.29,-3.62,0.00,0.21,-0.18,6.39,1100,1100,1100,1100,1019,1504,1504,12015,817
167586,9,0.32,-0.00,-0.26,0.024,-0.051,0.892,-1.82,1.06,0.00,0.00,1.82,-1.06,0.00,6.38,-3.71,6.06,-3.71,0.00,0.18,-0.15,4.01,1100,1100,1100,1100,1019,1504,1504,12011,817
167599,9,0.16,-0.03,0.02,0.020,-0.055,0.891,-1.86,1.06,0.00,0.00,1.86,-1.06,0.00,6.53,-3.70,6.36,-3.66,0.00,0.27,-0.14,-1.84,1100,1100,1100,1100,1019,1504,1504,12011,817
167611,9,0.01,0.08,0.22,0.015,-0.053,0.894,-1.88,1.00,0.00,0.00,1.88,-1.00,0.00,6.59,-3.48,6.58,-3.57,0.00,0.33,-0.20,-4.04,1100,1100,1100,1100,1019,1504,1504,12007,817
167623,9,0.06,0.12,0.33,0.027,-0.053,0.888,-1.88,1.01,0.00,0.00,1.88,-1.01,0.00,6.59,-3.53,6.53,-3.65,0.00,0.29,-0.21,-4.02,1100,1100,1100,1100,1019,1501,1504,11999,817
167634,9,0.06,-0.03,-0.53,0.033,-0.048,0.880,-1.88,1.12,0.00,0.00,1.88,-1.12,0.00,6.58,-3.94,6.52,-3.90,0.00,0.29,-0.16,10.63,1100,1100,1100,1100,1019,1501,1507,11999,817
167646,9,0.15,-0.31,-0.43,0.021,-0.035,0.887,-1.77,1.13,0.00,0.00,1.77,-1.13,0.00,6.20,-3.94,6.05,-3.63,0.00,0.26,-0.05,3.53,1100,1100,1100,1100,1019,1504,1504,11990,817
167659,9,0.02,-0.42,0.80,0.037,-0.050,0.880,-1.71,1.28,0.00,0.00,1.71,-1.28,0.00,5.98,-4.49,5.96,-4.08,0.00,0.30,-0.05,-17.56,1100,1100,1100,1100,1019,1504,1504,11982,814
167671,9,-0.31,0.49,0.76,0.024,-0.049,0.897,-1.82,1.10,0.00,0.00,1.82,-1.10,0.00,6.39,-3.84,6.69,-4.33,0.00,0.44,-0.43,-8.10,1100,1100,1100,1100,1020,1504,1504,11961,814
167682,9,-0.17,0.32,-0.43,0.042,-0.046,0.863,-1.92,1.07,0.00,0.00,1.92,-1.07,0.00,6.70,-3.75,6.88,-4.07,0.00,0.37,-0.28,13.17,1100,1100,1100,1100,1020,1503,1504,11953,814
167694,9,0.45,-0.03,-0.78,0.045,-0.037,0.881,-1.87,1.17,0.00,0.00,1.87,-1.17,0.00,6.56,-4.11,6.11,-4.08,0.00,0.09,-0.11,11.94,1100,1100,1100,1100,1019,1503,1505,11949,814
167706,9,0.55,0.25,0.27,0.023,-0.038,0.900,-1.81,1.17,0.00,0.00,1.81,-1.17,0.00,6.35,-4.10,5.79,-4.35,0.00,0.06,-0.24,-9.83,1100,1100,1100,1100,1019,1503,1505,11924,814
167719,9,-0.00,-0.21,0.98,0.023,-0.044,0.879,-1.77,1.18,0.00,0.00,1.77,-1.18,0.00,6.20,-4.14,6.20,-3.93,0.00,0.32,-0.07,-15.90,1100,1100,1100,1100,1019,1503,1505,11903,814
167731,9,0.00,0.22,0.15,0.013,-0.061,0.906,-1.83,1.14,0.00,0.00,1.83,-1.14,0.00,6.40,-4.00,6.40,-4.23,0.00,0.29,-0.28,4.01,1100,1100,1100,1100,1019,1503,1505,11911,814
167742,9,-0.03,0.63,-0.71,0.003,-0.068,0.905,-1.97,1.00,0.00,0.00,1.97,-1.00,0.00,6.88,-3.49,6.91,-4.12,0.00,0.29,-0.37,14.09,1100,1100,1100,1100,1019,1503,1505,11907,814
167754,9,-0.02,-0.42,-0.27,0.020,-0.056,0.882,-2.03,0.95,0.00,0.00,2.03,-0.95,0.00,7.10,-3.31,7.11,-2.89,0.00,0.26,0.11,0.20,1100,1100,1100,1100,1019,1503,1505,11870,814
167766,9,-0.05,-0.22,0.86,0.012,-0.057,0.896,-2.04,1.04,0.00,0.00,2.04,-1.04,0.00,7.16,-3.63,7.21,-3.41,0.00,0.28,-0.06,-17.08,1100,1100,1100,1100,1019,1503,1505,11878,814
167779,9,0.45,-0.81,0.64,0.014,-0.063,0.885,-2.11,0.85,0.00,0.00,2.11,-0.85,0.00,7.39,-2.98,6.95,-2.17,0.00,0.09,0.28,-5.96,1100,1100,1100,1100,1019,1503,1505,11895,814
167791,9,0.36,-0.10,-0.67,-0.000,-0.056,0.886,-2.07,0.69,0.00,0.00,2.07,-0.69,0.00,7.25,-2.41,6.89,-2.32,0.00,0.18,-0.12,16.40,1100,1100,1100,1100,1019,1503,1505,11890,814
167802,9,0.44,0.23,-0.99,0.034,-0.039,0.899,-1.82,0.78,0.00,0.00,1.82,-0.78,0.00,6.37,-2.75,5.94,-2.98,0.00,0.19,-0.25,13.75,1100,1100,1100,1100,1019,1503,1505,11878,814
167814,9,-0.89,0.16,0.18,0.063,-0.034,0.886,-1.59,1.34,0.00,0.00,1.59,-1.34,0.00,5.57,-4.70,6.46,-4.87,0.00,0.72,-0.27,-10.68,1100,1100,1100,1100,1019,1503,1505,11890,814
167827,9,-1.08,1.02,1.47,0.006,-0.053,0.882,-1.71,1.29,0.00,0.00,1.71,-1.29,0.00,5.99,-4.50,7.06,-5.52,0.00,0.58,-0.57,-25.55,1100,1100,1100,1100,1019,1503,1505,11882,814
167839,9,-0.38,-0.06,0.67,0.006,-0.062,0.869,-1.99,0.88,0.00,0.00,1.99,-0.88,0.00,6.95,-3.07,7.33,-3.01,0.00,0.19,0.11,-1.71,1100,1100,1100,1100,1019,1503,1505,11890,814
167851,9,0.63,-0.51,-1.28,0.053,-0.025,0.863,-1.72,1.08,0.00,0.00,1.72,-1.08,0.00,6.01,-3.79,5.37,-3.27,0.00,-0.07,0.08,27.77,1100,1100,1100,1100,1019,1503,1505,11895,814
167862,9,0.74,1.24,-1.12,0.032,-0.075,0.925,-1.94,1.22,0.00,0.00,1.94,-1.22,0.00,6.79,-4.27,6.05,-5.52,0.00,0.01,-0.59,13.52,1100,1100,1100,1100,1019,1503,1505,11895,814
167874,9,-0.32,-0.33,1.07,-0.028,-0.044,0.903,-1.96,1.05,0.00,0.00,1.96,-1.05,0.00,6.86,-3.66,7.19,-3.34,0.00,0.41,0.14,-25.94,1100,1100,1100,1100,1019,1503,1505,11895,814
167886,9,-1.08,0.15,1.34,0.019,-0.023,0.857,-1.18,0.97,0.00,0.00,1.18,-0.97,0.00,4.14,-3.38,5.22,-3.54,0.00,0.59,-0.27,-18.39,1100,1100,1100,1100,1019,1503,1505,11890,814
167899,9,0.04,1.25,-0.06,0.062,-0.080,0.928,-1.62,1.30,0.00,0.00,1.62,-1.30,0.00,5.67,-4.55,5.63,-5.80,0.00,0.27,-0.53,10.12,1100,1100,1100,1100,1019,1503,1505,11890,814
167911,9,-0.95,-1.10,-0.87,0.041,-0.022,0.814,-1.95,1.40,0.00,0.00,1.95,-1.40,0.00,6.81,-4.89,7.76,-3.79,0.00,0.69,0.44,16.38,1100,1100,1100,1100,1019,1503,1505,11907,814
167922,9,0.06,1.31,-0.57,0.042,-0.038,0.898,-1.90,1.10,0.00,0.00,1.90,-1.10,0.00,6.64,-3.84,6.58,-5.15,0.00,-0.07,-0.59,6.43,1100,1100,1100,1100,1019,1503,1505,11903,814
167935,9,1.56,-2.38,0.95,0.057,-0.010,0.843,-1.85,1.38,0.00,0.00,1.85,-1.38,0.00,6.49,-4.82,4.93,-2.45,0.00,-0.56,0.94,-20.55,1100,1100,1100,1100,1019,1503,1505,11903,814
167946,9,0.29,0.93,0.79,-0.003,-0.087,0.906,-2.05,1.11,0.00,0.00,2.05,-1.11,0.00,7.19,-3.90,6.90,-4.84,0.00,0.06,-0.44,-8.34,1100,1100,1100,1100,1019,1503,1506,11907,814
167959,9,-0.85,-0.03,-0.26,-0.008,-0.057,0.951,-2.12,1.10,0.00,0.00,2.12,-1.10,0.00,7.40,-3.84,8.26,-3.81,0.00,0.55,0.09,9.17,1100,1100,1100,1100,1019,1503,1506,11903,815
167971,9,0.04,2.63,-0.46,-0.041,-0.051,0.886,-1.62,0.54,0.00,0.00,1.62,-0.54,0.00,5.67,-1.89,5.63,-4.52,0.00,-0.04,-0.99,9.31,1100,1100,1100,1100,1019,1502,1506,11899,815
167982,9,0.19,0.07,-0.21,0.017,-0.053,0.920,-1.67,0.53,0.00,0.00,1.67,-0.53,0.00,5.86,-1.85,5.67,-1.91,0.00,0.10,0.49,-0.03,1100,1100,1100,1100,1019,1502,1506,11895,815
167994,9,-0.26,-0.69,0.79,0.031,-0.112,0.888,-1.99,1.07,0.00,0.00,1.99,-1.07,0.00,6.96,-3.73,7.22,-3.05,0.00,0.33,0.37,-11.87,1100,1100,1100,1100,1019,1502,1506,11903,815
168006,9,-0.05,-2.15,0.31,0.027,-0.059,0.851,-2.23,1.59,0.00,0.00,2.23,-1.59,0.00,7.79,-5.56,7.84,-3.41,0.00,0.31,0.57,-2.48,1100,1100,1100,1100,1019,1502,1506,11907,815
168019,9,0.55,-0.45,-0.15,0.058,-0.090,0.898,-2.42,1.80,0.00,0.00,2.42,-1.80,0.00,8.48,-6.29,7.93,-5.83,0.00,0.19,-0.46,9.26,1100,1100,1100,1100,1019,1502,1506,11895,815
168031,9,-0.36,-1.10,-0.30,0.060,-0.066,0.810,-2.52,2.62,0.00,0.00,2.52,-2.62,0.00,8.82,-9.19,9.18,-8.09,0.00,0.73,-0.37,2.31,1100,1100,1100,1100,1019,1502,1506,11899,815
168042,9,-0.46,1.35,0.05,0.028,-0.037,0.940,-2.48,2.05,0.00,0.00,2.48,-2.05,0.00,8.67,-7.16,9.13,-8.51,0.00,0.66,-1.17,-0.40,1100,1100,1100,1100,1019,1502,1506,11903,815
168054,9,-0.50,-0.11,0.84,0.031,-0.044,0.778,-2.11,2.24,0.00,0.00,2.11,-2.24,0.00,7.39,-7.83,7.89,-7.72,0.00,0.53,-0.40,-17.40,1100,1100,1100,1100,1019,1502,1506,11911,815
168066,9,-0.57,1.25,-0.43,0.031,-0.095,0.928,-2.37,2.02,0.00,0.00,2.37,-2.02,0.00,8.28,-7.08,8.85,-8.33,0.00,0.64,-1.04,12.76,1100,1100,1100,1100,1019,1502,1506,11907,815
168079,9,0.05,1.37,0.67,-0.059,-0.048,0.899,-2.40,1.42,0.00,0.00,2.40,-1.42,0.00,8.41,-4.97,8.36,-6.35,0.00,0.19,-0.67,-14.65,1100,1100,1100,1100,1019,1502,1506,11907,815
168091,9,-0.50,1.64,-1.10,-0.029,-0.035,0.941,-2.21,0.64,0.00,0.00,2.21,-0.64,0.00,7.73,-2.23,8.23,-3.87,0.00,0.36,-0.47,20.35,1100,1100,1100,1100,1019,1502,1506,11911,815
168102,9,1.10,0.48,1.10,0.004,-0.048,0.863,-2.20,0.10,0.00,0.00,2.20,-0.10,0.00,7.69,-0.36,6.59,-0.84,0.00,-0.31,0.46,-21.60,1100,1100,1100,1100,1019,1502,1506,11911,815
168114,9,0.55,-0.80,-0.06,0.031,-0.046,0.908,-2.04,0.31,0.00,0.00,2.04,-0.31,0.00,7.13,-1.10,6.57,-0.30,0.00,-0.10,0.98,4.67,1100,1100,1100,1100,1019,1502,1506,11911,815
168126,9,-0.25,-0.76,0.42,0.020,-0.054,0.885,-2.31,0.29,0.00,0.00,2.31,-0.29,0.00,8.09,-1.00,8.34,-0.24,0.00,0.56,0.56,-2.97,1100,1100,1100,1100,1019,1502,1506,11907,815
168139,9,-0.10,2.55,-0.45,0.013,-0.067,0.879,-2.10,0.10,0.00,0.00,2.10,-0.10,0.00,7.33,-0.36,7.43,-2.91,0.00,0.26,-0.77,8.36,1100,1100,1100,1100,1019,1502,1506,11903,815
168151,9,-0.69,0.32,-0.20,0.072,-0.024,0.891,-1.81,0.81,0.00,0.00,1.81,-0.81,0.00,6.32,-2.84,7.01,-3.15,0.00,0.71,0.08,5.02,1100,1100,1100,1100,1019,1502,1506,11911,816
168162,9,3.26,-0.52,0.39,0.044,-0.074,0.887,-2.06,1.00,0.00,0.00,2.06,-1.00,0.00,7.21,-3.49,3.94,-2.97,0.00,-1.17,0.38,-5.86,1100,1100,1100,1100,1019,1502,1506,11911,816
168174,9,-2.95,-0.33,-0.15,0.033,0.006,0.823,-1.45,1.89,0.00,0.00,1.45,-1.89,0.00,5.07,-6.63,8.02,-6.30,0.00,1.75,-0.48,6.55,1100,1100,1100,1100,1019,1502,1506,11920,816
168186,9,1.76,-3.44,-0.24,0.062,-0.002,0.905,-1.93,2.19,0.00,0.00,1.93,-2.19,0.00,6.74,-7.67,4.98,-4.23,0.00,-0.44,0.81,2.22,1100,1100,1100,1100,1019,1502,1506,11907,816
168199,9,-0.65,0.37,-0.31,0.061,-0.075,0.815,-1.87,2.45,0.00,0.00,1.87,-2.45,0.00,6.56,-8.58,7.21,-8.96,0.00,0.47,-1.08,-0.22,1100,1100,1100,1100,1019,1502,1506,11903,816
168211,9,-0.42,-5.12,1.00,0.138,0.029,0.780,-1.65,3.62,0.00,0.00,1.65,-3.62,0.00,5.79,-12.66,6.21,-7.54,0.00,0.62,1.17,-20.44,1100,1100,1100,1100,1019,1502,1506,11903,816
168222,9,2.84,-1.17,1.04,0.042,-0.069,0.919,-2.05,3.17,0.00,0.00,2.05,-3.17,0.00,7.17,-11.08,4.33,-9.91,0.00,-1.27,-0.38,-10.76,1100,1100,1100,1100,1019,1501,1506,11895,816
168235,9,-2.60,0.79,-0.72,0.009,-0.076,0.811,-1.85,2.95,0.00,0.00,1.85,-2.95,0.00,6.48,-10.33,9.08,-11.11,0.00,1.40,-1.08,21.89,1100,1100,1100,1100,1019,1501,1507,11899,816
168246,9,1.96,0.45,-1.38,0.017,-0.109,0.955,-2.41,1.73,0.00,0.00,2.41,-1.73,0.00,8.45,-6.07,6.49,-6.52,0.00,-0.25,-0.50,24.31,1100,1100,1100,1100,1019,1501,1507,11899,816
168259,9,-0.68,3.46,0.38,-0.016,-0.073,0.808,-2.32,1.64,0.00,0.00,2.32,-1.64,0.00,8.12,-5.75,8.79,-9.21,0.00,0.70,-1.91,-14.67,1100,1100,1100,1100,1019,1501,1507,11899,816
168271,9,0.33,-0.10,0.56,0.004,0.065,1.027,-1.82,1.54,0.00,0.00,1.82,-1.54,0.00,6.38,-5.38,6.05,-5.28,0.00,0.22,-0.06,-13.96,1100,1100,1100,1100,1019,1501,1507,11907,816
168282,9,0.76,0.56,0.64,0.015,0.015,0.856,-1.69,0.78,0.00,0.00,1.69,-0.78,0.00,5.92,-2.74,5.16,-3.30,0.00,-0.20,0.15,-5.30,1100,1100,1100,1100,1019,1501,1507,11907,816
168294,9,-2.49,-0.38,0.10,0.064,-0.013,0.695,-1.32,1.32,0.00,0.00,1.32,-1.32,0.00,4.62,-4.63,7.11,-4.25,0.00,1.26,0.38,3.47,1100,1100,1100,1100,1019,1501,1507,11911,816
168306,9,0.53,-2.60,-0.97,0.083,-0.040,0.960,-1.80,1.57,0.00,0.00,1.80,-1.57,0.00,6.31,-5.51,5.79,-2.91,0.00,-0.23,1.04,17.74,1100,1100,1100,1100,1019,1501,1507,11899,816
168319,9,3.26,-3.63,0.30,-0.005,-0.138,0.878,-2.20,1.51,0.00,0.00,2.20,-1.51,0.00,7.69,-5.27,4.43,-1.65,0.00,-1.17,0.89,-10.12,1100,1100,1100,1100,1019,1501,1507,11907,816
168331,9,-0.10,0.70,-0.05,0.048,-0.054,0.815,-2.04,1.28,0.00,0.00,2.04,-1.28,0.00,7.13,-4.49,7.23,-5.20,0.00,0.90,-1.26,1.33,1100,1100,1100,1100,1019,1501,1507,11911,816
168343,9,-0.29,-0.72,0.52,0.038,-0.086,0.985,-2.43,1.93,0.00,0.00,2.43,-1.93,0.00,8.50,-6.74,8.79,-6.02,0.00,1.06,-0.82,-4.60,1100,1100,1100,1100,1019,1500,1507,11907,816
168354,9,1.47,5.10,0.35,-0.068,-0.071,1.005,-2.17,1.13,0.00,0.00,2.17,-1.13,0.00,7.58,-3.97,6.11,-9.07,0.00,-0.30,-2.56,-6.60,1100,1100,1100,1100,1019,1500,1508,11907,850
168366,9,-3.80,3.42,-0.78,0.021,0.072,0.901,-1.22,1.54,0.00,0.00,1.22,-1.54,0.00,4.26,-5.40,8.06,-8.82,0.00,1.90,-1.39,12.54,1100,1100,1100,1100,1019,1505,1503,11907,850
168379,9,-2.58,-0.60,0.77,0.099,0.007,0.861,-1.40,1.97,0.00,0.00,1.40,-1.97,0.00,4.90,-6.88,7.47,-6.28,0.00,1.05,0.92,-16.27,1100,1100,1100,1100,1019,1505,1503,11907,850
168391,9,-1.51,0.32,1.22,0.084,-0.190,0.846,-2.23,2.67,0.00,0.00,2.23,-2.67,0.00,7.80,-9.33,9.30,-9.65,0.00,0.37,-0.16,-18.66,1100,1100,1100,1100,1019,1501,1507,11911,850
168402,9,-1.59,0.20,-0.06,0.009,-0.123,0.808,-2.62,2.56,0.00,0.00,2.62,-2.56,0.00,9.17,-8.95,10.76,-9.14,0.00,0.95,-0.56,11.13,1100,1100,1100,1100,1019,1501,1507,11903,850
168415,9,3.77,-1.63,-0.63,-0.029,-0.043,0.960,-3.18,1.52,0.00,0.00,3.18,-1.52,0.00,11.13,-5.30,7.36,-3.67,0.00,-1.30,0.48,14.91,1100,1100,1100,1100,1019,1501,1507,11899,850
168426,9,-1.83,2.19,-0.50,-0.104,-0.074,0.836,-2.86,0.89,0.00,0.00,2.86,-0.89,0.00,10.01,-3.13,11.84,-5.31,0.00,1.17,-1.37,4.27,1100,1100,1100,1100,1019,1501,1507,11911,850
168439,9,1.75,-1.66,0.39,0.102,0.014,0.936,-2.14,0.72,0.00,0.00,2.14,-0.72,0.00,7.48,-2.53,5.73,-0.88,0.00,-0.25,0.96,-10.44,1100,1100,1100,1100,1019,1501,1507,11907,850
168451,9,4.63,-3.68,0.44,0.052,-0.013,0.897,-2.28,0.85,0.00,0.00,2.28,-0.85,0.00,7.99,-2.96,3.36,0.71,0.00,-1.78,1.91,-5.21,1100,1100,1100,1100,1019,1516,1492,11911,840
168462,9,-2.59,1.85,-0.42,-0.016,-0.148,0.777,-1.69,1.70,0.00,0.00,1.69,-1.70,0.00,5.93,-5.95,8.52,-7.81,0.00,1.75,-1.34,12.80,1100,1100,1100,1100,1019,1500,1492,11911,840
168474,9,0.16,-0.12,-0.89,-0.012,-0.139,0.953,-2.49,0.64,0.00,0.00,2.49,-0.64,0.00,8.70,-2.22,8.54,-2.10,0.00,0.48,0.18,18.00,1100,1100,1100,1100,1019,1500,1508,11911,840
168486,9,4.28,-0.35,0.22,-0.090,-0.177,0.956,-3.03,-0.39,0.00,0.00,3.03,0.39,0.00,10.60,1.36,6.32,1.72,0.00,-1.55,0.42,-7.32,1100,1100,1100,1100,1019,1500,1508,11903,840
168499,9,-0.74,-0.21,0.92,0.025,-0.026,0.751,-2.54,0.58,0.00,0.00,2.54,-0.58,0.00,8.88,-2.03,9.62,-1.82,0.00,1.27,-0.44,-18.31,1100,1100,1100,1100,1019,1500,1508,11911,840
168511,9,0.14,-0.55,0.07,-0.010,-0.130,1.053,-3.04,0.79,0.00,0.00,3.04,-0.79,0.00,10.63,-2.76,10.49,-2.21,0.00,0.59,-0.00,5.40,1100,1100,1100,1100,1019,1500,1508,11903,840
168522,9,3.05,-3.05,0.44,0.074,-0.059,0.983,-2.15,1.03,0.00,0.00,2.15,-1.03,0.00,7.52,-3.61,4.47,-0.56,0.00,-0.88,1.29,-3.07,1100,1100,1100,1100,1019,1500,1508,11911,840
168534,9,0.35,-3.62,-0.73,0.097,0.042,0.695,-1.66,1.87,0.00,0.00,1.66,-1.87,0.00,5.82,-6.54,5.47,-2.92,0.00,1.01,0.46,15.00,1100,1100,1100,1100,1019,1500,1508,11903,840
168547,9,0.56,-1.90,0.06,-0.009,-0.091,0.943,-2.37,1.65,0.00,0.00,2.37,-1.65,0.00,8.29,-5.76,7.72,-3.86,0.00,0.94,-0.65,-4.42,1100,1100,1100,1100,1019,1503,1505,11907,840
168559,9,-0.86,5.74,0.93,-0.024,-0.130,0.903,-2.45,1.36,0.00,0.00,2.45,-1.36,0.00,8.57,-4.76,9.43,-10.50,0.00,0.85,-3.31,-21.41,1100,1100,1100,1100,1019,1503,1505,11895,850
168571,9,-6.14,7.23,0.42,-0.057,0.003,1.050,-1.71,1.28,0.00,0.00,1.71,-1.28,0.00,5.98,-4.48,12.12,-11.71,0.00,2.73,-3.34,-4.87,1100,1100,1100,1100,1019,1500,1508,11890,850
168582,9,-0.42,-4.11,0.70,0.219,0.094,0.833,-1.45,2.50,0.00,0.00,1.45,-2.50,0.00,5.07,-8.76,5.50,-4.65,0.00,-0.09,2.35,-7.00,1100,1100,1100,1100,1019,1500,1508,11882,850
168594,9,-1.62,3.06,0.26,0.054,-0.073,0.640,-1.66,3.31,0.00,0.00,1.66,-3.31,0.00,5.82,-11.59,7.44,-14.65,0.00,0.06,-1.58,-2.77,1100,1100,1100,1100,1019,1500,1508,11882,850
168606,9,-0.63,-0.41,-0.70,0.081,0.070,0.937,-1.09,3.05,0.00,0.00,1.09,-3.05,0.00,3.82,-10.66,4.45,-10.25,0.00,0.04,-0.06,12.51,1100,1100,1100,1100,1019,1500,1508,11895,850
168619,9,2.59,-0.78,0.06,-0.023,-0.067,0.931,-2.30,1.43,0.00,0.00,2.30,-1.43,0.00,8.07,-5.00,5.47,-4.23,0.00,-1.03,0.72,-4.70,1100,1100,1100,1100,1019,1500,1508,11899,850
168631,9,-0.34,0.17,0.90,-0.054,-0.098,0.707,-2.66,0.74,0.00,0.00,2.66,-0.74,0.00,9.32,-2.60,9.67,-2.78,0.00,0.56,-0.14,-16.79,1100,1100,1100,1100,1019,1500,1508,11907,850
168642,9,1.42,-0.13,0.66,0.003,0.110,0.904,-2.29,0.13,0.00,0.00,2.29,-0.13,0.00,8.02,-0.46,6.60,-0.33,0.00,0.04,-0.10,-8.45,1100,1100,1100,1100,1019,1500,1508,11903,850
168655,9,1.83,1.97,-0.47,0.013,-0.080,0.929,-2.63,0.35,0.00,0.00,2.63,-0.35,0.00,9.20,-1.23,7.37,-3.20,0.00,-0.67,-0.11,11.96,1100,1100,1100,1100,1019,1500,1508,11907,870
168666,9,-1.89,2.51,-0.63,0.104,0.004,0.812,-0.99,1.17,0.00,0.00,0.99,-1.17,0.00,3.48,-4.09,5.37,-6.60,0.00,0.94,-0.56,8.72,1100,1100,1100,1100,1019,1504,1504,11890,870
168679,9,3.17,-4.54,-0.21,0.132,0.060,0.790,-0.46,1.75,0.00,0.00,0.46,-1.75,0.00,1.60,-6.13,-1.57,-1.58,0.00,-1.19,2.18,-1.26,1100,1100,1100,1100,1019,1504,1504,11890,870
168691,9,0.93,-0.85,0.00,0.020,-0.127,0.911,-0.94,2.12,0.00,0.00,0.94,-2.12,0.00,3.28,-7.41,2.35,-6.56,0.00,-0.41,0.42,1.87,1100,1100,1100,1100,1019,1500,1508,11886,870
168702,9,-3.02,3.08,-0.18,-0.058,-0.155,0.873,-1.95,1.35,0.00,0.00,1.95,-1.35,0.00,6.83,-4.71,9.85,-7.79,0.00,1.49,-1.49,6.20,1100,1100,1100,1100,1019,1500,1508,11882,870
168714,9,-1.63,0.83,-0.41,-0.063,-0.104,0.860,-2.80,0.61,0.00,0.00,2.80,-0.61,0.00,9.79,-2.13,11.42,-2.96,0.00,0.92,-0.12,10.24,1100,1100,1100,1100,1019,1500,1508,11895,870
168726,9,5.90,-2.89,0.39,-0.058,0.010,0.985,-2.86,-0.63,0.00,0.00,2.86,0.63,0.00,10.01,2.22,4.11,5.10,0.00,-2.56,1.84,-9.16,1100,1100,1100,1100,1019,1500,1508,11895,870
168739,9,-0.81,0.40,-0.28,-0.011,-0.133,0.840,-2.56,0.09,0.00,0.00,2.56,-0.09,0.00,8.96,-0.31,9.77,-0.71,0.00,1.01,-0.38,1.79,1100,1100,1100,1100,1019,1500,1508,11903,870
168751,9,0.82,-2.48,-0.35,0.106,-0.096,0.959,-1.83,0.47,0.00,0.00,1.83,-0.47,0.00,6.42,-1.64,5.59,0.84,0.00,0.65,0.85,6.92,1100,1100,1100,1100,1019,1501,1507,11911,998
168762,9,4.43,-1.24,0.03,-0.011,-0.086,1.062,-1.92,0.01,0.00,0.00,1.92,-0.01,0.00,6.70,-0.02,2.27,1.22,0.00,-1.38,0.24,0.23,1100,1100,1100,1100,1019,1501,1507,11911,998
168774,9,-5.62,4.20,0.25,-0.047,-0.066,0.856,-1.47,0.60,0.00,0.00,1.47,-0.60,0.00,5.13,-2.09,10.76,-6.29,0.00,3.14,-2.59,-2.44,1100,1100,1100,1100,1019,1501,1507,11915,998
168786,9,-2.08,0.64,-0.01,0.086,-0.099,0.894,-2.29,1.35,0.00,0.00,2.29,-1.35,0.00,8.03,-4.74,10.11,-5.38,0.00,1.15,-0.35,1.43,1100,1100,1100,1100,1019,1500,1508,11911,998
168799,9,1.75,1.21,0.41,-0.061,-0.181,0.963,-2.67,0.83,0.00,0.00,2.67,-0.83,0.00,9.34,-2.89,7.59,-4.11,0.00,-1.09,-0.20,-6.22,1100,1100,1100,1100,1019,1500,1508,11907,998
168811,9,-2.43,-4.97,0.35,0.171,0.090,0.649,-1.49,2.84,0.00,0.00,1.49,-2.84,0.00,5.20,-9.95,7.63,-4.99,0.00,1.60,1.24,-4.22,1100,1100,1100,1100,1019,1500,1508,11895,998
168822,9,1.91,-4.70,-0.35,0.095,-0.125,0.937,-3.03,2.79,0.00,0.00,3.03,-2.79,0.00,10.60,-9.75,8.69,-5.05,0.00,-0.25,0.75,7.62,1100,1100,1100,1100,1019,1500,1508,11895,998
168834,9,2.20,-1.50,0.16,0.074,-0.154,0.960,-2.58,3.34,0.00,0.00,2.58,-3.34,0.00,9.03,-11.69,6.83,-10.19,0.00,-0.49,-1.03,-7.05,1100,1100,1100,1100,1019,1500,1508,11886,998
168846,9,2.68,-3.89,0.00,0.090,0.126,0.717,-1.77,3.01,0.00,0.00,1.77,-3.01,0.00,6.19,-10.54,3.52,-6.65,0.00,-0.05,-0.24,-1.40,1100,1100,1100,1100,1019,1500,1508,11878,998
168859,9,1.88,-2.98,0.76,-0.034,-0.005,0.883,-2.15,1.78,0.00,0.00,2.15,-1.78,0.00,7.53,-6.24,5.65,-3.26,0.00,0.26,-0.04,-10.33,1100,1100,1100,1100,1019,1500,1508,11890,1175
168871,9,-0.30,0.32,0.64,0.026,-0.110,0.826,-2.10,1.43,0.00,0.00,2.10,-1.43,0.00,7.35,-5.01,7.66,-5.33,0.00,0.89,-1.13,-9.88,1100,1100,1100,1100,1019,1501,1507,11907,1175
168882,9,-2.01,0.30,-1.08,0.083,-0.011,0.890,-1.44,2.49,0.00,0.00,1.44,-2.49,0.00,5.04,-8.73,7.05,-9.03,0.00,1.28,-1.17,21.69,1100,1100,1100,1100,1019,1501,1507,11899,1175
168894,9,-1.96,-1.28,0.32,0.177,0.114,0.847,-1.17,3.51,0.00,0.00,1.17,-3.51,0.00,4.09,-12.27,6.04,-10.99,0.00,0.59,0.33,-5.99,1100,1100,1100,1100,1019,1501,1507,11895,1175
168906,9,-3.66,1.66,1.03,0.039,-0.110,0.715,-1.82,3.37,0.00,0.00,1.82,-3.37,0.00,6.36,-11.80,10.03,-13.46,0.00,0.70,-0.66,-19.56,1100,1100,1100,1100,1019,1501,1507,11899,1175
168919,9,-1.45,0.27,0.38,0.094,-0.104,0.816,-2.02,3.79,0.00,0.00,2.02,-3.79,0.00,7.07,-13.25,8.52,-13.52,0.00,-0.02,-0.29,1.37,1100,1100,1100,1100,1019,1501,1507,11895,1175
168931,9,6.14,-4.26,-0.16,0.009,-0.109,0.898,-3.28,2.62,0.00,0.00,3.28,-2.62,0.00,11.46,-9.18,5.32,-4.91,0.00,-2.72,1.51,11.00,1100,1100,1100,1100,1019,1501,1507,11895,1175
168942,9,-1.58,2.82,-1.17,-0.160,-0.130,0.827,-3.28,1.33,0.00,0.00,3.28,-1.33,0.00,11.47,-4.64,13.05,-7.46,0.00,1.47,-2.01,23.10,1100,1100,1100,1100,1019,1500,1507,11895,1175
168955,9,3.13,-2.52,-0.62,0.013,0.015,1.095,-2.89,-0.07,0.00,0.00,2.89,0.07,0.00,10.10,0.26,6.97,2.78,0.00,-0.48,1.30,5.92,1100,1100,1100,1100,1019,1500,1508,11890,815
168966,9,4.32,-1.79,0.37,-0.015,-0.143,1.013,-2.42,0.41,0.00,0.00,2.42,-0.41,0.00,8.47,-1.42,4.15,0.37,0.00,-1.41,0.85,-11.39,1100,1100,1100,1100,1019,1501,1507,11895,815
168979,9,-4.80,1.56,1.12,0.095,-0.052,0.767,-0.78,2.06,0.00,0.00,0.78,-2.06,0.00,2.74,-7.21,7.54,-8.76,0.00,2.73,-1.19,-15.96,1100,1100,1100,1100,1019,1501,1507,11890,815
168991,9,0.71,0.92,-0.19,-0.003,-0.081,1.020,-0.89,1.55,0.00,0.00,0.89,-1.55,0.00,3.11,-5.43,2.40,-6.35,0.00,-0.13,-0.36,10.64,1100,1100,1100,1100,1019,1504,1504,11890,815
169002,9,1.93,2.11,-1.27,-0.107,-0.221,1.004,-1.26,0.77,0.00,0.00,1.26,-0.77,0.00,4.40,-2.69,2.47,-4.80,0.00,-0.88,-0.53,24.69,1100,1100,1100,1100,1019,1504,1504,11895,815
169014,9,-2.89,1.07,-1.33,0.069,-0.064,0.815,-1.56,1.18,0.00,0.00,1.56,-1.18,0.00,5.47,-4.12,8.36,-5.19,0.00,2.03,-0.83,17.65,1100,1100,1100,1100,1019,1504,1504,11899,815
169026,9,-0.86,-1.60,0.69,0.036,-0.060,0.898,-2.29,2.02,0.00,0.00,2.29,-2.02,0.00,8.03,-7.09,8.89,-5.49,0.00,0.98,0.09,-18.57,1100,1100,1100,1100,1019,1504,1504,11895,815
169039,9,1.96,4.68,1.71,-0.110,-0.085,1.084,-2.09,0.85,0.00,0.00,2.09,-0.85,0.00,7.31,-2.97,5.35,-7.66,0.00,-0.91,-2.09,-31.77,1100,1100,1100,1100,1019,1504,1504,11890,815
169051,9,-4.00,4.38,-0.32,0.015,0.016,0.902,-1.06,1.19,0.00,0.00,1.06,-1.19,0.00,3.71,-4.17,7.71,-8.54,0.00,2.00,-1.68,12.59,1100,1100,1100,1100,1019,1504,1504,11886,816
169062,9,-2.57,0.06,-0.71,0.178,-0.013,0.848,-0.68,1.87,0.00,0.00,0.68,-1.87,0.00,2.40,-6.55,4.97,-6.62,0.00,1.30,0.45,13.39,1100,1100,1100,1100,1019,1503,1504,11886,816
169074,9,1.69,3.10,0.28,-0.065,-0.076,0.996,-0.81,1.12,0.00,0.00,0.81,-1.12,0.00,2.84,-3.92,1.15,-7.02,0.00,-1.00,-1.05,-12.58,1100,1100,1100,1100,1019,1503,1505,11882,816
169086,9,-1.52,3.01,0.70,-0.079,0.005,0.827,-0.86,0.05,0.00,0.00,0.86,-0.05,0.00,3.03,-0.16,4.55,-3.17,0.00,1.04,-1.12,-13.50,1100,1100,1100,1100,1019,1503,1505,11890,816
169099,9,0.26,2.71,0.57,-0.002,-0.010,0.892,-2.18,-1.27,0.00,0.00,2.18,1.27,0.00,7.64,4.46,7.38,1.76,0.00,0.32,-0.25,-6.24,1100,1100,1100,1100,1019,1503,1505,11895,816
169111,9,-0.46,-0.79,-0.23,0.020,-0.092,0.896,-2.26,-0.64,0.00,0.00,2.26,0.64,0.00,7.91,2.23,8.37,3.02,0.00,0.16,1.20,5.71,1100,1100,1100,1100,1019,1503,1505,11899,816
169122,9,1.12,-2.57,0.10,0.118,0.130,0.748,-1.14,0.30,0.00,0.00,1.14,-0.30,0.00,3.99,-1.05,2.88,1.52,0.00,-0.10,1.22,-4.00,1100,1100,1100,1100,1019,1503,1505,11903,816
169134,9,2.78,0.18,0.33,-0.007,-0.045,0.883,-1.75,-0.34,0.00,0.00,1.75,0.34,0.00,6.12,1.18,3.34,1.00,0.00,-1.07,0.57,-4.82,1100,1100,1100,1100,1019,1503,1505,11899,816
169146,9,-1.82,2.33,0.97,0.025,-0.069,0.931,-1.31,-0.39,0.00,0.00,1.31,0.39,0.00,4.59,1.36,6.41,-0.97,0.00,1.01,-0.51,-12.01,1100,1100,1100,1100,1019,1503,1505,11903,816
169159,9,4.90,-5.63,0.16,0.085,0.044,0.783,-1.46,-0.22,0.00,0.00,1.46,0.22,0.00,5.11,0.77,0.21,6.40,0.00,-1.60,2.85,5.87,1100,1100,1100,1100,1019,1503,1505,11890,814
169171,9,3.46,-2.80,-1.01,0.015,-0.116,0.830,-2.44,0.52,0.00,0.00,2.44,-0.52,0.00,8.55,-1.84,5.08,0.97,0.00,-0.89,1.02,22.52,1100,1100,1100,1100,1019,1503,1505,11895,814
169182,9,-2.97,2.59,-0.49,-0.085,-0.140,0.930,-2.47,0.44,0.00,0.00,2.47,-0.44,0.00,8.65,-1.52,11.62,-4.11,0.00,1.97,-1.60,1.67,1100,1100,1100,1100,1019,1503,1505,11895,814
169194,9,0.11,1.53,-0.06,-0.009,-0.114,1.021,-2.34,-0.07,0.00,0.00,2.34,0.07,0.00,8.18,0.25,8.07,-1.28,0.00,0.29,-0.20,-2.03,1100,1100,1100,1100,1019,1503,1505,11903,814
169206,9,1.30,-0.70,1.60,-0.005,0.008,0.956,-1.44,0.21,0.00,0.00,1.44,-0.21,0.00,5.05,-0.72,3.75,-0.02,0.00,-0.68,0.94,-25.61,1100,1100,1100,1100,1019,1503,1505,11907,814
169219,9,-5.06,4.85,-0.01,-0.052,-0.127,0.881,-1.54,0.10,0.00,0.00,1.54,-0.10,0.00,5.39,-0.35,10.45,-5.20,0.00,2.13,-1.53,9.31,1100,1100,1100,1100,1019,1503,1505,11895,814
169231,9,-2.16,2.14,-1.51,-0.033,-0.184,0.977,-1.99,-0.17,0.00,0.00,1.99,0.17,0.00,6.95,0.59,9.11,-1.55,0.00,0.92,-0.26,32.26,1100,1100,1100,1100,1019,1503,1505,11895,814
169242,9,3.82,1.14,-0.48,-0.044,-0.129,0.898,-2.70,-1.40,0.00,0.00,2.70,1.40,0.00,9.46,4.91,5.64,3.77,0.00,-1.72,0.47,2.32,1100,1100,1100,1100,1019,1503,1505,11890,814
169256,9,-3.68,-1.03,0.07,0.053,-0.078,0.809,-2.82,0.04,0.00,0.00,2.82,-0.04,0.00,9.89,-0.14,13.57,0.89,0.00,2.28,0.19,-5.90,1100,1100,1100,1100,1019,1503,1505,11899,994
169266,9,0.67,-4.00,1.40,0.080,0.024,1.016,-2.75,0.92,0.00,0.00,2.75,-0.92,0.00,9.61,-3.23,8.94,0.78,0.00,0.33,1.25,-23.40,1100,1100,1100,1100,1019,1513,1495,11899,994
169279,9,2.74,3.41,0.04,-0.120,-0.174,1.008,-2.62,-0.07,0.00,0.00,2.62,0.07,0.00,9.18,0.23,6.44,-3.18,0.00,-0.97,-1.68,3.30,1100,1100,1100,1100,1019,1513,1495,11903,994
169291,9,-4.68,2.14,-1.23,0.149,0.021,0.778,-1.05,1.60,0.00,0.00,1.05,-1.60,0.00,3.67,-5.61,8.35,-7.75,0.00,2.71,-1.36,23.63,1100,1100,1100,1100,1019,1503,1505,11903,994
169302,9,0.39,0.77,0.09,0.013,-0.049,1.034,-1.64,1.21,0.00,0.00,1.64,-1.21,0.00,5.72,-4.24,5.33,-5.00,0.00,0.13,-0.44,-6.68,1100,1100,1100,1100,1019,1503,1505,11907,994
169314,9,-0.24,2.95,1.17,-0.036,-0.088,0.842,-1.65,1.16,0.00,0.00,1.65,-1.16,0.00,5.76,-4.06,6.00,-7.01,0.00,0.03,-1.22,-21.69,1100,1100,1100,1100,1019,1503,1505,11895,994
169326,9,-0.41,1.80,0.73,-0.089,0.006,0.909,-1.96,0.20,0.00,0.00,1.96,-0.20,0.00,6.84,-0.70,7.25,-2.50,0.00,0.50,-0.55,-9.55,1100,1100,1100,1100,1019,1503,1505,11882,994
169339,9,1.22,-0.97,-0.49,0.010,-0.099,0.945,-2.88,-0.20,0.00,0.00,2.88,0.20,0.00,10.08,0.71,8.85,1.67,0.00,-0.23,1.24,13.62,1100,1100,1100,1100,1019,1503,1505,11886,994
169351,9,-1.38,-1.16,0.13,0.175,-0.012,0.656,-2.12,1.56,0.00,0.00,2.12,-1.56,0.00,7.42,-5.46,8.81,-4.30,0.00,0.92,0.54,-4.17,1100,1100,1100,1100,1019,1502,1506,11886,820
169363,9,3.18,-4.67,-0.60,0.134,0.061,0.871,-1.55,2.73,0.00,0.00,1.55,-2.73,0.00,5.41,-9.56,2.24,-4.89,0.00,-1.06,1.29,6.78,1100,1100,1100,1100,1019,1499,1506,11890,820
169374,9,2.40,1.59,0.61,0.023,-0.071,0.937,-1.48,2.32,0.00,0.00,1.48,-2.32,0.00,5.16,-8.10,2.76,-9.69,0.00,-0.54,-1.24,-10.83,1100,1100,1100,1100,1019,1499,1509,11903,820
169386,9,-1.42,3.88,0.38,-0.050,-0.049,0.784,-1.49,1.26,0.00,0.00,1.49,-1.26,0.00,5.22,-4.41,6.64,-8.30,0.00,1.09,-1.56,-3.59,1100,1100,1100,1100,1019,1502,1506,11903,820
169399,9,-2.92,2.29,-0.42,-0.054,0.024,0.966,-1.45,0.38,0.00,0.00,1.45,-0.38,0.00,5.07,-1.32,7.98,-3.61,0.00,1.42,-0.27,13.19,1100,1100,1100,1100,1019,1502,1506,11903,820
169411,9,4.65,-2.63,0.70,-0.020,-0.001,0.891,-1.88,-0.52,0.00,0.00,1.88,0.52,0.00,6.59,1.82,1.94,4.44,0.00,-2.20,2.29,-11.52,1100,1100,1100,1100,1019,1502,1506,11903,820
169422,9,-1.49,3.87,-0.85,-0.140,-0.235,0.842,-2.28,-1.27,0.00,0.00,2.28,1.27,0.00,7.97,4.45,9.46,0.58,0.00,0.82,-0.86,15.32,1100,1100,1100,1100,1019,1502,1506,11907,820
169434,9,0.46,-3.02,-1.22,0.027,-0.071,0.969,-1.82,-1.50,0.00,0.00,1.82,1.50,0.00,6.35,5.24,5.90,8.26,0.00,0.40,1.96,19.37,1100,1100,1100,1100,1019,1502,1506,11907,820
169447,9,6.35,-3.73,-0.19,0.050,-0.037,0.893,-1.69,-1.20,0.00,0.00,1.69,1.20,0.00,5.91,4.20,-0.44,7.92,0.00,-2.36,1.96,-1.00,1100,1100,1100,1100,1019,1502,1506,11895,820
169459,9,-1.75,2.37,0.94,-0.053,-0.152,0.914,-0.98,0.51,0.00,0.00,0.98,-0.51,0.00,3.42,-1.78,5.17,-4.15,0.00,1.42,-1.65,-16.76,1100,1100,1100,1100,1019,1502,1506,11895,861
169471,9,0.17,-0.00,0.40,0.040,-0.060,0.994,-1.64,0.58,0.00,0.00,1.64,-0.58,0.00,5.75,-2.02,5.58,-2.01,0.00,0.58,-0.10,-1.80,1100,1100,1100,1100,1019,1502,1506,11886,861
169482,9,-0.43,-0.22,-1.04,-0.039,-0.159,0.934,-1.98,0.54,0.00,0.00,1.98,-0.54,0.00,6.92,-1.88,7.34,-1.66,0.00,0.00,0.36,21.80,1100,1100,1100,1100,1019,1502,1506,11895,861
169494,9,-5.63,1.33,-0.17,0.110,-0.010,0.846,-1.09,1.51,0.00,0.00,1.09,-1.51,0.00,3.80,-5.29,9.43,-6.62,0.00,2.53,-0.77,-0.23,1100,1100,1100,1100,1019,1502,1506,11895,861
169506,9,1.97,-0.10,0.05,-0.006,-0.118,0.990,-1.89,1.28,0.00,0.00,1.89,-1.28,0.00,6.61,-4.47,4.65,-4.37,0.00,-0.84,0.20,-3.73,1100,1100,1100,1100,1019,1502,1506,11895,861
169519,9,0.66,4.21,1.12,-0.067,-0.141,0.927,-1.77,0.64,0.00,0.00,1.77,-0.64,0.00,6.19,-2.25,5.53,-6.46,0.00,-0.26,-1.59,-17.66,1100,1100,1100,1100,1019,1502,1506,11899,861
169531,9,-1.35,-0.60,0.02,0.057,0.019,0.815,-1.65,1.16,0.00,0.00,1.65,-1.16,0.00,5.77,-4.04,7.12,-3.44,0.00,1.15,-0.22,6.06,1100,1100,1100,1100,1019,1502,1506,11895,861
169542,9,0.42,-2.02,-0.56,0.060,-0.012,0.965,-1.79,1.46,0.00,0.00,1.79,-1.46,0.00,6.28,-5.09,5.86,-3.07,0.00,0.23,0.33,13.41,1100,1100,1100,1100,1019,1502,1506,11882,861
169554,9,0.45,1.79,1.09,-0.027,-0.048,0.944,-1.88,1.14,0.00,0.00,1.88,-1.14,0.00,6.58,-3.98,6.13,-5.77,0.00,0.12,-1.32,-22.99,1100,1100,1100,1100,1019,1502,1506,11890,818
169567,9,-2.81,2.51,0.25,-0.009,-0.045,0.860,-1.72,1.04,0.00,0.00,1.72,-1.04,0.00,6.01,-3.65,8.83,-6.16,0.00,1.64,-1.17,-2.99,1100,1100,1100,1100,1019,1502,1506,11895,818
169579,9,-2.03,3.22,0.49,0.022,0.023,0.937,-1.72,0.19,0.00,0.00,1.72,-0.19,0.00,6.01,-0.65,8.04,-3.87,0.00,1.09,-1.02,-1.97,1100,1100,1100,1100,1019,1502,1506,11907,818
169591,9,1.98,1.64,0.58,-0.061,-0.193,0.891,-2.56,-0.49,0.00,0.00,2.56,0.49,0.00,8.94,1.72,6.96,0.08,0.00,-0.78,-0.15,-8.19,1100,1100,1100,1100,1019,1502,1506,11907,818
169602,9,2.72,0.03,-0.37,0.041,-0.002,0.782,-2.26,-0.58,0.00,0.00,2.26,0.58,0.00,7.91,2.04,5.19,2.01,0.00,-0.48,0.44,10.21,1100,1100,1100,1100,1019,1501,1506,11911,818
169614,9,3.54,-0.53,0.33,-0.074,0.038,0.903,-3.06,-1.41,0.00,0.00,3.06,1.41,0.00,10.71,4.94,7.17,5.47,0.00,-0.68,0.94,-5.55,1100,1100,1100,1100,1019,1501,1507,11915,818
169626,9,-2.54,2.29,-0.34,-0.052,-0.068,0.940,-2.26,-1.28,0.00,0.00,2.26,1.28,0.00,7.91,4.49,10.44,2.19,0.00,1.45,-0.22,5.56,1100,1100,1100,1100,1019,1501,1507,11911,818
169639,9,-0.80,-1.91,0.62,0.162,0.146,0.824,-0.98,-0.25,0.00,0.00,0.98,0.25,0.00,3.43,0.89,4.23,2.80,0.00,0.70,1.33,-9.94,1100,1100,1100,1100,1019,1501,1507,11907,818
169651,9,3.21,-5.68,-0.31,0.186,-0.072,0.745,-1.47,1.66,0.00,0.00,1.47,-1.66,0.00,5.13,-5.79,1.92,-0.12,0.00,-1.70,3.04,8.55,1100,1100,1100,1100,1019,1501,1507,11903,814
169662,9,-4.69,4.61,-0.38,-0.060,-0.219,0.945,-1.75,1.79,0.00,0.00,1.75,-1.79,0.00,6.11,-6.28,10.80,-10.89,0.00,1.88,-2.43,9.80,1100,1100,1100,1100,1019,1501,1507,11903,814
169675,9,2.45,-3.15,-0.18,0.033,-0.171,0.793,-2.83,1.57,0.00,0.00,2.83,-1.57,0.00,9.90,-5.49,7.45,-2.34,0.00,-0.65,0.93,2.56,1100,1100,1100,1100,1019,1501,1507,11899,814
169686,9,6.28,-2.61,0.23,-0.074,-0.093,0.974,-3.17,0.55,0.00,0.00,3.17,-0.55,0.00,11.08,-1.91,4.81,0.70,0.00,-2.36,0.62,-3.40,1100,1100,1100,1100,1019,1501,1507,11886,814
169699,9,-0.94,-5.75,0.57,0.078,0.054,0.847,-2.82,1.55,0.00,0.00,2.82,-1.55,0.00,9.87,-5.44,10.81,0.31,0.00,1.70,1.07,-9.95,1100,1100,1100,1100,1019,1501,1507,11895,814
169711,9,1.87,-3.75,0.01,0.002,-0.141,1.013,-3.12,2.05,0.00,0.00,3.12,-2.05,0.00,10.92,-7.18,9.05,-3.44,0.00,0.28,0.05,1.49,1100,1100,1100,1100,1019,1501,1507,11878,814
169722,9,-2.64,5.16,-0.10,0.007,-0.108,0.966,-1.83,2.01,0.00,0.00,1.83,-2.01,0.00,6.41,-7.04,9.05,-12.20,0.00,1.84,-3.44,2.05,1100,1100,1100,1100,1019,1501,1507,11886,814
169734,9,-3.59,5.31,-0.53,-0.004,0.091,0.889,-0.81,1.03,0.00,0.00,0.81,-1.03,0.00,2.85,-3.59,6.44,-8.90,0.00,1.97,-2.37,10.52,1100,1100,1100,1100,1019,1501,1507,11886,814
169746,9,-2.31,1.81,0.85,0.038,-0.049,0.905,-0.96,1.02,0.00,0.00,0.96,-1.02,0.00,3.37,-3.56,5.68,-5.37,0.00,0.79,-0.36,-14.85,1100,1100,1100,1100,1019,1501,1507,11886,814
169759,9,1.62,3.70,0.94,-0.122,-0.173,1.005,-1.69,-0.26,0.00,0.00,1.69,0.26,0.00,5.92,0.90,4.30,-2.80,0.00,-1.18,-0.92,-17.75,1100,1100,1100,1100,1019,1501,1507,11882,814
169771,9,-0.76,1.67,-0.31,-0.034,0.033,0.829,-1.71,-0.44,0.00,0.00,1.71,0.44,0.00,5.97,1.54,6.74,-0.13,0.00,0.54,-0.43,9.52,1100,1100,1100,1100,1019,1500,1508,11890,814
169782,9,-0.74,-2.58,0.27,0.074,0.076,0.792,-2.49,-0.54,0.00,0.00,2.49,0.54,0.00,8.72,1.88,9.46,4.45,0.00,0.72,1.79,-3.79,1100,1100,1100,1100,1019,1500,1508,11895,814
169794,9,1.49,-1.82,-0.20,0.084,-0.061,0.935,-2.18,0.25,0.00,0.00,2.18,-0.25,0.00,7.64,-0.87,6.14,0.95,0.00,-0.59,0.94,2.26,1100,1100,1100,1100,1019,1500,1508,11886,814
169806,9,0.49,-3.03,-0.43,0.173,0.077,0.707,-0.76,2.00,0.00,0.00,0.76,-2.00,0.00,2.64,-7.01,2.15,-3.97,0.00,0.23,0.59,8.75,1100,1100,1100,1100,1019,1500,1508,11878,814
169819,9,3.72,-3.70,0.20,0.137,-0.024,0.838,-1.20,2.72,0.00,0.00,1.20,-2.72,0.00,4.20,-9.54,0.48,-5.84,0.00,-1.16,0.96,-3.26,1100,1100,1100,1100,1019,1500,1508,11895,814
169831,9,-2.07,3.05,0.22,-0.075,-0.117,0.800,-0.97,2.48,0.00,0.00,0.97,-2.48,0.00,3.39,-8.67,5.46,-11.72,0.00,1.01,-2.03,-4.80,1100,1100,1100,1100,1019,1500,1508,11895,814
169842,9,2.34,1.21,0.13,-0.100,0.019,1.017,-1.23,0.32,0.00,0.00,1.23,-0.32,0.00,4.29,-1.12,1.95,-2.32,0.00,-1.03,-0.27,-1.91,1100,1100,1100,1100,1019,1500,1508,11895,814
169854,9,1.54,-0.88,-0.96,-0.040,-0.160,0.979,-1.62,0.25,0.00,0.00,1.62,-0.25,0.00,5.66,-0.87,4.13,0.01,0.00,-0.98,1.27,17.17,1100,1100,1100,1100,1019,1500,1508,11895,815
169866,9,-5.02,0.67,-0.07,-0.017,-0.040,0.791,-1.43,-0.01,0.00,0.00,1.43,0.01,0.00,5.01,0.04,10.03,-0.63,0.00,2.38,0.08,-0.88,1100,1100,1100,1100,1019,1500,1508,11899,815
169879,9,2.74,-4.11,0.02,0.075,-0.037,0.904,-1.77,0.05,0.00,0.00,1.77,-0.05,0.00,6.19,-0.18,3.46,3.93,0.00,-0.82,2.20,-0.68,1100,1100,1100,1100,1019,1500,1508,11895,815
169891,9,3.93,2.27,0.20,-0.023,-0.145,0.975,-1.59,-0.37,0.00,0.00,1.59,0.37,0.00,5.56,1.30,1.63,-0.97,0.00,-1.42,-0.91,-0.20,1100,1100,1100,1100,1019,1499,1509,11895,815
169902,9,-0.76,0.75,-0.10,0.082,-0.099,0.830,-1.46,1.31,0.00,0.00,1.46,-1.31,0.00,5.09,-4.59,5.86,-5.35,0.00,1.31,-1.12,0.38,1100,1100,1100,1100,1019,1499,1509,11886,815
169914,9,0.57,-0.54,-0.98,0.143,0.022,0.930,-0.72,2.39,0.00,0.00,0.72,-2.39,0.00,2.51,-8.36,1.94,-7.82,0.00,0.32,-0.38,16.32,1100,1100,1100,1100,1019,1499,1509,11899,815
169926,9,-1.60,3.98,0.75,-0.097,0.010,0.987,-1.04,2.33,0.00,0.00,1.04,-2.33,0.00,3.62,-8.16,5.23,-12.14,0.00,0.79,-2.38,-18.79,1100,1100,1100,1100,1019,1499,1509,11895,815
169939,9,-3.14,1.98,0.39,-0.053,-0.065,0.943,-1.41,1.65,0.00,0.00,1.41,-1.65,0.00,4.93,-5.77,8.07,-7.75,0.00,1.25,-0.33,-8.15,1100,1100,1100,1100,1019,1499,1509,11903,815
169951,9,-0.52,0.10,0.53,0.074,-0.090,0.845,-2.22,1.30,0.00,0.00,2.22,-1.30,0.00,7.78,-4.55,8.30,-4.65,0.00,0.49,0.37,-2.84,1100,1100,1100,1100,1019,1499,1509,11895,815
169962,9,0.77,0.95,0.30,0.001,-0.144,0.690,-3.09,1.30,0.00,0.00,3.09,-1.30,0.00,10.83,-4.55,10.06,-5.49,0.00,-0.07,-0.40,-1.38,1100,1100,1100,1100,1019,1500,1509,11886,815
169974,9,1.03,-0.93,-1.37,0.054,0.096,0.969,-2.12,1.03,0.00,0.00,2.12,-1.03,0.00,7.43,-3.61,6.41,-2.69,0.00,-0.02,0.15,25.72,1100,1100,1100,1100,1019,1500,1508,11886,815
169986,9,5.10,-1.37,0.39,-0.029,0.021,0.877,-2.30,0.11,0.00,0.00,2.30,-0.11,0.00,8.05,-0.40,2.95,0.97,0.00,-1.60,0.73,-13.65,1100,1100,1100,1100,1019,1502,1506,11895,815
169999,9,-0.51,2.20,0.69,-0.021,-0.074,0.808,-1.80,0.30,0.00,0.00,1.80,-0.30,0.00,6.29,-1.05,6.80,-3.26,0.00,0.76,-0.79,-13.17,1100,1100,1100,1100,1019,1502,1506,11895,815
170011,9,0.94,-2.60,1.23,0.073,0.124,0.888,-1.12,0.44,0.00,0.00,1.12,-0.44,0.00,3.92,-1.56,2.98,1.04,0.00,0.26,1.09,-16.76,1100,1100,1100,1100,1019,1500,1508,11899,815
170022,9,4.64,-5.64,-0.63,0.024,-0.104,0.799,-1.76,0.93,0.00,0.00,1.76,-0.93,0.00,6.16,-3.24,1.52,2.40,0.00,-1.98,2.56,17.88,1100,1100,1100,1100,1019,1500,1508,11895,815
170034,9,-6.03,5.90,-1.00,-0.023,-0.195,0.997,-1.55,1.13,0.00,0.00,1.55,-1.13,0.00,5.44,-3.94,11.47,-9.85,0.00,2.90,-3.08,18.10,1100,1100,1100,1100,1019,1500,1508,11878,815
170046,9,-0.99,-2.21,-0.40,0.142,-0.132,0.876,-2.24,1.44,0.00,0.00,2.24,-1.44,0.00,7.85,-5.03,8.84,-2.81,0.00,0.54,1.37,2.97,1100,1100,1100,1100,1019,1500,1508,11886,815
170059,9,0.02,3.91,1.17,-0.086,-0.093,0.928,-2.17,0.71,0.00,0.00,2.17,-0.71,0.00,7.59,-2.49,7.58,-6.41,0.00,-0.49,-1.52,-19.70,1100,1100,1100,1100,1019,1500,1508,11878,815
170071,9,-0.13,-1.97,0.75,-0.033,0.019,0.873,-2.01,0.73,0.00,0.00,2.01,-0.73,0.00,7.04,-2.54,7.18,-0.57,0.00,-0.13,0.92,-7.60,1100,1100,1100,1100,1019,1500,1508,11882,815
170083,9,3.25,-5.62,-0.60,-0.090,-0.149,0.991,-2.81,0.41,0.00,0.00,2.81,-0.41,0.00,9.85,-1.43,6.60,4.20,0.00,-1.20,2.09,17.23,1100,1100,1100,1100,1019,1500,1508,11882,815
170094,9,1.74,-3.06,-0.70,0.020,-0.136,0.889,-2.91,0.32,0.00,0.00,2.91,-0.32,0.00,10.19,-1.12,8.44,1.94,0.00,-0.10,0.66,11.27,1100,1100,1100,1100,1019,1500,1508,11895,815
170106,9,0.74,-4.19,-0.45,0.096,-0.068,0.855,-2.84,0.97,0.00,0.00,2.84,-0.97,0.00,9.94,-3.39,9.20,0.80,0.00,0.77,0.53,3.81,1100,1100,1100,1100,1019,1500,1508,11895,815
170119,9,2.24,-2.42,1.08,0.112,-0.071,0.874,-2.09,2.58,0.00,0.00,2.09,-2.58,0.00,7.33,-9.02,5.08,-6.60,0.00,0.07,-0.73,-20.49,1100,1100,1100,1100,1019,1500,1508,11895,815
170131,9,0.95,2.93,1.03,0.060,-0.054,0.880,-2.07,3.47,0.00,0.00,2.07,-3.47,0.00,7.24,-12.13,6.30,-15.05,0.00,0.38,-3.08,-15.23,1100,1100,1100,1100,1019,1500,1508,11903,815
170142,9,-4.16,0.09,-0.98,0.066,0.111,0.877,-0.83,4.41,0.00,0.00,0.83,-4.41,0.00,2.89,-15.43,7.05,-15.52,0.00,2.29,-1.53,21.71,1100,1100,1100,1100,1019,1500,1508,11899,815
170154,9,-3.13,-0.83,0.11,0.145,0.117,0.779,-0.83,4.07,0.00,0.00,0.83,-4.07,0.00,2.92,-14.24,6.05,-13.41,0.00,1.22,-0.19,-2.78,1100,1100,1100,1100,1019,1500,1508,11895,816
170166,9,-1.67,1.96,1.00,0.034,-0.180,0.920,-1.81,3.50,0.00,0.00,1.81,-3.50,0.00,6.32,-12.24,7.99,-14.20,0.00,0.11,-1.20,-20.82,1100,1100,1100,1100,1019,1499,1509,11886,816
170179,9,-2.94,-0.77,-0.08,0.184,-0.070,0.668,-2.06,4.68,0.00,0.00,2.06,-4.68,0.00,7.20,-16.37,10.14,-15.59,0.00,1.13,-0.25,7.90,1100,1100,1100,1100,1019,1499,1509,11890,816
170191,9,3.29,-0.67,-0.06,-0.002,-0.099,0.812,-3.38,3.41,0.00,0.00,3.38,-3.41,0.00,11.81,-11.93,8.52,-11.26,0.00,-1.64,-0.02,7.32,1100,1100,1100,1100,1019,1500,1508,11886,816
170202,9,0.97,-0.02,-0.61,-0.066,-0.033,0.932,-2.65,2.45,0.00,0.00,2.65,-2.45,0.00,9.28,-8.57,8.31,-8.55,0.00,-0.37,-0.33,10.63,1100,1100,1100,1100,1019,1499,1508,11886,816
170214,9,3.90,-5.12,0.47,0.028,0.047,0.910,-2.21,2.05,0.00,0.00,2.21,-2.05,0.00,7.72,-7.18,3.82,-2.06,0.00,-0.80,1.62,-11.57,1100,1100,1100,1100,1019,1499,1509,11874,816
170226,9,1.68,-1.59,-0.07,-0.034,-0.215,0.999,-2.53,2.17,0.00,0.00,2.53,-2.17,0.00,8.84,-7.58,7.16,-5.99,0.00,0.05,-0.25,1.02,1100,1100,1100,1100,1019,1499,1509,11874,816
170239,9,-5.22,2.76,-0.37,0.099,-0.014,0.886,-1.17,2.33,0.00,0.00,1.17,-2.33,0.00,4.11,-8.15,9.33,-10.91,0.00,3.05,-2.11,9.53,1100,1100,1100,1100,1019,1499,1509,11878,816
170251,9,1.78,-0.02,-0.06,0.088,-0.046,0.938,-1.15,2.77,0.00,0.00,1.15,-2.77,0.00,4.04,-9.71,2.26,-9.68,0.00,-0.44,-0.38,0.38,1100,1100,1100,1100,1019,1500,1508,11874,816
170262,9,-3.17,8.77,0.15,-0.076,-0.123,0.996,-1.19,2.40,0.00,0.00,1.19,-2.40,0.00,4.17,-8.38,7.35,-17.16,0.00,1.26,-3.82,-5.69,1100,1100,1100,1100,1019,1500,1508,11878,816
170274,9,-3.83,2.56,0.21,0.022,0.011,0.863,-1.42,1.80,0.00,0.00,1.42,-1.80,0.00,4.96,-6.30,8.80,-8.86,0.00,1.71,-0.80,-5.56,1100,1100,1100,1100,1019,1500,1508,11878,816
170287,9,0.32,-2.24,0.71,0.124,-0.032,0.763,-1.92,2.09,0.00,0.00,1.92,-2.09,0.00,6.72,-7.31,6.40,-5.06,0.00,-0.32,1.44,-7.67,1100,1100,1100,1100,1019,1500,1508,11878,816
170299,9,2.35,-5.62,0.63,0.063,-0.038,0.812,-2.27,3.16,0.00,0.00,2.27,-3.16,0.00,7.94,-11.05,5.58,-5.43,0.00,-0.93,1.73,-6.88,1100,1100,1100,1100,1019,1500,1508,11878,816
170311,9,2.42,-3.53,-1.66,-0.046,-0.044,0.889,-2.29,2.41,0.00,0.00,2.29,-2.41,0.00,8.02,-8.45,5.60,-4.92,0.00,-0.36,0.11,28.48,1100,1100,1100,1100,1019,1500,1508,11882,816
170322,9,0.40,-1.21,-0.61,0.112,-0.060,0.815,-2.11,2.00,0.00,0.00,2.11,-2.00,0.00,7.38,-7.01,6.98,-5.80,0.00,0.57,-0.35,7.02,1100,1100,1100,1100,1019,1500,1508,11890,816
170334,9,-0.67,2.29,0.99,0.010,-0.037,0.946,-1.72,1.23,0.00,0.00,1.72,-1.23,0.00,6.03,-4.30,6.70,-6.60,0.00,0.67,-1.35,-17.86,1100,1100,1100,1100,1019,1500,1508,11895,816
170346,9,1.94,-4.17,1.43,0.086,0.038,0.834,-1.17,2.03,0.00,0.00,1.17,-2.03,0.00,4.09,-7.10,2.15,-2.94,0.00,-0.43,1.33,-15.73,1100,1100,1100,1100,1019,1500,1508,11895,816
170359,9,2.59,-0.42,-0.34,0.034,-0.067,0.815,-1.41,2.14,0.00,0.00,1.41,-2.14,0.00,4.93,-7.48,2.34,-7.06,0.00,-0.87,-0.27,15.53,1100,1100,1100,1100,1019,1500,1508,11895,815
170371,9,-1.60,1.19,-1.51,-0.035,-0.132,0.954,-1.41,2.17,0.00,0.00,1.41,-2.17,0.00,4.93,-7.60,6.53,-8.79,0.00,0.73,-0.99,26.42,1100,1100,1100,1100,1019,1500,1508,11895,815
170382,9,2.55,-2.31,0.03,0.014,-0.041,0.961,-1.57,1.46,0.00,0.00,1.57,-1.46,0.00,5.50,-5.13,2.94,-2.82,0.00,-0.49,0.67,-4.27,1100,1100,1100,1100,1019,1500,1508,11899,815
170394,9,2.91,1.12,1.00,-0.109,-0.141,0.900,-2.62,-0.29,0.00,0.00,2.62,0.29,0.00,9.18,1.00,6.28,-0.12,0.00,-0.72,-0.29,-18.22,1100,1100,1100,1100,1019,1500,1508,11903,815
170406,9,-8.13,4.81,-0.43,0.055,-0.023,0.923,-1.74,0.33,0.00,0.00,1.74,-0.33,0.00,6.10,-1.15,14.22,-5.96,0.00,4.09,-1.95,14.04,1100,1100,1100,1100,1019,1500,1508,11895,815
170419,9,-1.07,0.67,-0.82,0.132,-0.022,0.943,-1.93,1.19,0.00,0.00,1.93,-1.19,0.00,6.77,-4.17,7.84,-4.84,0.00,0.47,-0.31,14.32,1100,1100,1100,1100,1019,1500,1508,11899,815
170431,9,-1.21,4.30,0.42,-0.022,-0.054,0.830,-1.25,1.02,0.00,0.00,1.25,-1.02,0.00,4.36,-3.55,5.57,-7.85,0.00,0.11,-1.64,-14.05,1100,1100,1100,1100,1019,1500,1508,11899,815
170442,9,-0.53,2.87,1.12,-0.041,0.017,0.903,-1.17,0.49,0.00,0.00,1.17,-0.49,0.00,4.11,-1.71,4.64,-4.58,0.00,0.24,-0.72,-21.56,1100,1100,1100,1100,1019,1499,1508,11895,815
170454,9,1.86,0.55,0.97,-0.082,-0.119,0.957,-2.46,-0.83,0.00,0.00,2.46,0.83,0.00,8.61,2.90,6.75,2.35,0.00,-0.78,0.84,-10.42,1100,1100,1100,1100,1020,1499,1509,11895,818
170466,9,-2.19,0.64,-0.13,-0.042,-0.101,0.860,-2.58,-1.35,0.00,0.00,2.58,1.35,0.00,9.03,4.73,11.22,4.09,0.00,1.20,0.26,9.18,1100,1100,1100,1100,1020,1499,1509,11899,818
170479,9,2.26,-2.11,-1.26,0.073,0.065,0.837,-2.22,-1.42,0.00,0.00,2.22,1.42,0.00,7.76,4.98,5.50,7.09,0.00,-0.29,1.29,23.67,1100,1100,1100,1100,1020,1499,1509,11895,818
170491,9,2.34,1.44,0.09,0.038,-0.021,0.873,-1.98,-0.88,0.00,0.00,1.98,0.88,0.00,6.93,3.09,4.59,1.65,0.00,-0.51,-0.06,-5.07,1100,1100,1100,1100,1027,1499,1509,11878,818
170502,9,-0.70,4.34,0.50,-0.002,-0.088,0.989,-1.56,-0.36,0.00,0.00,1.56,0.36,0.00,5.47,1.26,6.17,-3.07,0.00,0.69,-1.29,-10.74,1100,1100,1100,1100,1027,1500,1509,11878,818
170514,9,1.94,-1.03,0.48,0.075,-0.067,0.864,-1.40,0.75,0.00,0.00,1.40,-0.75,0.00,4.91,-2.61,2.96,-1.58,0.00,-0.36,0.67,-1.85,1100,1100,1100,1100,1028,1500,1508,11895,818
170526,9,1.24,-1.37,-0.19,0.004,-0.045,0.810,-1.60,1.31,0.00,0.00,1.60,-1.31,0.00,5.60,-4.58,4.36,-3.21,0.00,-0.20,0.42,6.88,1100,1100,1100,1100,1030,1500,1508,11890,818
170539,9,-3.52,-1.23,-1.69,0.018,-0.061,0.958,-1.89,1.25,0.00,0.00,1.89,-1.25,0.00,6.62,-4.38,10.14,-3.15,0.00,1.58,0.64,28.05,1100,1100,1100,1100,1030,1500,1508,11890,818
170551,9,-0.80,-0.95,0.31,-0.021,-0.179,0.956,-2.64,0.78,0.00,0.00,2.64,-0.78,0.00,9.23,-2.74,10.03,-1.79,0.00,0.89,0.21,-12.91,1100,1100,1100,1100,1031,1500,1508,11890,817
170562,9,1.24,5.03,1.05,-0.008,-0.127,0.739,-3.04,-0.14,0.00,0.00,3.04,0.14,0.00,10.63,0.47,9.39,-4.56,0.00,-0.17,-2.00,-18.11,1100,1100,1100,1100,1031,1500,1508,11882,817
170574,9,-0.93,2.46,1.29,-0.104,0.022,1.122,-2.35,-0.44,0.00,0.00,2.35,0.44,0.00,8.21,1.54,9.14,-0.92,0.00,0.63,-0.81,-17.72,1100,1100,1100,1100,1031,1500,1508,11878,817
170586,9,4.39,-6.60,-0.22,0.135,-0.001,0.868,-2.37,0.23,0.00,0.00,2.37,-0.23,0.00,8.31,-0.79,3.92,5.81,0.00,-1.41,3.07,10.23,1100,1100,1100,1100,1035,1500,1508,11878,817
170599,9,0.03,-2.69,-0.62,0.032,-0.132,0.708,-2.48,1.71,0.00,0.00,2.48,-1.71,0.00,8.67,-5.97,8.64,-3.28,0.00,0.62,0.05,11.73,1100,1100,1100,1100,1035,1500,1508,11865,817
170611,9,-1.82,-4.51,-0.10,0.126,0.103,0.866,-1.54,3.06,0.00,0.00,1.54,-3.06,0.00,5.39,-10.71,7.21,-6.20,0.00,1.67,0.09,-1.87,1100,1100,1100,1100,1036,1500,1508,11874,817
170622,9,2.54,-2.66,0.75,0.123,0.003,0.819,-2.05,2.83,0.00,0.00,2.05,-2.83,0.00,7.17,-9.91,4.63,-7.25,0.00,-0.94,0.27,-10.45,1100,1100,1100,1100,1036,1500,1508,11878,817
170634,9,-3.25,3.05,1.11,0.036,-0.184,0.897,-2.26,2.88,0.00,0.00,2.26,-2.88,0.00,7.90,-10.07,11.16,-13.12,0.00,1.35,-2.09,-13.06,1100,1100,1100,1100,1037,1500,1508,11882,817
170646,9,-0.07,-0.85,-0.75,0.150,-0.055,0.796,-2.44,3.65,0.00,0.00,2.44,-3.65,0.00,8.54,-12.78,8.61,-11.93,0.00,0.04,-0.18,22.66,1100,1100,1100,1100,1038,1500,1508,11886,817
170659,9,-0.02,-0.59,-0.69,0.010,-0.055,0.819,-2.61,3.96,0.00,0.00,2.61,-3.96,0.00,9.15,-13.87,9.17,-13.28,0.00,-0.50,-0.37,14.92,1100,1100,1100,1100,1038,1500,1508,11874,815
170671,9,1.02,-3.92,0.07,-0.017,0.028,0.906,-1.90,3.09,0.00,0.00,1.90,-3.09,0.00,6.64,-10.81,5.62,-6.89,0.00,-0.47,1.04,-5.82,1100,1100,1100,1100,1038,1500,1508,11870,815
170682,9,4.62,-4.81,0.56,-0.113,-0.173,0.978,-3.01,1.22,0.00,0.00,3.01,-1.22,0.00,10.53,-4.28,5.91,0.53,0.00,-1.28,1.36,-7.58,1100,1100,1100,1100,1038,1500,1508,11870,815
170695,9,0.12,-0.39,0.12,-0.062,-0.168,0.918,-3.14,0.11,0.00,0.00,3.14,-0.11,0.00,10.99,-0.39,10.87,0.00,0.00,0.89,-0.50,2.06,1100,1100,1100,1100,1043,1500,1508,11870,815
170706,9,-3.24,3.11,-1.58,0.063,-0.002,0.947,-2.22,-0.09,0.00,0.00,2.22,0.09,0.00,7.78,0.31,11.02,-2.80,0.00,2.10,-1.73,28.63,1100,1100,1100,1100,1043,1500,1509,11878,815
170719,9,-1.39,2.07,0.49,0.063,-0.043,0.915,-1.58,0.98,0.00,0.00,1.58,-0.98,0.00,5.52,-3.44,6.92,-5.51,0.00,0.85,-1.18,-15.62,1100,1100,1100,1100,1043,1500,1509,11878,815
170731,9,0.64,4.81,1.25,-0.064,-0.142,1.005,-1.71,0.74,0.00,0.00,1.71,-0.74,0.00,6.00,-2.59,5.36,-7.40,0.00,-0.42,-1.91,-24.83,1100,1100,1100,1100,1045,1499,1509,11874,815
170742,9,-5.13,1.79,0.59,0.001,0.040,0.826,-1.22,1.11,0.00,0.00,1.22,-1.11,0.00,4.28,-3.89,9.41,-5.67,0.00,2.36,-0.86,-1.62,1100,1100,1100,1100,1045,1499,1509,11874,815
170754,9,0.44,-3.64,-0.26,0.067,0.030,0.860,-2.18,0.65,0.00,0.00,2.18,-0.65,0.00,7.63,-2.28,7.19,1.35,0.00,0.14,1.54,9.65,1100,1100,1100,1100,1046,1499,1509,11878,816
170766,9,1.68,2.29,-0.45,0.026,-0.186,0.914,-3.12,0.55,0.00,0.00,3.12,-0.55,0.00,10.91,-1.93,9.23,-4.21,0.00,-0.45,-1.20,3.78,1100,1100,1100,1100,1047,1499,1509,11874,816
170779,9,-1.13,-0.04,0.20,0.133,0.039,0.740,-2.60,2.04,0.00,0.00,2.60,-2.04,0.00,9.09,-7.12,10.22,-7.08,0.00,1.34,-0.71,-8.39,1100,1100,1100,1100,1047,1499,1509,11878,816
170791,9,2.64,-1.47,0.78,0.132,0.052,0.818,-2.48,2.16,0.00,0.00,2.48,-2.16,0.00,8.69,-7.55,6.05,-6.08,0.00,-0.78,0.53,-10.37,1100,1100,1100,1100,1048,1500,1508,11878,816
170802,9,-0.71,2.85,0.27,-0.025,0.041,0.897,-0.99,1.83,0.00,0.00,0.99,-1.83,0.00,3.45,-6.41,4.16,-9.26,0.00,0.22,-1.15,3.42,1100,1100,1100,1100,1048,1500,1508,11882,816
170814,9,4.00,-3.15,-0.51,0.046,0.074,0.888,-0.49,1.97,0.00,0.00,0.49,-1.97,0.00,1.71,-6.89,-2.29,-3.75,0.00,-1.34,1.34,10.99,1100,1100,1100,1100,1048,1500,1508,11878,816
170826,9,1.48,-1.63,-1.55,0.043,-0.157,0.850,-1.06,2.45,0.00,0.00,1.06,-2.45,0.00,3.71,-8.57,2.23,-6.94,0.00,-0.38,0.41,22.87,1100,1100,1100,1100,1053,1500,1508,11890,816
170839,9,-3.38,0.73,-0.07,-0.024,-0.072,0.883,-1.10,1.64,0.00,0.00,1.10,-1.64,0.00,3.86,-5.74,7.24,-6.47,0.00,1.71,-0.52,-7.90,1100,1100,1100,1100,1053,1500,1508,11895,816
170851,9,4.37,-2.92,1.11,0.027,-0.150,0.939,-2.07,0.95,0.00,0.00,2.07,-0.95,0.00,7.24,-3.32,2.87,-0.40,0.00,-1.45,1.31,-18.89,1100,1100,1100,1100,1053,1500,1508,11886,815
170862,9,1.65,2.62,0.49,-0.038,-0.130,0.823,-2.37,0.75,0.00,0.00,2.37,-0.75,0.00,8.28,-2.61,6.63,-5.23,0.00,-0.17,-1.33,-1.04,1100,1100,1100,1100,1053,1500,1508,11890,815
170874,9,-3.79,1.89,-1.34,0.077,0.001,1.004,-1.79,1.88,0.00,0.00,1.79,-1.88,0.00,6.27,-6.59,10.05,-8.48,0.00,2.23,-1.37,26.93,1100,1100,1100,1100,1058,1500,1508,11878,815
170886,9,0.43,-3.00,-0.42,0.165,-0.002,0.915,-1.05,3.35,0.00,0.00,1.05,-3.35,0.00,3.66,-11.72,3.23,-8.73,0.00,0.08,0.59,3.08,1100,1100,1100,1100,1058,1500,1508,11878,815
170899,9,1.74,-0.39,1.22,-0.021,-0.059,0.886,-0.84,3.34,0.00,0.00,0.84,-3.34,0.00,2.96,-11.68,1.22,-11.30,0.00,-0.67,-0.60,-28.75,1100,1100,1100,1100,1058,1500,1508,11870,815
170911,9,-5.78,3.20,0.11,0.023,-0.128,0.925,-1.45,3.04,0.00,0.00,1.45,-3.04,0.00,5.06,-10.63,10.84,-13.82,0.00,2.63,-1.80,2.51,1100,1100,1100,1100,1060,1501,1507,11878,815
170922,9,-2.43,0.75,0.29,0.037,-0.149,0.932,-2.43,2.48,0.00,0.00,2.43,-2.48,0.00,8.52,-8.69,10.94,-9.44,0.00,1.25,-0.83,-1.12,1100,1100,1100,1100,1060,1500,1507,11878,815
170934,9,2.17,3.02,-0.54,-0.020,-0.109,0.858,-2.81,1.35,0.00,0.00,2.81,-1.35,0.00,9.83,-4.73,7.66,-7.75,0.00,-1.00,-1.39,9.92,1100,1100,1100,1100,1063,1500,1508,11878,815
170946,9,-1.37,0.11,0.13,0.018,0.128,0.864,-1.92,1.30,0.00,0.00,1.92,-1.30,0.00,6.72,-4.56,8.08,-4.67,0.00,1.11,-0.47,-3.79,1100,1100,1100,1100,1068,1500,1508,11878,815
170959,9,2.38,-3.37,1.18,0.013,0.025,0.890,-2.42,0.74,0.00,0.00,2.42,-0.74,0.00,8.46,-2.60,6.07,0.76,0.00,-0.50,1.38,-20.47,1100,1100,1100,1100,1068,1500,1508,11895,817
170971,9,-0.31,0.42,0.52,0.001,-0.134,0.905,-1.91,0.85,0.00,0.00,1.91,-0.85,0.00,6.69,-2.99,7.00,-3.41,0.00,0.36,-0.57,-2.28,1100,1100,1100,1100,1069,1500,1508,11895,817
170982,9,0.51,-3.38,-0.16,0.105,0.093,0.801,-0.91,1.53,0.00,0.00,0.91,-1.53,0.00,3.19,-5.35,2.67,-1.97,0.00,0.30,0.78,7.61,1100,1100,1100,1100,1069,1499,1508,11899,817
170994,9,2.49,-4.84,-1.14,0.133,-0.042,0.784,-1.69,2.32,0.00,0.00,1.69,-2.32,0.00,5.93,-8.10,3.44,-3.27,0.00,-1.15,1.81,22.26,1100,1100,1100,1100,1076,1499,1509,11903,817
171006,9,-4.07,3.37,0.18,-0.090,-0.183,0.965,-2.00,1.46,0.00,0.00,2.00,-1.46,0.00,7.00,-5.11,11.07,-8.48,0.00,1.69,-1.93,-7.25,1100,1100,1100,1100,1077,1500,1508,11899,817
171019,9,3.25,-2.32,0.26,0.001,-0.131,0.854,-2.58,0.76,0.00,0.00,2.58,-0.76,0.00,9.03,-2.66,5.78,-0.34,0.00,-1.01,0.70,-3.05,1100,1100,1100,1100,1077,1500,1508,11895,817
171031,9,1.51,0.77,0.75,-0.089,-0.076,0.915,-2.78,0.22,0.00,0.00,2.78,-0.22,0.00,9.73,-0.78,8.22,-1.55,0.00,-0.32,-0.83,-7.67,1100,1100,1100,1100,1080,1499,1509,11886,817
171042,9,-0.94,-3.76,-0.38,-0.005,0.047,1.068,-2.13,0.36,0.00,0.00,2.13,-0.36,0.00,7.47,-1.27,8.40,2.50,0.00,1.12,0.97,8.49,1100,1100,1100,1100,1080,1499,1509,11886,817
171054,9,3.31,-1.67,-0.81,-0.014,-0.126,0.970,-2.30,-0.11,0.00,0.00,2.30,0.11,0.00,8.06,0.39,4.76,2.06,0.00,-0.68,0.28,13.13,1100,1100,1100,1100,1085,1499,1509,11882,818
171066,9,-0.91,4.92,0.68,-0.044,-0.109,0.860,-1.49,-0.32,0.00,0.00,1.49,0.32,0.00,5.22,1.12,6.13,-3.80,0.00,1.21,-2.43,-18.30,1100,1100,1100,1100,1092,1500,1508,11878,818
171079,9,-2.34,4.43,-0.18,0.048,0.080,0.931,-0.96,-0.46,0.00,0.00,0.96,0.46,0.00,3.34,1.60,5.68,-2.83,0.00,1.49,-1.44,5.41,1100,1100,1100,1100,1092,1500,1508,11886,818
171091,9,-0.57,2.24,1.06,-0.003,-0.028,0.973,-1.33,-0.83,0.00,0.00,1.33,0.83,0.00,4.66,2.90,5.23,0.66,0.00,0.24,-0.08,-14.89,1100,1100,1100,1100,1092,1500,1508,11878,818
171103,9,-0.60,5.26,-0.72,-0.027,-0.135,0.823,-1.83,-0.49,0.00,0.00,1.83,0.49,0.00,6.41,1.71,7.00,-3.55,0.00,-0.06,-1.25,14.34,1100,1100,1100,1100,1092,1500,1508,11878,818
171114,9,-3.03,5.04,-0.12,-0.073,0.001,0.959,-1.55,-0.31,0.00,0.00,1.55,0.31,0.00,5.42,1.07,8.45,-3.97,0.00,1.13,-1.35,-2.37,1100,1100,1100,1100,1093,1500,1508,11878,818
171126,9,2.82,-8.89,0.52,0.161,0.105,0.764,-1.58,0.35,0.00,0.00,1.58,-0.35,0.00,5.55,-1.21,2.72,7.68,0.00,-1.05,4.79,-12.70,1100,1100,1100,1100,1093,1500,1508,11878,818
171139,9,1.29,-2.33,0.60,0.041,-0.124,0.659,-2.12,0.52,0.00,0.00,2.12,-0.52,0.00,7.44,-1.83,6.15,0.50,0.00,-0.16,0.65,-7.71,1100,1100,1100,1100,1093,1500,1508,11886,818
171151,9,3.17,-4.86,-0.42,0.137,-0.023,0.944,-1.76,1.27,0.00,0.00,1.76,-1.27,0.00,6.15,-4.44,2.99,0.42,0.00,-0.77,1.14,12.56,1100,1100,1100,1100,1093,1500,1508,11886,818
171162,9,6.21,-3.99,-1.49,0.104,-0.042,0.913,-1.96,1.83,0.00,0.00,1.96,-1.83,0.00,6.87,-6.41,0.65,-2.43,0.00,-2.15,0.92,26.08,1100,1100,1100,1100,1093,1500,1508,11890,818
171174,9,-4.07,4.18,0.11,-0.066,-0.065,0.764,-1.02,2.31,0.00,0.00,1.02,-2.31,0.00,3.57,-8.08,7.63,-12.25,0.00,2.18,-2.67,-9.65,1100,1100,1100,1100,1099,1500,1508,11878,818
171186,9,-0.61,0.46,1.31,-0.006,-0.047,1.025,-1.20,1.89,0.00,0.00,1.20,-1.89,0.00,4.20,-6.63,4.81,-7.09,0.00,0.32,-0.02,-26.69,1100,1100,1100,1100,1105,1500,1508,11870,818
171199,9,5.24,-1.68,0.97,-0.106,-0.184,1.049,-1.81,0.73,0.00,0.00,1.81,-0.73,0.00,6.33,-2.54,1.09,-0.87,0.00,-2.56,1.30,-11.23,1100,1100,1100,1100,1105,1500,1508,11870,818
171211,9,-4.95,2.41,-0.71,0.056,-0.087,0.644,-1.97,0.75,0.00,0.00,1.97,-0.75,0.00,6.90,-2.61,11.85,-5.02,0.00,3.05,-1.21,21.62,1100,1100,1100,1100,1104,1500,1509,11861,818
171222,9,0.93,-1.45,-1.50,0.067,-0.123,0.961,-2.87,0.86,0.00,0.00,2.87,-0.86,0.00,10.03,-3.01,9.10,-1.55,0.00,0.37,0.43,27.53,1100,1100,1100,1100,1104,1500,1509,11861,818
171234,9,4.97,1.69,0.63,-0.075,-0.100,1.143,-2.66,0.02,0.00,0.00,2.66,-0.02,0.00,9.32,-0.08,4.35,-1.77,0.00,-1.97,-0.55,-16.67,1100,1100,1100,1100,1107,1500,1508,11861,818
171246,9,-0.33,-1.71,1.35,0.008,-0.011,0.757,-1.94,0.90,0.00,0.00,1.94,-0.90,0.00,6.81,-3.16,7.14,-1.45,0.00,1.05,0.22,-24.93,1100,1100,1100,1100,1108,1500,1508,11878,818
171259,9,-1.14,-0.07,0.51,0.045,-0.063,0.932,-1.85,1.33,0.00,0.00,1.85,-1.33,0.00,6.49,-4.65,7.64,-4.58,0.00,1.23,-0.46,0.97,1100,1100,1100,1100,1108,1500,1508,11878,818
171271,9,-2.18,2.90,0.03,-0.033,-0.063,1.023,-1.71,1.22,0.00,0.00,1.71,-1.22,0.00,5.98,-4.28,8.16,-7.18,0.00,1.18,-1.33,3.46,1100,1100,1100,1100,1120,1499,1509,11878,818
171282,9,-2.55,3.43,-0.81,0.038,0.007,0.952,-1.41,0.71,0.00,0.00,1.41,-0.71,0.00,4.94,-2.47,7.49,-5.91,0.00,1.06,-0.79,14.55,1100,1100,1100,1100,1120,1499,1509,11874,818
171294,9,-1.97,3.83,0.83,0.001,-0.114,0.927,-2.06,0.59,0.00,0.00,2.06,-0.59,0.00,7.21,-2.06,9.18,-5.88,0.00,0.95,-1.30,-18.60,1100,1100,1100,1100,1122,1499,1509,11870,818
171306,9,-0.71,4.83,0.40,-0.004,-0.150,0.797,-2.51,0.54,0.00,0.00,2.51,-0.54,0.00,8.80,-1.87,9.51,-6.70,0.00,-0.08,-1.28,-5.87,1100,1100,1100,1100,1132,1499,1509,11865,818
171319,9,-2.56,2.10,0.05,-0.107,0.093,1.059,-1.94,-0.03,0.00,0.00,1.94,0.03,0.00,6.79,0.11,9.36,-1.99,0.00,1.06,-0.60,1.37,1100,1100,1100,1100,1132,1499,1509,11857,818
171331,9,5.62,-10.17,0.76,0.085,0.012,0.814,-2.80,0.10,0.00,0.00,2.80,-0.10,0.00,9.81,-0.36,4.19,9.80,0.00,-1.73,4.59,-14.63,1100,1100,1100,1100,1132,1499,1509,11861,818
171342,9,3.62,-2.49,0.82,0.026,-0.204,0.804,-3.14,0.78,0.00,0.00,3.14,-0.78,0.00,11.00,-2.74,7.38,-0.25,0.00,-0.48,-0.07,-14.08,1100,1100,1100,1100,1132,1500,1509,11857,818
171354,9,-1.95,-1.46,-0.75,0.120,0.087,0.843,-1.90,1.86,0.00,0.00,1.90,-1.86,0.00,6.66,-6.50,8.61,-5.05,0.00,2.52,-1.44,16.77,1100,1100,1100,1100,1135,1500,1508,11861,812
171366,9,3.58,-0.25,-0.22,0.068,0.040,0.918,-1.94,0.98,0.00,0.00,1.94,-0.98,0.00,6.77,-3.43,3.20,-3.19,0.00,-0.55,-0.56,6.24,1100,1100,1100,1100,1135,1500,1508,11865,812
171379,9,-0.79,2.70,0.07,0.007,-0.062,0.765,-1.06,1.77,0.00,0.00,1.06,-1.77,0.00,3.69,-6.18,4.49,-8.88,0.00,0.74,-1.57,-4.14,1100,1100,1100,1100,1135,1500,1508,11870,812
171391,9,-1.55,3.23,0.15,0.038,0.147,0.836,-0.35,1.58,0.00,0.00,0.35,-1.58,0.00,1.23,-5.54,2.78,-8.77,0.00,0.84,-1.37,-5.62,1100,1100,1100,1100,1137,1500,1508,11878,812
171402,9,-2.73,1.81,0.07,0.034,-0.006,0.921,-0.68,1.66,0.00,0.00,0.68,-1.66,0.00,2.38,-5.81,5.11,-7.62,0.00,0.41,0.35,-1.30,1100,1100,1100,1100,1137,1500,1508,11878,812
171415,9,-3.24,3.02,0.64,-0.044,-0.161,0.958,-1.47,0.93,0.00,0.00,1.47,-0.93,0.00,5.15,-3.25,8.39,-6.28,0.00,0.69,-0.21,-8.87,1100,1100,1100,1100,1137,1500,1508,11874,812
171426,9,2.52,-5.37,0.01,0.102,-0.038,0.676,-2.07,1.23,0.00,0.00,2.07,-1.23,0.00,7.25,-4.32,4.72,1.06,0.00,-1.16,3.09,4.57,1100,1100,1100,1100,1148,1500,1508,11878,812
171439,9,0.61,1.99,-0.85,0.038,-0.104,0.769,-2.98,1.06,0.00,0.00,2.98,-1.06,0.00,10.42,-3.72,9.80,-5.71,0.00,-0.12,-0.64,17.87,1100,1100,1100,1100,1148,1500,1508,11870,812
171451,9,2.65,-1.32,-0.25,-0.063,-0.226,1.123,-3.26,1.09,0.00,0.00,3.26,-1.09,0.00,11.42,-3.81,8.77,-2.50,0.00,-0.88,0.59,-1.83,1145,1178,1184,1144,1151,1500,1508,11870,817
171463,9,7.08,-6.67,0.47,0.071,0.068,0.831,-2.19,1.18,0.00,0.00,2.19,-1.18,0.00,7.68,-4.12,0.60,2.55,0.00,-1.86,2.02,-10.64,1145,1178,1184,1144,1151,1501,1508,11878,817
171474,9,7.88,-12.91,0.50,0.101,0.057,0.647,-2.35,3.12,0.00,0.00,2.35,-3.12,0.00,8.24,-10.91,0.36,2.00,0.00,-1.63,3.49,-5.46,1145,1178,1184,1144,1150,1501,1507,11874,817
171486,9,1.96,-2.90,0.14,0.056,-0.178,0.916,-2.49,2.95,0.00,0.00,2.49,-2.95,0.00,8.73,-10.33,6.77,-7.43,0.00,1.05,-1.38,3.44,1145,1178,1184,1144,1150,1500,1508,11870,817
171499,9,2.74,-6.16,-0.86,0.113,-0.117,0.861,-2.32,3.49,0.00,0.00,2.32,-3.49,0.00,8.10,-12.21,5.36,-6.05,0.00,0.72,0.13,20.30,1145,1178,1184,1144,1150,1500,1508,11845,817
171511,9,4.14,-2.67,-1.28,0.131,-0.081,0.933,-2.32,3.68,0.00,0.00,2.32,-3.68,0.00,8.14,-12.88,4.00,-10.21,0.00,-0.63,-0.60,67.46,1145,1178,1184,1144,1150,1500,1508,11820,817
171522,9,-4.02,1.77,0.55,0.045,-0.044,0.716,-1.19,4.82,0.00,0.00,1.19,-4.82,0.00,4.17,-16.86,8.19,-18.63,0.00,2.35,-2.66,30.02,1145,1178,1184,1144,1150,1500,1508,11811,817
171534,9,-1.93,-2.60,1.35,0.044,0.141,0.754,-0.61,4.02,0.00,0.00,0.61,-4.02,0.00,2.15,-14.06,4.08,-11.46,0.00,1.10,0.08,12.25,1145,1178,1184,1144,1158,1500,1508,11820,817
171546,9,-1.00,0.72,0.05,0.120,-0.050,0.958,-1.44,3.40,0.00,0.00,1.44,-3.40,0.00,5.03,-11.89,6.03,-12.61,0.00,-0.30,0.55,43.67,1145,1178,1184,1144,1158,1499,1509,11824,817
171559,9,-8.72,10.24,0.35,0.006,-0.145,0.835,-1.22,3.78,0.00,0.00,1.22,-3.78,0.00,4.26,-13.21,12.98,-23.45,0.00,2.35,-3.91,-4.44,1132,1182,1182,1133,1158,1499,1509,11807,813
171571,9,-6.47,5.70,1.21,-0.099,0.065,0.938,-0.96,2.85,0.00,0.00,0.96,-2.85,0.00,3.35,-9.98,9.82,-15.68,0.00,1.14,-1.16,-23.82,1132,1182,1182,1133,1167,1499,1509,11799,813
171582,9,0.79,1.80,0.51,-0.007,-0.071,1.023,-1.46,1.33,0.00,0.00,1.46,-1.33,0.00,5.11,-4.66,4.31,-6.46,0.00,-2.03,1.63,-6.07,1132,1182,1182,1133,1167,1499,1509,11795,813
171594,9,-0.35,2.25,0.78,-0.010,-0.198,0.766,-2.36,1.58,0.00,0.00,2.36,-1.58,0.00,8.25,-5.53,8.59,-7.78,0.00,-1.02,-0.24,-7.75,1132,1182,1182,1133,1167,1499,1509,11778,813
171606,9,-1.06,-2.50,0.74,-0.050,-0.230,0.799,-3.24,1.99,0.00,0.00,3.24,-1.99,0.00,11.35,-6.97,12.41,-4.47,0.00,0.78,0.69,-7.18,1132,1182,1182,1133,1170,1500,1508,11782,813
171619,9,2.81,-7.05,-0.10,0.006,-0.165,1.024,-4.14,1.50,0.00,0.00,4.14,-1.50,0.00,14.48,-5.26,11.67,1.78,0.00,-0.82,3.08,51.74,1132,1182,1182,1133,1170,1500,1508,11761,813
171631,9,3.92,-0.18,0.79,-0.113,-0.059,1.031,-3.67,-0.59,0.00,0.00,3.67,0.59,0.00,12.86,2.08,8.94,2.26,0.00,-0.90,-0.26,93.23,1132,1182,1182,1133,1170,1503,1505,11770,813
171643,9,5.43,1.43,0.90,-0.098,-0.068,0.811,-2.82,-1.75,0.00,0.00,2.82,1.75,0.00,9.89,6.14,4.46,4.71,0.00,-0.95,-1.34,88.34,1132,1182,1182,1133,1170,1500,1505,11774,813
171654,9,0.13,2.40,-0.83,-0.150,-0.053,0.999,-1.71,-1.78,0.00,0.00,1.71,1.78,0.00,5.99,6.22,5.85,3.82,0.00,1.59,-1.50,18.09,1133,1230,1230,1133,1179,1500,1508,11766,812
171666,9,-1.94,0.27,-1.81,0.057,0.050,1.077,-1.43,-0.79,0.00,0.00,1.43,0.79,0.00,4.99,2.77,6.93,2.50,0.00,2.45,-0.26,30.41,1133,1230,1230,1133,1179,1500,1508,11774,812
171679,9,0.99,4.43,0.48,0.072,0.055,0.941,-1.37,-1.03,0.00,0.00,1.37,1.03,0.00,4.80,3.60,3.80,-0.83,0.00,0.19,-1.11,14.09,1133,1230,1230,1133,1179,1500,1508,11757,812
171691,9,-2.34,10.15,0.80,-0.010,-0.155,0.746,-1.01,-1.21,0.00,0.00,1.01,1.21,0.00,3.54,4.22,5.89,-5.92,0.00,0.30,-3.23,-12.13,1133,1230,1230,1133,1183,1500,1508,11741,812
171702,9,-12.80,7.05,0.58,-0.253,-0.039,0.983,0.45,-0.68,0.00,0.00,-0.45,0.68,0.00,-1.58,2.37,11.22,-4.68,0.00,4.28,-1.70,-7.18,1133,1230,1230,1133,1183,1500,1508,11745,812
171714,9,-5.22,-4.61,-1.43,0.000,0.083,0.949,0.06,0.22,0.00,0.00,-0.06,-0.22,0.00,-0.22,-0.76,4.99,3.85,0.00,0.98,4.32,26.81,1133,1230,1230,1133,1183,1500,1508,11741,812
171726,9,6.22,9.59,-2.24,0.048,-0.041,0.933,-0.90,-0.85,0.00,0.00,0.90,0.85,0.00,3.16,2.99,-3.06,-6.60,0.00,-4.37,-2.02,26.03,1133,1230,1230,1133,1184,1503,1505,11736,812
171739,9,1.85,7.03,-1.62,0.067,-0.150,0.807,-0.41,-0.83,0.00,0.00,0.41,0.83,0.00,1.45,2.89,-0.40,-4.14,0.00,-1.75,-2.03,123.36,1133,1230,1230,1133,1184,1503,1505,11741,812
171751,9,-5.08,-17.43,-2.55,0.036,-0.054,0.634,-0.09,1.97,0.00,0.00,0.09,-1.97,0.00,0.30,-6.88,5.38,10.55,0.00,2.70,7.65,16.51,1151,1231,1245,1144,1184,1500,1508,11745,813
171762,9,0.89,-6.17,-5.19,0.188,0.059,0.713,-0.31,3.55,0.00,0.00,0.31,-3.55,0.00,1.08,-12.44,0.19,-6.27,0.00,0.05,2.45,51.70,1151,1231,1245,1144,1184,1500,1508,11741,813
171774,9,1.56,8.60,-6.99,-0.043,-0.081,1.211,-1.58,3.25,0.00,0.00,1.58,-3.25,0.00,5.55,-11.39,3.99,-19.99,0.00,-0.27,-5.31,69.79,1151,1231,1245,1144,1185,1500,1508,11741,813
171786,9,-1.62,-2.90,-4.80,0.181,-0.191,0.844,-2.25,3.55,0.00,0.00,2.25,-3.55,0.00,7.88,-12.42,9.51,-9.52,0.00,1.34,0.27,18.81,1151,1231,1245,1144,1185,1500,1508,11749,813
171799,9,-1.04,-1.38,-2.26,0.009,0.017,0.864,-1.91,2.12,0.00,0.00,1.91,-2.12,0.00,6.70,-7.42,7.73,-6.04,0.00,0.89,0.41,-21.19,1151,1231,1245,1144,1185,1500,1508,11749,813
171811,9,-3.50,2.66,-1.72,-0.227,-0.146,1.009,-2.33,2.25,0.00,0.00,2.33,-2.25,0.00,8.14,-7.88,11.64,-10.54,0.00,1.53,-0.96,-21.67,1151,1231,1245,1144,1187,1499,1509,11741,813
171823,9,-2.11,1.79,-2.57,-0.107,-0.031,0.962,-2.27,1.57,0.00,0.00,2.27,-1.57,0.00,7.94,-5.50,10.05,-7.30,0.00,0.85,-0.64,7.26,1151,1231,1245,1144,1187,1499,1509,11728,813
171834,9,4.59,-3.03,-3.74,0.035,-0.031,0.844,-2.23,1.49,0.00,0.00,2.23,-1.49,0.00,7.80,-5.22,3.21,-2.19,0.00,-2.01,1.51,126.44,1151,1231,1245,1144,1188,1499,1509,11741,813
171846,9,6.51,5.83,-4.64,-0.063,-0.153,0.951,-2.68,0.33,0.00,0.00,2.68,-0.33,0.00,9.40,-1.17,2.88,-7.00,0.00,-3.03,-2.93,134.70,1151,1231,1245,1144,1192,1500,1508,11741,813
171859,9,-11.31,1.44,-7.58,0.265,-0.177,0.567,-1.72,2.07,0.00,0.00,1.72,-2.07,0.00,6.02,-7.24,17.33,-8.69,0.00,5.68,-0.99,70.41,1130,1271,1263,1125,1192,1500,1508,11736,813
171871,9,-7.34,0.90,-6.80,-0.061,0.178,1.042,-1.28,-0.28,0.00,0.00,1.28,0.28,0.00,4.49,0.97,11.84,0.07,0.00,4.26,0.07,41.06,1130,1271,1263,1125,1192,1500,1508,11716,813
171882,9,10.53,-5.62,-5.61,0.053,0.160,1.012,-2.25,1.38,0.00,0.00,2.25,-1.38,0.00,7.89,-4.82,-2.65,0.80,0.00,-4.07,3.03,8.54,1130,1271,1263,1125,1192,1500,1508,11724,813
171894,9,10.50,10.98,-6.56,-0.004,-0.187,0.987,-3.23,1.60,0.00,0.00,3.23,-1.60,0.00,11.29,-5.59,0.79,-16.57,0.00,-5.05,-5.23,32.76,1130,1271,1263,1125,1193,1500,1508,11707,813
171906,9,-6.25,-5.28,-5.31,-0.063,-0.462,0.774,-2.75,2.17,0.00,0.00,2.75,-2.17,0.00,9.63,-7.61,15.87,-2.33,0.00,2.82,2.07,4.19,1130,1271,1263,1125,1193,1500,1508,11699,813
171919,9,-6.68,-5.56,-6.65,-0.135,0.006,0.940,-1.30,0.89,0.00,0.00,1.30,-0.89,0.00,4.56,-3.11,11.24,2.45,0.00,3.25,3.12,36.79,1130,1271,1263,1125,1193,1500,1508,11703,813
171931,9,-0.66,0.50,-5.73,-0.031,-0.024,0.851,-1.39,2.69,0.00,0.00,1.39,-2.69,0.00,4.85,-9.40,5.51,-9.90,0.00,0.93,-0.20,11.34,1130,1271,1263,1125,1195,1500,1508,11703,813
171942,9,-2.18,7.57,-7.03,0.104,0.041,0.832,-1.38,2.01,0.00,0.00,1.38,-2.01,0.00,4.82,-7.04,7.01,-14.61,0.00,1.85,-3.85,41.75,1130,1271,1263,1125,1195,1500,1508,11707,813
171954,9,0.21,1.77,-5.33,0.227,0.014,0.861,-1.78,2.27,0.00,0.00,1.78,-2.27,0.00,6.22,-7.94,6.01,-9.71,0.00,0.64,-0.76,55.34,1174,1215,1215,1174,1195,1500,1508,11711,813
171966,1,3.73,-2.94,-2.61,0.019,-0.142,0.962,-2.79,1.80,0.00,0.00,2.79,-1.80,0.00,9.77,-6.29,6.04,-3.35,0.00,-1.51,1.66,11.52,1174,1215,1215,1174,1201,1500,1508,11703,813
171979,1,-1.83,3.14,-2.73,-0.012,-0.160,0.847,-2.78,1.53,0.00,0.00,2.78,-1.53,0.00,9.76,-5.37,11.59,-8.51,0.00,0.86,-1.09,-11.70,1174,1215,1215,1174,1201,1500,1508,11699,813
171991,1,-6.44,-3.50,-1.94,-0.082,-0.082,0.910,-2.58,1.83,0.00,0.00,2.58,-1.83,0.00,9.09,-6.45,15.53,-2.95,0.00,3.37,1.29,8.66,1174,1215,1215,1174,1201,1500,1508,11703,813
172002,1,3.47,-0.85,-3.11,-0.003,0.170,0.917,-2.09,2.03,0.00,0.00,2.09,-2.03,0.00,7.38,-7.16,3.92,-6.31,0.00,-1.01,0.44,42.13,1174,1215,1215,1174,1201,1500,1508,11724,813
172014,1,10.74,2.03,-3.18,0.157,-0.087,0.846,-3.72,2.94,0.00,0.00,3.72,-2.94,0.00,13.14,-10.38,2.40,-12.41,0.00,-4.54,-0.99,13.74,1174,1215,1215,1174,1203,1500,1508,11724,813
172027,1,-2.12,9.15,-8.66,0.177,-0.319,0.760,-3.41,1.79,0.00,0.00,3.41,-1.79,0.00,12.06,-6.37,14.18,-15.52,0.00,1.02,-4.66,106.93,1174,1215,1215,1174,1205,1500,1508,11724,813
172039,1,-8.39,-11.08,-8.16,0.108,-0.315,0.845,-2.99,2.01,0.00,0.00,2.99,-2.01,0.00,10.61,-7.14,18.99,3.94,0.00,4.43,4.74,66.15,1174,1215,1215,1174,1205,1500,1508,11716,813
172051,1,-4.95,-11.52,-7.66,-0.150,-0.083,0.866,-2.93,2.57,0.00,0.00,2.93,-2.57,0.00,10.44,-9.12,15.38,2.40,0.00,3.20,4.34,39.36,1166,1243,1252,1164,1207,1500,1508,11728,810
172062,1,5.16,6.10,-5.73,-0.010,0.104,0.873,-2.38,1.38,0.00,0.00,2.38,-1.38,0.00,8.54,-4.98,3.38,-11.08,0.00,-1.64,-3.30,-0.57,1166,1243,1252,1164,1207,1500,1508,11711,810
172074,1,3.15,3.47,-5.16,0.100,-0.114,0.813,-2.76,2.84,0.00,0.00,2.76,-2.84,0.00,9.88,-10.13,6.74,-13.59,0.00,-0.94,-2.77,-3.40,1166,1243,1252,1164,1207,1500,1508,11691,810
172086,1,3.25,1.73,-6.33,-0.072,-0.017,1.057,-2.07,0.74,0.00,0.00,2.07,-0.74,0.00,7.51,-2.79,4.26,-4.52,0.00,-1.09,-1.30,29.69,1166,1243,1252,1164,1207,1499,1509,11711,810
172099,1,-1.15,-6.72,-5.71,0.033,-0.126,0.750,-2.24,2.24,0.00,0.00,2.24,-2.24,0.00,8.13,-8.05,9.28,-1.32,0.00,1.26,2.63,61.79,1166,1243,1252,1164,1207,1499,1509,11695,810
172111,1,-2.42,4.90,-5.56,-0.095,0.036,0.888,-2.44,1.05,0.00,0.00,2.44,-1.05,0.00,8.85,-3.89,11.27,-8.79,0.00,1.73,-2.47,19.25,1166,1243,1252,1164,1207,1499,1509,11691,810
172122,1,-4.34,3.53,-6.57,0.132,-0.035,0.798,-2.44,1.08,0.00,0.00,2.44,-1.08,0.00,8.87,-4.00,13.21,-7.53,0.00,2.51,-1.58,32.74,1166,1243,1252,1164,1207,1500,1509,11716,810
172134,1,0.31,-6.99,-5.72,0.004,0.101,0.909,-2.52,0.91,0.00,0.00,2.52,-0.91,0.00,9.18,-3.44,8.88,3.55,0.00,0.38,3.02,18.62,1166,1243,1252,1164,1208,1500,1508,11707,810
172146,1,5.12,-7.39,-5.54,0.015,0.028,0.864,-2.97,0.57,0.00,0.00,2.97,-0.57,0.00,10.78,-2.23,5.67,5.16,0.00,-1.67,3.15,18.62,1166,1243,1252,1164,1208,1500,1508,11703,810
172159,1,9.92,4.94,-5.42,0.075,-0.018,0.919,-2.88,0.82,0.00,0.00,2.88,-0.82,0.00,10.49,-3.13,0.58,-8.07,0.00,-4.50,-2.74,54.97,1168,1245,1250,1167,1208,1500,1508,11707,810
172171,1,0.74,-1.48,-5.57,0.246,-0.517,0.727,-3.14,2.66,0.00,0.00,3.14,-2.66,0.00,11.42,-9.58,10.68,-8.10,0.00,-0.24,-0.68,15.99,1168,1245,1250,1167,1209,1500,1508,11695,810
172182,1,-12.80,-2.69,-6.32,-0.249,-0.137,0.986,-1.10,1.03,0.00,0.00,1.10,-1.03,0.00,4.29,-3.89,17.10,-1.21,0.00,6.34,0.00,32.71,1168,1245,1250,1167,1209,1500,1508,11691,810
172194,1,-8.69,-7.34,-9.81,0.145,0.085,0.712,1.16,3.07,0.00,0.00,-1.16,-3.07,0.00,-3.63,-11.06,5.06,-3.72,0.00,4.69,3.68,76.75,1168,1245,1250,1167,1209,1500,1508,11691,810
172206,1,0.79,8.26,-9.46,0.008,0.211,1.030,-0.18,3.12,0.00,0.00,0.18,-3.12,0.00,1.07,-11.28,0.28,-19.53,0.00,0.05,-4.37,54.95,1168,1245,1250,1167,1210,1500,1508,11687,810
172219,1,6.11,11.40,-10.42,0.087,-0.003,1.002,-0.92,2.03,0.00,0.00,0.92,-2.03,0.00,3.67,-7.47,-2.44,-18.87,0.00,-2.64,-5.93,101.49,1168,1245,1250,1167,1210,1500,1508,11670,810
172231,1,3.87,-20.44,-8.27,0.306,-0.132,0.523,-2.61,3.64,0.00,0.00,2.61,-3.64,0.00,9.61,-13.13,5.74,7.32,0.00,-1.21,8.77,13.96,1168,1245,1250,1167,1210,1500,1508,11670,810
172242,1,1.32,-3.24,-7.69,-0.241,-0.122,0.922,-2.39,0.19,0.00,0.00,2.39,-0.19,0.00,8.85,-1.06,7.53,2.18,0.00,0.09,1.83,19.97,1168,1245,1250,1167,1210,1500,1508,11653,810
172254,1,2.64,-4.32,-4.17,-0.089,-0.164,0.970,-2.10,1.72,0.00,0.00,2.10,-1.72,0.00,7.84,-6.43,5.20,-2.10,0.00,-0.73,2.27,-33.66,1220,1209,1206,1226,1216,1500,1508,11653,810
172266,1,-0.14,3.91,-3.88,-0.116,-0.077,0.918,-0.99,2.54,0.00,0.00,0.99,-2.54,0.00,3.99,-9.35,4.13,-13.26,0.00,0.27,-2.08,-17.43,1220,1209,1206,1226,1220,1500,1508,11670,810
172279,1,-1.50,4.42,-5.43,-0.127,0.045,0.891,-0.94,1.86,0.00,0.00,0.94,-1.86,0.00,3.82,-6.99,5.32,-11.41,0.00,1.13,-2.72,23.49,1220,1209,1206,1226,1220,1500,1508,11687,810
172291,1,1.46,4.29,-7.36,0.034,0.073,0.979,-0.93,2.65,0.00,0.00,0.93,-2.65,0.00,3.78,-9.75,2.32,-14.04,0.00,-0.26,-2.31,52.79,1220,1209,1206,1226,1220,1500,1508,11699,810
172302,1,7.74,4.79,-7.50,0.247,-0.086,0.912,-1.27,3.60,0.00,0.00,1.27,-3.60,0.00,5.00,-13.11,-2.73,-17.90,0.00,-3.45,-2.92,39.65,1220,1209,1206,1226,1220,1500,1508,11691,810
172314,1,3.50,0.12,-7.59,0.224,-0.340,0.752,-2.89,5.24,0.00,0.00,2.89,-5.24,0.00,10.68,-18.90,7.18,-19.03,0.00,-1.63,-2.05,29.61,1220,1209,1206,1226,1221,1500,1508,11670,810
172326,1,-11.11,-0.06,-8.96,0.136,-0.203,0.780,-1.96,2.94,0.00,0.00,1.96,-2.94,0.00,7.44,-10.88,18.55,-10.81,0.00,5.05,-0.59,50.25,1220,1209,1206,1226,1221,1500,1508,11674,810
172339,1,-11.32,-1.69,-8.86,-0.212,0.038,0.986,0.30,-0.33,0.00,0.00,-0.30,0.33,0.00,-0.47,0.55,10.84,2.23,0.00,5.32,2.12,42.55,1220,1209,1206,1226,1221,1500,1508,11653,810
172351,1,-1.78,-0.52,-8.62,-0.228,0.268,0.889,0.19,-1.00,0.00,0.00,-0.19,1.00,0.00,-0.07,2.92,1.71,3.44,0.00,1.34,1.47,67.53,1167,1275,1274,1165,1221,1500,1508,11645,822
172362,1,7.02,0.51,-10.59,0.062,0.421,0.827,0.70,-0.85,0.00,0.00,-0.70,0.85,0.00,-1.84,2.39,-8.86,1.88,0.00,-2.61,0.28,94.96,1167,1275,1274,1165,1221,1499,1508,11649,822
172374,1,10.67,-3.57,-9.80,0.209,0.106,0.890,-1.13,0.44,0.00,0.00,1.13,-0.44,0.00,4.58,-2.13,-6.09,1.43,0.00,-4.01,1.21,34.76,1167,1275,1274,1165,1224,1499,1509,11653,822
172386,1,6.03,-7.29,-8.07,-0.089,0.033,0.896,-2.08,1.42,0.00,0.00,2.08,-1.42,0.00,7.91,-5.55,1.88,1.73,0.00,-2.14,1.84,9.59,1167,1275,1274,1165,1224,1500,1508,11678,822
172399,1,4.57,5.65,-6.75,-0.303,-0.231,1.150,-2.33,-1.35,0.00,0.00,2.33,1.35,0.00,8.80,4.14,4.24,-1.51,0.00,-1.67,-2.40,1.56,1167,1275,1274,1165,1224,1500,1508,11641,822
172411,1,2.86,2.10,-4.54,-0.029,-0.277,0.980,-2.40,1.06,0.00,0.00,2.40,-1.06,0.00,9.05,-4.32,6.19,-6.42,0.00,-0.95,-1.07,-22.66,1167,1275,1274,1165,1225,1500,1508,11645,822
172422,1,-2.19,9.54,-3.20,-0.006,-0.278,0.712,-2.67,3.21,0.00,0.00,2.67,-3.21,0.00,10.02,-11.87,12.22,-21.40,0.00,1.07,-5.54,-29.72,1167,1275,1274,1165,1225,1500,1508,11645,822
172435,1,-5.54,7.26,-3.35,0.127,-0.221,0.747,-3.03,2.92,0.00,0.00,3.03,-2.92,0.00,11.31,-10.87,16.85,-18.13,0.00,2.54,-3.77,-11.24,1167,1275,1274,1165,1225,1500,1508,11637,822
172447,1,-2.72,-0.77,-4.85,0.125,-0.079,0.844,-2.46,2.65,0.00,0.00,2.46,-2.65,0.00,9.35,-9.93,12.06,-9.16,0.00,1.26,0.57,26.61,1167,1275,1274,1165,1228,1500,1508,11637,822
172459,1,0.79,-4.70,-6.78,0.162,-0.085,0.744,-2.73,4.07,0.00,0.00,2.73,-4.07,0.00,10.30,-14.94,9.51,-10.24,0.00,0.19,0.85,56.80,1200,1253,1255,1201,1228,1500,1508,11653,825
172471,1,6.69,3.46,-6.84,0.236,0.095,0.937,-2.89,2.96,0.00,0.00,2.89,-2.96,0.00,10.92,-11.09,4.23,-14.55,0.00,-2.49,-3.42,46.07,1200,1253,1255,1201,1228,1500,1508,11637,825
172482,1,7.65,3.85,-7.80,0.271,-0.117,0.845,-2.76,2.38,0.00,0.00,2.76,-2.38,0.00,10.46,-9.06,2.81,-12.91,0.00,-3.08,-3.58,49.07,1200,1253,1255,1201,1228,1500,1508,11637,825
172494,1,0.84,-5.94,-8.14,0.250,-0.326,0.779,-2.91,0.88,0.00,0.00,2.91,-0.88,0.00,11.00,-3.82,10.15,2.12,0.00,-0.13,2.80,74.03,1200,1253,1255,1201,1240,1500,1508,11645,825
172506,1,-0.76,-13.89,-8.06,0.223,-0.358,0.751,-3.04,1.82,0.00,0.00,3.04,-1.82,0.00,11.50,-7.14,12.26,6.75,0.00,0.78,6.51,70.49,1200,1253,1255,1201,1240,1500,1508,11624,825
172519,1,-7.96,-11.15,-7.28,-0.076,-0.343,0.862,-2.44,2.58,0.00,0.00,2.44,-2.58,0.00,9.39,-9.84,17.35,1.31,0.00,4.32,5.16,29.53,1200,1253,1255,1201,1240,1500,1508,11632,825
172531,1,-7.80,-4.12,-5.26,-0.354,-0.141,1.023,-2.40,3.02,0.00,0.00,2.40,-3.02,0.00,9.29,-11.43,17.09,-7.31,0.00,4.55,1.21,44.38,1200,1253,1255,1201,1240,1500,1508,11607,825
172542,1,-2.76,7.11,-3.34,-0.321,0.070,1.055,-2.16,1.40,0.00,0.00,2.16,-1.40,0.00,8.48,-5.75,11.24,-12.86,0.00,2.14,-3.12,18.55,1200,1253,1255,1201,1240,1500,1508,11612,825
172554,1,-0.59,2.31,-3.85,0.017,0.060,0.857,-2.04,3.22,0.00,0.00,2.04,-3.22,0.00,8.09,-12.17,8.67,-14.48,0.00,1.31,-1.31,-8.08,1213,1268,1266,1212,1240,1500,1508,11632,810
172566,1,-1.40,2.13,-3.50,-0.019,0.026,0.936,-2.56,4.09,0.00,0.00,2.56,-4.09,0.00,9.93,-15.24,11.32,-17.37,0.00,1.74,-2.15,-6.43,1213,1268,1266,1212,1240,1500,1508,11637,810
172579,1,-1.14,5.46,-4.39,-0.160,0.078,1.070,-2.52,2.80,0.00,0.00,2.52,-2.80,0.00,9.83,-10.78,10.97,-16.24,0.00,1.39,-2.89,17.14,1213,1268,1266,1212,1240,1500,1508,11641,810
172591,1,3.78,2.08,-5.79,0.117,0.135,0.795,-2.03,4.66,0.00,0.00,2.03,-4.66,0.00,8.11,-17.32,4.33,-19.40,0.00,-1.27,-1.36,75.79,1213,1268,1266,1212,1241,1500,1508,11641,810
172602,1,8.26,10.06,-4.71,0.044,0.040,0.881,-2.71,3.56,0.00,0.00,2.71,-3.56,0.00,10.54,-13.49,2.28,-23.55,0.00,-3.68,-5.41,50.87,1213,1268,1266,1212,1241,1500,1508,11632,810
172614,1,10.30,13.50,-4.48,0.013,-0.076,0.856,-2.90,0.41,0.00,0.00,2.90,-0.41,0.00,11.23,-2.46,0.93,-15.96,0.00,-4.99,-5.36,49.18,1213,1268,1266,1212,1241,1500,1508,11607,810
172626,1,8.30,2.09,-4.37,0.448,-0.379,0.697,-3.33,0.13,0.00,0.00,3.33,-0.13,0.00,12.74,-1.48,4.44,-3.56,0.00,-3.95,0.90,51.67,1213,1268,1266,1212,1241,1499,1509,11628,810
172639,1,-1.16,-17.90,-3.29,0.458,-0.577,0.536,-4.58,2.64,0.00,0.00,4.58,-2.64,0.00,17.13,-10.27,18.29,7.63,0.00,1.13,8.66,4.17,1213,1268,1266,1212,1241,1499,1509,11607,810
172651,1,-5.97,-7.87,-2.72,-0.166,-0.494,0.958,-3.60,1.01,0.00,0.00,3.60,-1.01,0.00,13.75,-4.59,19.71,3.28,0.00,3.51,2.54,8.65,1240,1236,1244,1242,1241,1502,1506,11616,853
172662,1,-11.81,-3.02,-3.42,-0.143,-0.278,0.916,-2.41,-0.30,0.00,0.00,2.41,0.30,0.00,9.61,-0.01,21.42,3.02,0.00,6.59,0.53,28.34,1240,1236,1244,1242,1241,1500,1506,11620,853
172674,1,-7.07,2.65,-4.34,-0.128,-0.021,0.988,-0.92,-1.97,0.00,0.00,0.92,1.97,0.00,4.40,5.83,11.47,3.18,0.00,3.96,-0.67,64.41,1240,1236,1244,1242,1247,1500,1508,11620,853
172686,1,-4.88,-1.59,-5.19,0.085,0.076,0.894,-0.28,-1.50,0.00,0.00,0.28,1.50,0.00,2.17,4.22,7.06,5.80,0.00,3.02,1.77,62.42,1240,1236,1244,1242,1248,1500,1508,11620,853
172699,1,-4.69,-4.83,-6.21,0.009,0.112,0.889,-0.76,0.73,0.00,0.00,0.76,-0.73,0.00,3.85,-3.60,8.53,1.24,0.00,2.66,1.74,75.75,1240,1236,1244,1242,1248,1500,1508,11620,853
172711,1,-6.16,-7.16,-8.07,-0.209,0.256,0.976,-0.70,0.89,0.00,0.00,0.70,-0.89,0.00,3.66,-4.16,9.82,3.00,0.00,3.35,2.80,54.95,1240,1236,1244,1242,1253,1500,1508,11599,853
172722,1,-5.72,2.98,-8.28,-0.628,0.289,1.290,-1.32,-0.19,0.00,0.00,1.32,0.19,0.00,5.85,-0.41,11.58,-3.39,0.00,3.14,-1.53,43.34,1240,1236,1244,1242,1253,1500,1508,11616,853
172734,1,-2.42,5.05,-7.24,-0.437,0.426,1.070,-2.17,-1.08,0.00,0.00,2.17,1.08,0.00,8.87,2.72,11.29,-2.33,0.00,1.66,-1.63,17.95,1240,1236,1244,1242,1252,1500,1508,11591,853
172747,1,8.53,14.61,-5.73,-0.436,0.527,1.153,-2.77,-3.30,0.00,0.00,2.77,3.30,0.00,11.01,10.52,2.47,-4.09,0.00,-3.36,-5.65,-5.42,1240,1236,1244,1242,1253,1504,1504,11566,853
172759,1,16.01,14.42,-6.46,-0.158,0.348,1.047,-3.07,-4.41,0.00,0.00,3.07,4.41,0.00,12.08,14.44,-3.93,0.02,0.00,-6.80,-4.81,12.31,1229,1267,1275,1239,1253,1504,1504,11582,845
172771,1,14.65,9.57,-8.97,0.166,0.015,0.943,-2.50,-4.80,0.00,0.00,2.50,4.80,0.00,10.12,15.85,-4.53,6.28,0.00,-6.46,-2.06,52.81,1229,1267,1275,1239,1253,1500,1508,11599,845
172782,1,12.17,-8.02,-9.63,0.240,-0.229,0.796,-2.22,-2.11,0.00,0.00,2.22,2.11,0.00,9.16,6.47,-3.01,14.49,0.00,-4.71,4.91,51.81,1229,1267,1275,1239,1253,1500,1508,11595,845
172794,1,6.71,-7.26,-10.03,-0.002,-0.358,0.947,-2.40,-1.09,0.00,0.00,2.40,1.09,0.00,9.78,2.90,3.06,10.17,0.00,-1.87,3.09,49.88,1229,1267,1275,1239,1253,1500,1508,11591,845
172806,1,0.77,-5.54,-10.03,0.064,-0.314,0.790,-2.90,1.80,0.00,0.00,2.90,-1.80,0.00,11.57,-7.24,10.79,-1.70,0.00,0.96,1.39,42.87,1229,1267,1275,1239,1253,1500,1508,11574,845
172819,1,-1.12,6.10,-8.70,-0.217,-0.205,1.027,-2.53,1.55,0.00,0.00,2.53,-1.55,0.00,10.29,-6.37,11.41,-12.47,0.00,1.29,-4.34,57.52,1229,1267,1275,1239,1253,1500,1508,11591,845
172831,1,-1.43,11.22,-7.67,-0.064,-0.291,0.911,-3.07,0.09,0.00,0.00,3.07,-0.09,0.00,12.21,-1.29,13.64,-12.51,0.00,0.64,-4.57,0.82,1229,1267,1275,1239,1253,1500,1508,11591,845
172843,1,-3.61,5.87,-7.30,0.062,-0.275,0.883,-3.35,-0.58,0.00,0.00,3.35,0.58,0.00,13.19,1.09,16.80,-4.79,0.00,1.41,-1.01,1.61,1229,1267,1275,1239,1253,1500,1508,11582,845
172854,1,-5.84,-3.99,-6.88,0.009,-0.122,0.741,-2.97,0.24,0.00,0.00,2.97,-0.24,0.00,11.89,-1.78,17.73,2.21,0.00,2.69,3.20,99.15,1162,1343,1343,1162,1253,1500,1508,11587,853
172866,1,-7.23,-1.48,-6.22,-0.364,0.079,0.967,-2.78,0.41,0.00,0.00,2.78,-0.41,0.00,11.26,-2.39,18.49,-0.91,0.00,3.94,0.67,96.36,1162,1343,1343,1162,1253,1500,1508,11574,853
172879,1,-4.13,2.56,-6.32,-0.474,0.347,1.081,-2.73,-0.18,0.00,0.00,2.73,0.18,0.00,11.14,-0.36,15.27,-2.91,0.00,2.70,-1.70,51.74,1162,1343,1343,1162,1253,1500,1508,11574,853
172891,1,5.13,14.41,-6.10,-0.513,0.579,1.317,-2.26,-3.03,0.00,0.00,2.26,3.03,0.00,9.52,9.65,4.38,-4.76,0.00,-1.53,-6.20,6.26,1162,1343,1343,1162,1253,1500,1508,11607,853
172902,1,12.68,15.97,-6.55,-0.138,0.517,1.055,-1.12,-5.23,0.00,0.00,1.12,5.23,0.00,5.56,17.39,-7.12,1.43,0.00,-5.06,-5.31,11.25,1162,1343,1343,1162,1253,1499,1508,11616,853
172914,1,11.79,13.35,-6.71,-0.032,0.284,0.990,-0.44,-6.22,0.00,0.00,0.44,6.22,0.00,3.20,20.91,-8.59,7.56,0.00,-4.79,-2.92,10.46,1162,1343,1343,1162,1253,1499,1509,11607,853
172926,1,10.08,0.86,-7.50,0.132,0.071,0.888,-0.29,-4.60,0.00,0.00,0.29,4.60,0.00,2.66,15.30,-7.42,14.44,0.00,-4.61,3.01,25.73,1162,1343,1343,1162,1263,1499,1509,11603,853
172939,1,3.24,9.30,-7.76,-0.287,-0.066,1.135,0.13,-4.82,0.00,0.00,-0.13,4.82,0.00,1.20,16.10,-2.04,6.81,0.00,-1.60,-1.13,31.63,1162,1343,1343,1162,1263,1499,1509,11607,853
172951,1,-0.15,-3.26,-7.70,0.073,-0.130,0.872,0.07,-1.09,0.00,0.00,-0.07,1.09,0.00,1.38,3.08,1.53,6.34,0.00,-0.15,3.39,132.55,1170,1357,1362,1165,1264,1499,1509,11599,923
172962,1,5.00,-3.70,-5.55,-0.108,-0.144,0.940,-0.85,-0.29,0.00,0.00,0.85,0.29,0.00,4.61,0.26,-0.39,3.95,0.00,-2.24,1.67,97.58,1170,1357,1362,1165,1264,1500,1509,11582,923
172974,1,1.90,-0.62,-4.91,-0.110,-0.218,0.829,-1.34,-2.14,0.00,0.00,1.34,2.14,0.00,6.34,6.77,4.44,7.39,0.00,-0.38,0.20,43.27,1170,1357,1362,1165,1265,1500,1508,11582,923
172986,1,-2.11,0.94,-4.76,-0.012,-0.272,0.982,-1.42,-3.43,0.00,0.00,1.42,3.43,0.00,6.63,11.30,8.74,10.36,0.00,1.80,0.27,50.79,1170,1357,1362,1165,1265,1500,1508,11578,923
172999,1,-8.61,-6.26,-4.18,-0.165,-0.158,1.017,-0.83,-1.69,0.00,0.00,0.83,1.69,0.00,4.56,5.24,13.17,11.51,0.00,4.95,3.37,4.00,1170,1357,1362,1165,1265,1500,1508,11562,923
173011,1,-11.70,-6.71,-2.92,-0.053,0.011,0.915,-0.45,1.28,0.00,0.00,0.45,-1.28,0.00,3.24,-5.18,14.94,1.53,0.00,6.59,2.81,49.22,1170,1357,1362,1165,1265,1500,1508,11549,923
173022,1,-10.93,-5.80,-2.16,0.018,0.374,0.800,-0.26,6.78,0.00,0.00,0.26,-6.78,0.00,2.61,-24.48,13.54,-18.68,0.00,6.33,0.26,49.68,1170,1357,1362,1165,1265,1500,1508,11557,923
173034,1,-2.29,-0.92,-1.95,0.149,0.393,0.953,-1.44,8.88,0.00,0.00,1.44,-8.88,0.00,6.76,-31.91,9.04,-30.99,0.00,1.60,-2.75,-7.48,1170,1357,1362,1165,1265,1500,1508,11562,923
173046,1,3.60,-6.37,-3.24,0.311,0.296,0.792,-2.53,11.47,0.00,0.00,2.53,-11.47,0.00,10.60,-41.07,7.01,-34.70,0.00,-1.09,-1.00,13.63,1170,1357,1362,1165,1265,1500,1508,11566,923
173059,1,8.15,-2.02,-4.02,0.244,0.190,0.702,-3.14,9.53,0.00,0.00,3.14,-9.53,0.00,12.77,-34.39,4.62,-32.38,0.00,-3.00,-2.45,53.64,1205,1318,1319,1216,1265,1500,1508,11545,1176
173071,1,7.22,-8.78,-5.15,0.211,0.133,0.633,-2.60,8.12,0.00,0.00,2.60,-8.12,0.00,10.92,-29.52,3.70,-20.74,0.00,-2.36,1.77,84.78,1205,1318,1319,1216,1265,1500,1508,11549,1176
173082,1,0.80,-10.47,-6.20,-0.026,0.010,0.787,-1.97,5.64,0.00,0.00,1.97,-5.64,0.00,8.75,-20.89,7.95,-10.42,0.00,0.49,2.79,95.64,1205,1318,1319,1216,1265,1500,1508,11549,1176
173094,1,1.37,6.05,-6.03,-0.283,-0.116,1.105,-2.44,2.58,0.00,0.00,2.44,-2.58,0.00,10.39,-10.22,9.02,-16.27,0.00,-0.05,-3.99,86.92,1205,1318,1319,1216,1265,1500,1508,11557,1176
173106,1,3.01,3.78,-5.14,-0.001,0.067,1.040,-1.67,1.03,0.00,0.00,1.67,-1.03,0.00,7.72,-4.83,4.71,-8.61,0.00,-0.67,-1.44,70.54,1205,1318,1319,1216,1265,1500,1508,11570,1176
173119,1,6.67,2.40,-3.06,0.317,0.083,0.676,-1.72,2.15,0.00,0.00,1.72,-2.15,0.00,7.92,-8.74,1.26,-11.14,0.00,-2.33,-0.52,-9.91,1205,1318,1319,1216,1265,1500,1508,11541,1176
173131,1,4.42,-5.46,-2.05,0.455,-0.158,0.586,-2.62,3.30,0.00,0.00,2.62,-3.30,0.00,11.08,-12.80,6.66,-7.34,0.00,-1.75,2.38,43.29,1205,1318,1319,1216,1265,1500,1508,11532,1176
173142,1,0.17,-8.30,-1.02,0.490,-0.518,0.585,-4.49,4.40,0.00,0.00,4.49,-4.40,0.00,17.66,-16.67,17.49,-8.37,0.00,-0.34,2.81,41.36,1205,1318,1319,1216,1265,1500,1508,11553,1176
173155,1,-9.34,-21.32,-1.43,0.337,-0.724,0.651,-6.43,7.11,0.00,0.00,6.43,-7.11,0.00,24.47,-26.22,33.81,-4.89,0.00,4.28,6.85,5.85,1265,1257,1267,1269,1265,1500,1508,11557,913
173166,1,-12.27,-11.43,-3.14,-0.034,-0.576,0.883,-6.18,6.84,0.00,0.00,6.18,-6.84,0.00,23.66,-25.34,35.93,-13.92,0.00,5.69,1.52,45.39,1265,1257,1267,1269,1268,1500,1509,11549,913
173179,1,-14.60,-7.60,-4.82,0.032,-0.351,0.728,-5.89,9.22,0.00,0.00,5.89,-9.22,0.00,22.71,-33.77,37.31,-26.17,0.00,7.69,-0.60,102.46,1265,1257,1267,1269,1268,1500,1509,11549,913
173191,1,-15.50,-5.47,-6.51,0.010,-0.135,0.825,-5.32,10.18,0.00,0.00,5.32,-10.18,0.00,20.76,-37.22,36.25,-31.75,0.00,8.28,-2.04,83.89,1265,1257,1267,1269,1270,1499,1509,11566,913
173202,1,-11.79,3.36,-6.99,-0.116,-0.053,1.071,-5.46,8.32,0.00,0.00,5.46,-8.32,0.00,21.32,-30.81,33.11,-34.17,0.00,6.35,-6.16,69.25,1265,1257,1267,1269,1270,1500,1509,11549,913
173214,1,-5.78,1.88,-7.52,0.011,0.159,0.797,-4.25,6.89,0.00,0.00,4.25,-6.89,0.00,17.13,-25.88,22.91,-27.76,0.00,3.75,-3.54,107.90,1265,1257,1267,1269,1270,1500,1508,11549,913
173226,1,-1.89,3.21,-7.53,-0.009,0.061,0.889,-3.90,5.12,0.00,0.00,3.90,-5.12,0.00,15.97,-19.73,17.85,-22.94,0.00,1.63,-2.99,89.63,1265,1257,1267,1269,1275,1500,1508,11549,913
173239,1,-1.83,-0.51,-7.27,-0.043,-0.010,0.928,-3.54,3.91,0.00,0.00,3.54,-3.91,0.00,14.74,-15.56,16.57,-15.05,0.00,1.62,-0.82,24.91,1265,1257,1267,1269,1275,1500,1508,11545,913
173251,1,-6.57,-6.32,-7.04,-0.024,-0.038,0.818,-2.62,3.38,0.00,0.00,2.62,-3.38,0.00,11.55,-13.74,18.12,-7.43,0.00,4.05,2.18,56.37,1226,1318,1326,1229,1275,1500,1508,11524,810
173263,1,-10.33,-5.10,-6.43,-0.231,-0.012,1.005,-2.11,3.37,0.00,0.00,2.11,-3.37,0.00,9.78,-13.73,20.12,-8.63,0.00,5.65,0.82,50.52,1226,1318,1326,1229,1275,1500,1508,11503,810
173274,1,-11.87,5.04,-5.60,-0.324,0.179,1.057,-0.88,2.33,0.00,0.00,0.88,-2.33,0.00,5.49,-10.11,17.36,-15.15,0.00,5.90,-2.80,7.76,1226,1318,1326,1229,1276,1500,1508,11524,810
173286,1,-7.33,11.27,-4.52,-0.166,0.272,1.040,-0.31,2.66,0.00,0.00,0.31,-2.66,0.00,3.51,-11.31,10.84,-22.58,0.00,3.64,-5.52,0.79,1226,1318,1326,1229,1276,1500,1508,11528,810
173299,1,1.64,13.24,-3.77,0.152,0.387,0.926,-0.78,3.18,0.00,0.00,0.78,-3.18,0.00,5.19,-13.14,3.55,-26.37,0.00,-0.75,-5.59,-5.51,1226,1318,1326,1229,1276,1500,1508,11562,810
173311,1,0.59,14.80,-4.39,-0.112,0.361,1.038,-1.55,3.78,0.00,0.00,1.55,-3.78,0.00,7.91,-15.29,7.33,-30.08,0.00,-0.44,-6.49,46.95,1226,1318,1326,1229,1277,1500,1508,11566,810
173322,1,5.11,7.30,-3.65,-0.204,0.361,0.962,-1.59,0.60,0.00,0.00,1.59,-0.60,0.00,8.08,-4.17,2.98,-11.48,0.00,-2.74,-2.58,25.61,1226,1318,1326,1229,1277,1500,1508,11549,810
173334,1,8.65,7.01,-3.22,-0.346,0.287,1.051,-1.51,-3.63,0.00,0.00,1.51,3.63,0.00,7.81,10.66,-0.84,3.65,0.00,-4.21,-1.92,14.07,1226,1318,1326,1229,1277,1500,1508,11545,810
173347,1,5.82,3.44,-3.93,-0.356,0.088,0.996,-1.96,-7.05,0.00,0.00,1.96,7.05,0.00,9.41,22.69,3.59,19.25,0.00,-2.83,0.74,25.76,1226,1318,1326,1229,1283,1500,1508,11524,810
173359,1,4.24,7.50,-5.21,-0.328,0.079,1.114,-1.88,-8.78,0.00,0.00,1.88,8.78,0.00,9.13,28.84,4.89,21.34,0.00,-1.75,-0.87,50.41,1207,1356,1359,1205,1283,1500,1508,11537,813
173371,1,2.89,2.85,-6.24,-0.183,0.157,1.009,-1.96,-7.60,0.00,0.00,1.96,7.60,0.00,9.44,24.76,6.54,21.91,0.00,-0.71,1.37,56.69,1207,1356,1359,1205,1283,1500,1508,11532,813
173382,1,4.54,3.26,-6.65,-0.078,0.352,0.994,-1.63,-4.22,0.00,0.00,1.63,4.22,0.00,8.29,12.99,3.75,9.72,0.00,-0.80,-0.18,61.71,1207,1356,1359,1205,1283,1500,1508,11528,813
173394,1,4.73,3.66,-6.85,0.024,0.374,0.887,-1.15,-1.80,0.00,0.00,1.15,1.80,0.00,6.65,4.55,1.92,0.89,0.00,-0.64,-1.43,61.11,1207,1356,1359,1205,1283,1500,1508,11524,813
173406,1,11.20,5.37,-5.42,0.231,0.472,0.845,-1.02,-0.77,0.00,0.00,1.02,0.77,0.00,6.21,0.97,-4.99,-4.40,0.00,-3.90,-2.85,37.51,1207,1356,1359,1205,1283,1500,1508,11516,813
173419,1,12.96,2.45,-5.90,0.385,0.270,0.740,-0.90,0.80,0.00,0.00,0.90,-0.80,0.00,5.80,-4.54,-7.16,-6.99,0.00,-5.06,-1.92,14.80,1207,1356,1359,1205,1283,1500,1508,11524,813
173431,1,12.88,3.25,-5.93,0.277,0.086,0.747,-0.97,0.74,0.00,0.00,0.97,-0.74,0.00,6.06,-4.33,-6.82,-7.58,0.00,-5.61,-1.90,19.39,1207,1356,1359,1205,1283,1500,1508,11520,813
173442,1,6.06,2.85,-6.00,0.108,-0.084,0.814,-1.00,-0.73,0.00,0.00,1.00,0.73,0.00,6.15,0.82,0.09,-2.03,0.00,-3.20,0.25,24.33,1207,1356,1359,1205,1283,1499,1508,11516,813
173454,1,2.50,-8.77,-5.60,-0.065,-0.259,0.910,-0.66,-2.82,0.00,0.00,0.66,2.82,0.00,4.97,8.17,2.47,16.94,0.00,-1.89,6.13,23.36,1271,1288,1294,1278,1283,1499,1509,11516,809
173467,1,-3.45,-2.70,-4.99,-0.331,-0.404,1.016,-0.92,-6.39,4.41,-3.69,5.33,2.70,0.00,21.34,7.79,24.79,10.49,0.00,1.60,2.82,24.52,1271,1288,1294,1278,1284,1549,1459,11528,809
173479,1,-6.46,1.01,-5.30,-0.325,-0.438,1.094,-1.27,-8.51,4.41,-3.69,5.68,4.82,0.00,22.62,15.25,29.08,14.24,0.00,2.83,0.72,68.68,1271,1288,1294,1278,1284,1549,1459,11520,809
173491,1,-8.59,5.56,-5.69,0.004,-0.341,0.972,-1.64,-7.35,0.00,0.00,1.64,7.35,0.00,8.47,24.15,17.06,18.59,0.00,2.88,-1.21,51.37,1271,1288,1294,1278,1284,1500,1508,11512,809
173502,1,-7.09,10.55,-5.17,0.002,-0.187,0.996,-1.72,-6.61,0.00,0.00,1.72,6.61,0.00,8.79,21.66,15.88,11.11,0.00,1.59,-2.90,35.91,1271,1288,1294,1278,1284,1500,1508,11520,809
173514,1,-4.82,8.42,-4.50,0.107,-0.153,0.934,-1.64,-6.44,0.00,0.00,1.64,6.44,0.00,8.50,21.13,13.32,12.71,0.00,-0.18,-0.81,15.48,1271,1288,1294,1278,1285,1500,1508,11545,809
173526,1,-2.21,3.83,-4.11,0.265,-0.128,0.805,-1.41,-5.52,0.00,0.00,1.41,5.52,0.00,7.71,17.96,9.92,14.13,0.00,-2.19,1.64,3.22,1271,1288,1294,1278,1285,1500,1508,11541,809
173539,1,1.51,-6.04,-3.82,0.235,-0.319,0.820,-2.02,-4.98,0.00,0.00,2.02,4.98,0.00,9.85,16.14,8.34,22.18,0.00,-4.09,5.40,38.21,1271,1288,1294,1278,1285,1500,1508,11508,809
173551,1,1.14,-8.66,-4.38,0.208,-0.509,0.820,-2.77,-4.49,0.00,0.00,2.77,4.49,0.00,12.48,14.46,11.33,23.12,0.00,-3.59,5.83,5.07,1264,1306,1312,1255,1285,1500,1508,11499,821
173563,1,-1.91,-9.33,-5.06,0.160,-0.645,0.824,-2.81,-3.44,0.00,0.00,2.81,3.44,0.00,12.62,10.81,14.52,20.14,0.00,-1.99,4.95,16.19,1264,1306,1312,1255,1285,1503,1508,11516,821
173574,1,-6.55,-13.18,-5.32,0.110,-0.682,0.857,-2.18,-2.72,0.00,0.00,2.18,2.72,0.00,10.43,8.31,16.99,21.49,0.00,0.05,5.65,77.42,1264,1306,1312,1255,1288,1503,1505,11532,821
173586,1,-9.09,-8.49,-5.23,-0.021,-0.700,0.937,-1.40,-2.78,0.00,0.00,1.40,2.78,0.00,7.70,8.57,16.79,17.05,0.00,0.88,3.19,75.76,1264,1306,1312,1255,1289,1500,1508,11516,821
173599,1,-12.19,-5.02,-5.19,-0.160,-0.701,0.995,-0.98,-3.74,0.00,0.00,0.98,3.74,0.00,6.21,11.96,18.40,16.98,0.00,2.11,2.31,74.84,1264,1306,1312,1255,1289,1500,1508,11524,821
173611,1,-13.11,0.25,-4.64,-0.283,-0.649,1.061,-0.61,-5.02,0.00,0.00,0.61,5.02,0.00,4.93,16.47,18.04,16.21,0.00,2.29,0.81,51.39,1264,1306,1312,1255,1289,1500,1508,11512,821
173622,1,-16.62,-1.64,-4.01,-0.077,-0.532,0.920,-0.65,-4.88,0.00,0.00,0.65,4.88,0.00,5.05,16.04,21.67,17.68,0.00,3.53,2.11,51.83,1264,1306,1312,1255,1289,1500,1508,11503,821
173634,1,-16.13,0.62,-2.18,0.118,-0.419,0.935,-1.30,-2.61,0.00,0.00,1.30,2.61,0.00,7.34,8.13,23.47,7.51,0.00,2.83,0.06,5.05,1264,1306,1312,1255,1290,1500,1508,11508,821
173646,1,-14.75,-2.58,-0.95,0.374,-0.313,0.817,-2.09,2.14,0.00,0.00,2.09,-2.14,0.00,10.10,-8.51,24.85,-5.92,0.00,1.75,0.09,1.83,1264,1306,1312,1255,1290,1500,1508,11524,821
173659,1,-12.22,-2.12,-0.60,0.417,-0.104,0.786,-2.40,6.57,0.00,0.00,2.40,-6.57,0.00,11.20,-24.06,23.42,-21.94,0.00,0.38,-1.45,49.62,1294,1282,1285,1297,1290,1500,1508,11532,817
173671,1,-10.55,-2.91,-0.71,0.357,0.051,0.737,-2.28,8.47,0.00,0.00,2.28,-8.47,0.00,10.80,-30.78,21.35,-27.87,0.00,-0.70,-1.23,84.49,1294,1282,1285,1297,1290,1503,1505,11499,817
173682,1,-9.07,-2.39,-0.61,0.139,0.113,0.801,-2.24,5.96,0.00,0.00,2.24,-5.96,0.00,10.69,-22.06,19.76,-19.68,0.00,-1.89,-0.51,83.44,1294,1282,1285,1297,1290,1500,1505,11537,817
173694,1,-10.77,-4.29,-0.36,0.063,0.012,0.847,-2.44,2.24,0.00,0.00,2.44,-2.24,0.00,11.40,-9.06,22.17,-4.77,0.00,-1.67,1.26,12.04,1294,1282,1285,1297,1290,1500,1508,11532,817
173706,1,-11.50,-8.99,0.69,0.185,-0.129,0.801,-3.23,0.58,0.00,0.00,3.23,-0.58,0.00,14.22,-3.27,25.71,5.72,0.00,-1.80,3.49,-9.18,1294,1282,1285,1297,1290,1500,1508,11512,817
173719,1,-12.40,-8.68,1.18,0.269,-0.199,0.745,-3.97,0.29,0.00,0.00,3.97,-0.29,0.00,16.83,-2.26,29.23,6.42,0.00,-1.77,3.20,25.20,1294,1282,1285,1297,1290,1500,1508,11541,817
173731,1,-16.45,-8.43,1.45,0.293,-0.296,0.747,-4.36,1.62,0.00,0.00,4.36,-1.62,0.00,18.22,-6.89,34.67,1.53,0.00,-0.20,2.62,18.05,1294,1282,1285,1297,1290,1499,1509,11549,817
173742,1,-20.77,-7.50,2.26,0.267,-0.328,0.721,-4.43,3.55,0.00,0.00,4.43,-3.55,0.00,18.48,-13.68,39.25,-6.19,0.00,1.35,2.03,10.95,1294,1282,1285,1297,1290,1500,1509,11557,817
173754,1,-23.72,-3.17,2.98,0.148,-0.318,0.786,-3.71,4.44,0.00,0.00,3.71,-4.44,0.00,16.00,-16.84,39.72,-13.67,0.00,1.97,0.54,-23.00,1270,1300,1304,1284,1290,1500,1508,11557,816
173767,1,-25.54,3.42,4.10,-0.045,-0.225,0.869,-2.36,3.43,0.00,0.00,2.36,-3.43,0.00,11.31,-13.33,36.85,-16.75,0.00,2.07,-1.52,-37.58,1270,1300,1304,1284,1290,1500,1508,11545,816
173779,1,-28.09,7.09,5.52,-0.137,-0.162,0.944,-1.35,1.80,0.00,0.00,1.35,-1.80,0.00,7.76,-7.67,35.85,-14.76,0.00,2.81,-2.19,-57.11,1270,1300,1304,1284,1290,1500,1508,11516,816
173791,1,-25.79,3.31,4.97,-0.112,-0.161,1.043,-1.10,0.84,0.00,0.00,1.10,-0.84,0.00,6.91,-4.32,32.69,-7.63,0.00,1.78,-0.01,-14.33,1270,1300,1304,1284,1290,1500,1508,11503,816
173802,1,-23.83,0.85,4.44,-0.128,-0.071,1.024,-1.44,0.90,0.00,0.00,1.44,-0.90,0.00,8.10,-4.55,31.93,-5.40,0.00,1.66,-0.14,-3.42,1270,1300,1304,1284,1290,1500,1508,11495,816
173814,1,-29.58,-1.45,3.13,-0.176,-0.025,0.912,-1.26,1.55,0.00,0.00,1.26,-1.55,0.00,7.48,-6.85,37.07,-5.40,0.00,4.69,-0.22,10.53,1270,1300,1304,1284,1290,1500,1508,11499,816
173826,1,-35.68,-0.47,1.67,-0.106,0.030,0.961,-1.40,2.12,0.00,0.00,1.40,-2.12,0.00,8.01,-8.83,43.69,-8.36,0.00,6.78,-1.46,25.94,1270,1300,1304,1284,1290,1500,1508,11483,816
173839,1,-36.64,-7.39,-0.25,0.062,-0.021,0.967,-2.87,4.31,0.00,0.00,2.87,-4.31,0.00,13.19,-16.54,49.83,-9.15,0.00,6.46,0.57,53.69,1270,1300,1304,1284,1290,1500,1508,11478,816
173851,1,-35.98,-5.58,-2.02,0.148,0.068,0.854,-2.63,8.02,0.00,0.00,2.63,-8.02,0.00,12.37,-29.60,48.35,-24.02,0.00,5.80,-1.72,59.83,1221,1351,1357,1230,1290,1500,1508,11483,817
173862,1,-39.04,1.79,-2.30,-0.058,0.062,0.971,-2.41,9.60,0.00,0.00,2.41,-9.60,0.00,11.64,-35.24,50.68,-37.03,0.00,6.88,-5.11,50.61,1221,1351,1357,1230,1290,1500,1508,11483,817
173874,1,-39.21,7.37,-1.64,-0.149,0.119,1.070,-2.21,8.82,0.00,0.00,2.21,-8.82,0.00,10.96,-32.58,50.17,-39.95,0.00,6.41,-5.68,3.41,1221,1351,1357,1230,1290,1500,1508,11487,817
173886,1,-39.88,14.24,-1.15,-0.245,0.189,1.041,-1.56,6.77,0.00,0.00,1.56,-6.77,0.00,8.70,-25.50,48.58,-39.74,0.00,6.06,-6.20,-2.09,1221,1351,1357,1230,1290,1500,1508,11487,817
173899,1,-41.19,17.02,-0.43,-0.427,0.235,1.172,-0.94,2.54,0.00,0.00,0.94,-2.54,0.00,6.57,-10.72,47.77,-27.74,0.00,6.07,-5.02,40.12,1221,1351,1357,1230,1290,1500,1508,11491,817
173911,1,-37.27,7.28,-0.93,-0.395,0.176,1.225,-1.60,-1.70,0.00,0.00,1.60,1.70,0.00,8.91,4.11,46.18,-3.17,0.00,4.05,0.49,41.23,1221,1351,1357,1230,1290,1500,1508,11499,817
173922,1,-37.99,-4.95,-3.01,-0.140,0.222,0.969,-1.87,-3.72,0.00,0.00,1.87,3.72,0.00,9.87,11.23,47.86,16.18,0.00,4.78,4.65,78.78,1221,1351,1357,1230,1290,1500,1508,11499,817
173934,1,-36.71,-12.35,-4.18,0.221,0.053,0.758,-2.92,-1.37,0.00,0.00,2.92,1.37,0.00,13.55,3.02,50.27,15.38,0.00,3.76,4.80,64.64,1221,1351,1357,1230,1290,1500,1508,11508,817
173946,1,-36.66,-12.20,-5.66,0.293,0.016,0.793,-3.51,1.45,0.00,0.00,3.51,-1.45,0.00,15.67,-6.86,52.33,5.34,0.00,3.03,2.46,79.49,1221,1351,1357,1230,1290,1500,1508,11516,817
173959,1,-37.33,-3.48,-5.86,0.233,-0.073,0.722,-3.68,2.49,0.00,0.00,3.68,-2.49,0.00,16.29,-10.52,53.62,-7.04,0.00,2.54,-1.15,103.27,1213,1358,1364,1224,1290,1500,1508,11483,817
173971,1,-37.72,2.98,-5.67,0.172,-0.125,0.719,-3.45,0.89,0.00,0.00,3.45,-0.89,0.00,15.52,-4.91,53.24,-7.89,0.00,1.66,-1.60,120.41,1213,1358,1364,1224,1290,1500,1508,11499,817
173982,1,-43.28,6.24,-4.65,-0.060,-0.280,0.849,-3.54,-2.35,0.00,0.00,3.54,2.35,0.00,15.87,6.44,59.15,0.20,0.00,2.81,-0.88,94.00,1213,1358,1364,1224,1290,1499,1508,11516,817
173994,1,-49.28,5.54,-4.75,-0.091,-0.525,0.878,-4.57,-5.51,0.00,0.00,4.57,5.51,0.00,19.51,17.54,68.79,12.00,0.00,3.85,1.60,54.66,1213,1358,1364,1224,1290,1499,1509,11532,817
174006,1,-50.08,-3.24,-8.80,0.088,-0.660,1.015,-6.51,-5.86,0.00,0.00,6.51,5.86,0.00,26.32,18.82,76.41,22.06,0.00,3.31,4.77,115.55,1213,1358,1364,1224,1290,1499,1509,11516,817
174019,1,-51.83,-10.00,-12.49,0.170,-0.648,0.907,-7.46,-3.82,0.00,0.00,7.46,3.82,0.00,29.73,11.75,81.56,21.74,0.00,4.02,5.68,169.40,1213,1358,1364,1224,1290,1499,1509,11499,817
174031,1,-52.58,-8.81,-14.35,0.018,-0.542,0.948,-7.42,-1.52,0.00,0.00,7.42,1.52,0.00,29.63,3.70,82.21,12.51,0.00,4.25,3.07,143.77,1213,1358,1364,1224,1290,1500,1508,11462,817
174042,1,-55.69,-3.18,-14.11,-0.089,-0.413,0.986,-6.38,-1.34,0.00,0.00,6.38,1.34,0.00,26.07,3.07,81.75,6.25,0.00,5.38,0.41,110.34,1213,1358,1364,1224,1290,1500,1508,11437,817
174054,1,-57.58,-6.13,-11.95,0.196,-0.258,0.789,-5.77,-0.14,0.00,0.00,5.77,0.14,0.00,23.97,-1.12,81.54,5.01,0.00,5.77,2.01,97.81,1166,1403,1410,1179,1290,1500,1508,11428,817
174066,1,-55.69,4.15,-10.20,0.020,-0.069,0.937,-5.13,0.26,0.00,0.00,5.13,-0.26,0.00,21.79,-2.52,77.47,-6.68,0.00,4.39,-2.82,77.14,1166,1403,1410,1179,1290,1500,1508,11428,817
174079,1,-50.50,7.27,-9.03,0.229,-0.090,0.854,-5.38,1.34,0.00,0.00,5.38,-1.34,0.00,22.71,-6.31,73.22,-13.57,0.00,1.91,-3.43,44.24,1166,1403,1410,1179,1290,1500,1508,11424,817
174091,1,-50.43,1.13,-8.21,0.448,-0.237,0.630,-5.96,4.70,0.00,0.00,5.96,-4.70,0.00,24.76,-18.10,75.19,-19.24,0.00,1.88,-0.79,83.97,1166,1403,1410,1179,1290,1500,1508,11445,817
174102,1,-51.77,-0.22,-7.43,0.299,-0.432,0.811,-6.32,2.76,0.00,0.00,6.32,-2.76,0.00,26.07,-11.33,77.84,-11.11,0.00,2.13,1.57,90.67,1166,1403,1410,1179,1290,1501,1508,11474,817
174114,1,-54.92,1.55,-5.19,0.110,-0.484,0.805,-7.37,5.78,0.00,0.00,7.37,-5.78,0.00,29.82,-21.93,84.74,-23.48,0.00,3.46,0.09,23.76,1166,1403,1410,1179,1290,1501,1508,11462,817
174126,1,-65.77,7.91,-7.20,-0.180,-0.640,0.938,-6.91,3.81,0.00,0.00,6.91,-3.81,0.00,28.27,-15.11,94.04,-23.02,0.00,8.28,-0.44,63.91,1166,1403,1410,1179,1290,1501,1508,11453,817
174139,1,-68.20,11.55,-8.59,-0.404,-0.361,1.139,-6.15,1.24,0.00,0.00,6.15,-1.24,0.00,25.66,-6.14,93.85,-17.69,0.00,9.45,-0.20,105.11,1166,1403,1410,1179,1290,1501,1508,11445,817
174151,1,-65.92,0.99,-9.96,-0.112,-0.203,0.902,-5.33,2.40,0.00,0.00,5.33,-2.40,0.00,22.83,-10.22,88.75,-11.22,0.00,8.58,2.56,135.99,1175,1392,1409,1182,1290,1515,1507,11453,815
174162,1,-64.14,13.73,-10.01,-0.120,-0.072,0.814,-4.66,1.62,0.00,0.00,4.66,-1.62,0.00,20.55,-7.51,84.69,-21.25,0.00,7.61,-3.97,127.62,1175,1392,1409,1182,1290,1519,1507,11458,815
174175,1,-61.85,13.70,-8.65,-0.129,-0.040,0.959,-5.19,-1.62,0.00,0.00,5.19,1.62,0.00,22.46,3.85,84.31,-9.85,0.00,6.46,-3.30,81.25,1175,1392,1409,1182,1290,1519,1507,11466,815
174186,1,-60.04,6.00,-8.81,-0.203,0.027,0.973,-5.70,-2.39,3.33,0.00,9.03,2.39,0.00,35.99,6.54,96.03,0.54,0.00,6.27,0.33,75.47,1175,1392,1409,1182,1290,1537,1507,11478,815
174199,1,-56.55,-3.02,-10.76,-0.162,-0.143,0.939,-6.96,-3.92,3.33,0.00,10.29,3.92,0.00,40.51,11.92,97.05,14.94,0.00,5.31,4.99,97.02,1175,1392,1409,1182,1290,1537,1507,11491,815
174211,1,-58.03,-6.54,-14.42,-0.056,-0.067,0.976,-7.72,-0.54,4.41,0.00,12.13,0.54,0.00,47.05,0.13,105.08,6.67,0.00,7.40,3.06,156.01,1175,1392,1409,1182,1290,1549,1507,11474,815
174222,1,-53.30,-3.58,-16.01,-0.350,0.392,0.952,-6.59,-1.61,4.41,0.00,11.00,1.61,0.00,43.23,3.85,96.54,7.43,0.00,6.47,1.39,160.73,1175,1392,1409,1182,1290,1549,1507,11470,815
174234,1,-41.66,-9.06,-16.20,0.079,0.505,0.804,-4.90,-1.41,4.59,0.00,9.49,1.41,0.00,38.06,3.17,79.72,12.22,0.00,1.93,2.18,149.54,1175,1392,1409,1182,1290,1551,1507,11433,815
174246,1,-35.05,-4.96,-12.54,0.139,0.204,0.816,-7.45,1.72,5.58,0.00,13.03,-1.72,0.00,50.54,-7.77,85.60,-2.80,0.00,-0.14,-2.74,87.48,1175,1392,1409,1182,1290,1562,1507,11408,815
174259,1,-28.30,7.65,-5.91,0.176,-0.041,1.016,-8.90,0.59,5.58,0.00,14.48,-0.59,0.00,55.78,-3.82,84.08,-11.47,0.00,-2.78,-7.50,-32.60,1280,1286,1298,1294,1290,1562,1507,11374,817
174271,1,-28.50,-4.42,-1.79,0.177,-0.267,0.694,-9.39,-0.06,5.85,0.00,15.24,0.06,0.00,58.57,-1.55,87.07,2.87,0.00,-1.24,1.61,-60.40,1280,1286,1298,1294,1290,1565,1505,11395,817
174283,1,-32.11,0.89,-2.44,0.024,-0.373,0.880,-8.21,-0.62,6.66,0.00,14.87,0.62,0.00,57.38,0.43,89.49,-0.46,0.00,2.19,0.02,-3.35,1280,1286,1298,1294,1290,1574,1505,11412,817
174294,1,-30.58,-10.74,-4.70,0.066,-0.522,0.849,-8.80,2.08,6.66,-1.98,15.46,-4.06,0.00,59.58,-15.99,90.16,-5.26,0.00,3.11,4.00,61.99,1280,1286,1298,1294,1290,1574,1478,11424,817
174306,1,-27.36,10.51,-7.82,-0.270,-0.316,0.978,-8.07,-0.74,7.02,-2.07,15.09,-1.33,0.00,58.44,-6.45,85.79,-16.96,0.00,3.19,-4.60,110.00,1280,1286,1298,1294,1290,1578,1477,11458,817
174319,1,-28.43,10.25,-6.62,-0.230,-0.224,0.958,-8.25,-2.37,7.02,-2.07,15.27,0.30,0.00,59.20,-0.76,87.63,-11.01,0.00,5.32,-3.93,65.00,1280,1286,1298,1294,1290,1578,1477,11478,817
174331,1,-20.85,4.53,-3.35,-0.125,-0.036,0.907,-8.03,-3.80,7.38,-2.07,15.41,1.73,0.00,59.85,4.27,80.69,-0.26,0.00,3.51,0.42,18.54,1280,1286,1298,1294,1290,1582,1477,11478,817
174342,1,-17.76,15.07,-3.19,-0.041,0.110,0.814,-7.60,-2.59,7.38,-2.07,14.98,0.52,0.00,58.52,0.02,76.28,-15.05,0.00,3.84,-3.10,31.22,1280,1286,1298,1294,1290,1582,1477,11478,817
174354,1,-13.21,23.05,-3.79,-0.221,0.258,0.938,-6.72,-2.90,7.65,-2.25,14.37,0.65,0.00,56.52,0.49,69.73,-22.56,0.00,3.30,-4.30,69.62,1249,1331,1317,1261,1290,1585,1475,11478,818
174366,1,1.81,8.10,-8.50,-0.128,0.104,1.068,-8.77,-3.17,7.65,-2.25,16.42,0.92,0.00,63.88,1.42,62.07,-6.68,0.00,-1.85,1.97,158.56,1249,1331,1317,1261,1290,1585,1475,11499,818
174379,1,12.90,5.40,-15.56,-0.075,0.044,0.844,-10.14,-3.88,7.65,-2.25,17.79,1.63,0.00,68.82,3.94,55.92,-1.46,0.00,-4.54,0.95,214.42,1249,1331,1317,1261,1290,1585,1475,11483,818
174391,1,16.68,6.21,-17.85,-0.188,-0.109,0.774,-9.87,-8.29,7.47,-2.16,17.34,6.13,0.00,67.42,19.75,50.73,13.54,0.00,-4.64,-0.24,234.04,1249,1331,1317,1261,1290,1583,1476,11495,818
174402,1,17.17,0.57,-15.21,0.160,-0.483,0.801,-10.46,-9.26,7.47,-2.16,17.93,7.10,0.00,69.63,23.20,52.46,22.63,0.00,-3.64,1.10,142.13,1249,1331,1317,1261,1290,1583,1476,11462,818
174414,1,20.46,4.03,-6.47,-0.029,-0.729,0.998,-11.98,-6.25,4.77,-2.16,16.75,4.09,0.00,65.64,12.72,45.18,8.69,0.00,-3.98,-1.10,-37.87,1249,1331,1317,1261,1290,1553,1476,11412,818
174426,1,19.31,11.56,-2.31,-0.318,-0.614,1.016,-10.94,-7.09,4.14,-2.16,15.08,4.93,0.00,59.93,15.71,40.62,4.15,0.00,-0.81,-1.44,-53.57,1249,1331,1317,1261,1290,1546,1476,11416,818
174439,1,19.63,11.06,0.03,-0.219,-0.322,0.860,-9.17,-7.49,4.14,-2.16,13.31,5.33,0.00,53.89,17.16,34.27,6.10,0.00,1.95,1.16,-38.24,1249,1331,1317,1261,1290,1546,1476,11387,818
174451,1,24.06,6.15,2.17,-0.083,-0.244,1.080,-8.38,-6.57,0.00,-3.42,8.38,3.15,0.00,36.70,9.56,12.64,3.41,0.00,1.60,1.89,-6.94,1315,1264,1266,1313,1290,1503,1462,11420,810
174462,1,31.39,9.88,2.44,0.010,0.017,0.855,-7.70,-4.15,0.00,-3.42,7.70,0.73,0.00,34.43,1.09,3.03,-8.79,0.00,0.09,-1.75,24.08,1315,1264,1266,1313,1290,1503,1462,11441,810
174474,1,38.39,6.96,3.03,-0.080,0.181,0.993,-6.93,-3.80,0.00,-4.95,6.93,-1.15,0.00,31.79,-5.49,-6.59,-12.45,0.00,-1.41,-1.57,8.66,1315,1264,1266,1313,1290,1503,1445,11445,810
174487,1,45.42,-14.26,2.88,0.255,0.070,0.679,-5.93,-0.70,0.00,-5.13,5.93,-4.43,0.00,28.35,-16.99,-17.07,-2.73,0.00,-3.04,7.36,16.73,1315,1264,1266,1313,1290,1503,1443,11445,810
174499,1,47.97,-8.34,1.05,0.101,0.160,0.795,-5.50,4.17,0.00,-5.13,5.50,-9.30,0.00,26.93,-34.13,-21.05,-25.79,0.00,-2.83,0.85,113.56,1315,1264,1266,1313,1290,1503,1443,11474,810
174511,1,53.86,-4.89,-0.89,-0.070,0.105,0.934,-5.55,4.53,0.00,-5.22,5.55,-9.75,0.00,27.14,-35.78,-26.72,-30.89,0.00,-4.55,-2.01,88.42,1315,1264,1266,1313,1284,1504,1442,11462,810
174522,1,56.22,-2.89,-3.24,0.219,0.009,0.659,-6.15,5.76,0.00,-5.22,6.15,-10.98,0.00,29.32,-40.18,-26.91,-37.30,0.00,-4.87,-3.37,117.94,1315,1264,1266,1313,1284,1503,1442,11458,810
174534,1,58.13,-3.34,-3.74,0.004,-0.085,0.689,-5.39,1.58,0.00,-5.04,5.39,-6.62,0.00,26.69,-25.02,-31.44,-21.68,0.00,-5.21,-2.03,121.72,1315,1264,1266,1313,1278,1503,1444,11449,810
174546,1,57.19,-8.14,-0.14,0.343,-0.517,0.662,-7.01,1.25,0.00,-5.04,7.01,-6.29,0.00,32.41,-23.92,-24.78,-15.78,0.00,-4.08,-0.12,47.13,1315,1264,1266,1313,1278,1503,1444,11462,810
174559,1,62.50,5.69,3.44,-0.071,-0.968,1.114,-8.39,2.10,0.00,-5.04,8.39,-7.14,0.00,37.31,-26.96,-25.19,-32.66,0.00,-5.08,-5.45,-26.79,1271,1291,1278,1270,1278,1503,1444,11470,810
174571,1,68.59,1.27,7.45,-0.025,-0.776,0.769,-9.18,0.27,0.00,-3.69,9.18,-3.96,0.00,40.15,-15.86,-28.45,-17.14,0.00,-4.08,0.96,-40.05,1271,1291,1278,1270,1217,1500,1459,11462,810
174582,1,68.42,16.94,7.67,-0.185,-0.442,0.787,-7.47,-1.67,0.00,-3.69,7.47,-2.02,0.00,34.24,-9.12,-34.18,-26.06,0.00,-0.55,-3.97,-9.75,1271,1291,1278,1270,1217,1500,1459,11474,810
174594,1,69.06,14.93,7.47,-0.266,-0.245,1.044,-5.72,-0.29,0.00,-3.69,5.72,-3.40,0.00,28.15,-13.99,-40.91,-28.92,0.00,1.50,-3.12,-16.39,1271,1291,1278,1270,1217,1500,1459,11478,810
174606,9,74.39,2.98,7.00,-0.162,0.171,0.821,-3.62,3.01,0.00,-3.51,3.62,-6.52,0.00,20.88,-24.96,-53.51,-27.95,0.00,0.37,-0.17,5.89,1271,1291,1278,1270,1068,1500,1461,11503,810
174619,9,81.31,3.57,5.83,0.082,0.380,0.673,-3.81,5.96,0.00,-3.51,3.81,-9.47,0.00,13.33,-33.13,-67.98,-36.70,0.00,-3.50,-2.21,69.85,1271,1291,1278,1270,1068,1500,1461,11566,810
174631,9,88.38,2.63,4.86,0.225,0.406,0.598,-4.27,7.99,0.00,-3.15,4.27,-11.14,0.00,14.93,-38.99,-73.45,-41.62,0.00,-6.52,-3.36,88.08,1271,1291,1278,1270,1045,1500,1465,11570,810
174642,9,94.94,-1.73,4.12,0.244,0.363,0.478,-3.60,8.02,0.00,-3.15,3.60,-11.17,0.00,12.61,-39.10,-82.33,-37.37,0.00,-9.71,-2.24,89.72,1271,1291,1278,1270,1045,1500,1465,11595,810
174654,9,95.67,-2.13,3.42,0.111,0.117,0.539,-3.68,5.72,0.00,0.00,3.68,-5.72,0.00,12.87,-20.03,-82.81,-17.90,0.00,-10.13,-1.41,74.11,1100,1100,1100,1100,1038,1500,1481,11612,830
174666,9,92.57,-9.28,1.28,0.118,-0.132,0.530,-4.85,5.28,0.00,0.00,4.85,-5.28,0.00,16.99,-18.48,-75.58,-9.20,0.00,-8.23,2.22,98.49,1100,1100,1100,1100,1037,1501,1507,11653,830
174679,9,87.19,1.26,0.83,-0.334,-0.558,0.818,-5.39,3.19,0.00,0.00,5.39,-3.19,0.00,18.86,-11.15,-68.33,-12.41,0.00,-5.40,-2.75,91.95,1100,1100,1100,1100,1037,1501,1507,11716,830
174691,9,95.84,4.10,0.68,-0.114,-0.573,0.828,-6.55,2.72,0.00,0.00,6.55,-2.72,0.00,22.93,-9.53,-72.91,-13.63,0.00,-7.51,-1.86,77.07,1100,1100,1100,1100,1038,1501,1505,11724,830
174702,9,108.18,-0.79,-1.44,-0.156,-0.379,0.773,-7.18,3.19,0.00,0.00,7.18,-3.19,0.00,25.12,-11.17,-83.06,-10.38,0.00,-9.06,-0.16,101.17,1100,1100,1100,1100,1038,1501,1505,11741,830
174714,9,118.36,10.02,-0.88,-0.004,-0.171,0.662,-8.07,3.28,0.00,0.00,8.07,-3.28,0.00,28.25,-11.47,-90.11,-21.49,0.00,-8.97,-5.41,79.58,1100,1100,1100,1100,1037,1501,1505,11745,830
174726,9,124.96,6.90,-2.13,0.239,-0.168,0.504,-8.53,4.46,0.00,0.00,8.53,-4.46,0.00,29.84,-15.61,-95.12,-22.51,0.00,-7.81,-3.67,99.24,1100,1100,1100,1100,1036,1501,1508,11757,830
174739,9,140.71,1.64,-1.57,0.117,0.071,0.687,-8.04,2.48,0.00,0.00,8.04,-2.48,0.00,28.15,-8.68,-112.56,-10.33,0.00,-11.20,-0.95,91.02,1100,1100,1100,1100,1036,1501,1508,11761,830
174751,9,148.64,-0.83,-0.56,0.001,-0.111,0.461,-10.29,2.32,0.00,0.00,10.29,-2.32,0.00,36.01,-8.11,-112.63,-7.28,0.00,-11.42,0.82,72.45,1100,1100,1100,1100,1036,1501,1508,11774,819
174762,9,161.89,-7.61,-3.51,0.104,-0.513,0.675,-12.95,3.81,0.00,0.00,12.95,-3.81,0.00,45.32,-13.33,-116.57,-5.73,0.00,-14.20,3.01,118.90,1100,1100,1100,1100,1036,1501,1508,11778,819
174774,9,125.63,-71.40,1.85,0.194,1.016,0.879,-8.97,5.50,0.00,0.00,8.97,-5.50,0.00,31.41,-19.24,-94.22,52.16,0.00,6.81,29.12,-13.06,1100,1100,1100,1100,1036,1501,1508,11774,819
174786,9,37.12,39.57,4.63,0.704,-0.442,3.568,-8.57,7.65,0.00,0.00,8.57,-7.65,0.00,30.01,-26.76,-7.11,-66.33,0.00,24.78,-20.35,-67.82,1100,1100,1100,1100,1036,1501,1508,11766,819
174799,9,43.70,-37.23,-6.47,1.495,-0.347,-0.466,-22.79,14.82,0.00,0.00,22.79,-14.82,0.00,79.76,-51.88,36.06,-14.65,0.00,6.94,9.30,135.28,1100,1100,1100,1100,1036,1501,1508,11770,819
174811,9,41.28,-42.54,-13.24,0.687,-0.363,-1.035,-31.82,13.02,0.00,0.00,31.82,-13.02,0.00,111.38,-45.58,70.10,-3.04,0.00,1.56,6.20,144.67,1100,1100,1100,1100,1036,1501,1508,11778,819
174822,9,33.11,-44.54,-14.00,0.900,-0.210,1.002,-24.16,11.21,0.00,0.00,24.16,-11.21,0.00,84.55,-39.24,51.43,5.29,0.00,2.70,4.24,123.79,1100,1100,1100,1100,1036,1501,1508,11786,819
174834,9,34.28,-50.72,-12.21,0.175,-0.408,-0.446,-33.00,10.70,0.00,0.00,33.00,-10.70,0.00,115.51,-37.43,81.23,13.29,0.00,2.49,5.17,59.61,1100,1100,1100,1100,1036,1501,1508,11786,819
174846,9,36.12,-36.69,-12.89,-0.350,-0.188,0.252,-29.05,-0.34,0.00,0.00,29.05,0.34,0.00,101.68,1.18,65.56,37.87,0.00,-0.11,1.15,61.92,1100,1100,1100,1100,1036,1501,1508,11791,819
174859,9,11.19,-31.62,-11.49,0.165,0.081,1.181,-21.09,-0.81,0.00,0.00,21.09,0.81,0.00,73.81,2.82,62.62,34.44,0.00,10.27,-0.74,36.62,1100,1100,1100,1100,1036,1501,1508,11791,814
174871,9,-1.14,-21.96,-6.90,0.450,0.013,-0.128,-1.69,10.35,0.00,0.00,1.69,-10.35,0.00,5.93,-36.22,7.06,-14.26,0.00,8.78,-5.29,-29.03,1100,1100,1100,1100,1036,1501,1508,11799,814
174882,9,-30.19,19.03,-4.30,-0.124,-0.039,0.750,5.55,12.45,0.00,0.00,-5.55,-12.45,0.00,-19.43,-43.57,10.76,-62.60,0.00,12.69,-17.09,-29.04,1100,1100,1100,1100,1036,1501,1508,11803,814
174895,9,-40.15,53.73,4.56,0.197,-0.413,0.807,1.06,13.69,0.00,0.00,-1.06,-13.69,0.00,-3.71,-47.91,36.44,-101.64,0.00,10.37,-25.58,-151.41,1100,1100,1100,1100,1036,1501,1508,11791,814
174906,9,-15.33,70.42,8.42,0.481,0.038,0.107,-0.19,18.55,0.00,0.00,0.19,-18.55,0.00,0.65,-64.93,15.98,-135.36,0.00,-2.89,-21.61,-153.95,1100,1100,1100,1100,1036,1501,1508,11778,814
174919,9,4.53,66.72,7.53,-0.913,-0.116,1.465,-10.30,17.89,0.00,0.00,10.30,-17.89,0.00,36.05,-62.62,31.52,-129.34,0.00,-8.67,-10.89,-74.01,1100,1100,1100,1100,1036,1501,1508,11786,814
174931,9,21.80,0.69,3.41,-0.635,-0.773,1.526,-15.13,11.82,0.00,0.00,15.13,-11.82,0.00,52.96,-41.39,31.16,-42.08,0.00,-13.75,12.82,4.88,1100,1100,1100,1100,1036,1501,1508,11782,814
174942,9,-6.80,15.96,-2.81,-0.752,-0.713,1.551,-15.12,3.78,0.00,0.00,15.12,-3.78,0.00,52.91,-13.24,59.71,-29.20,0.00,4.26,-2.73,92.34,1100,1100,1100,1100,1036,1501,1508,11778,814
174954,9,22.77,-22.18,-3.16,0.919,-0.715,0.013,-20.41,4.50,0.00,0.00,20.41,-4.50,0.00,71.44,-15.76,48.68,6.42,0.00,-6.15,14.89,55.50,1100,1100,1100,1100,1036,1501,1508,11774,822
174966,9,10.07,8.36,-5.05,0.289,-0.738,0.422,-16.60,3.73,0.00,0.00,16.60,-3.73,0.00,58.09,-13.07,48.02,-21.43,0.00,1.74,-1.81,58.76,1100,1100,1100,1100,1036,1501,1508,11791,822
174979,9,-10.89,-5.20,-1.33,0.559,-0.662,0.533,-16.71,9.12,0.00,0.00,16.71,-9.12,0.00,58.47,-31.92,69.36,-26.72,0.00,9.56,1.18,-25.11,1100,1100,1100,1100,1036,1501,1508,11786,822
174991,9,-11.42,4.51,-0.67,0.231,-0.579,1.320,-17.56,9.36,0.00,0.00,17.56,-9.36,0.00,61.47,-32.77,72.89,-37.28,0.00,8.21,-1.63,-23.24,1100,1100,1100,1100,1036,1501,1508,11782,822
175002,9,1.12,13.98,1.51,-0.335,-0.379,1.461,-17.44,9.95,0.00,0.00,17.44,-9.95,0.00,61.05,-34.84,59.93,-48.81,0.00,0.99,-6.99,-53.11,1100,1100,1100,1100,1036,1501,1508,11786,822
175014,9,-2.31,28.15,-0.44,-0.228,-0.212,0.998,-15.19,4.91,0.00,0.00,15.19,-4.91,0.00,53.15,-17.20,55.47,-45.34,0.00,2.69,-9.52,-10.51,1100,1100,1100,1100,1036,1501,1508,11774,822
175026,9,-4.08,-1.93,1.32,0.609,-0.347,0.243,-20.05,9.67,0.00,0.00,20.05,-9.67,0.00,70.17,-33.86,74.26,-31.93,0.00,4.03,4.10,-32.59,1100,1100,1100,1100,1036,1501,1508,11786,822
175039,9,-2.31,-9.88,1.36,0.275,-0.071,0.700,-20.04,10.31,0.00,0.00,20.04,-10.31,0.00,70.13,-36.07,72.44,-26.19,0.00,2.28,4.28,-24.20,1100,1100,1100,1100,1036,1501,1508,11774,822
175051,9,-2.12,-10.76,-2.45,-0.211,-0.055,0.994,-18.37,6.94,0.00,0.00,18.37,-6.94,0.00,64.30,-24.30,66.42,-13.54,0.00,3.47,2.89,40.25,1100,1100,1100,1100,1036,1502,1507,11782,818
175062,9,9.63,-3.92,-2.57,-0.023,-0.127,0.378,-21.19,6.15,0.00,0.00,21.19,-6.15,0.00,74.18,-21.51,64.55,-17.59,0.00,-1.51,-2.13,31.84,1100,1100,1100,1100,1036,1502,1507,11774,818
175074,9,0.78,-26.01,-2.68,0.478,-0.034,0.806,-19.66,8.59,0.00,0.00,19.66,-8.59,0.00,68.81,-30.05,68.03,-4.04,0.00,2.77,6.71,22.91,1100,1100,1100,1100,1036,1502,1508,11791,818
175086,9,-6.49,-7.99,2.69,0.020,-0.330,1.335,-21.06,10.47,0.00,0.00,21.06,-10.47,0.00,73.72,-36.66,80.20,-28.66,0.00,5.63,-3.66,-63.45,1100,1100,1100,1100,1036,1501,1508,11791,818
175099,9,7.08,29.02,1.71,-0.267,-0.489,1.078,-20.78,5.76,0.00,0.00,20.78,-5.76,0.00,72.74,-20.16,65.66,-49.18,0.00,-2.50,-16.73,-24.75,1100,1100,1100,1100,1036,1501,1508,11774,818
175111,9,-3.77,4.02,1.95,0.189,-0.421,0.763,-19.78,6.53,0.00,0.00,19.78,-6.53,0.00,69.24,-22.84,73.01,-26.86,0.00,3.32,-2.65,-20.69,1100,1100,1100,1100,1036,1501,1508,11774,818
175122,9,1.12,-3.77,2.14,0.273,-0.302,0.602,-22.38,11.03,0.00,0.00,22.38,-11.03,0.00,78.31,-38.61,77.19,-34.85,0.00,1.49,-0.70,-13.04,1100,1100,1100,1100,1036,1501,1508,11774,818
175134,9,16.01,-7.74,2.10,0.251,-0.742,0.643,-22.87,11.82,0.00,0.00,22.87,-11.82,0.00,80.04,-41.37,64.03,-33.63,0.00,-4.87,0.51,-20.57,1100,1100,1100,1100,1036,1501,1508,11766,818
