time_ms,flags,gyro_x,gyro_y,gyro_z,accel_x,accel_y,accel_z,roll,pitch,angle_sp_roll,angle_sp_pitch,angle_err_roll,angle_err_pitch,angle_i_roll,rate_sp_roll,rate_sp_pitch,rate_err_roll,rate_err_pitch,rate_i_roll,pid_roll,pid_pitch,pid_yaw,m1,m2,m3,m4,rc_thr,rc_roll,rc_pitch,battery_mv,loop_us
332299,9,0.07,-0.04,0.02,0.021,-0.069,0.889,-2.90,1.13,0.00,0.00,2.90,-1.13,0.00,10.16,-3.94,10.09,-3.91,0.00,0.40,-0.16,-0.14,1000,1000,1000,1000,1022,1500,1506,11878,815
332311,9,0.11,-0.03,0.02,0.021,-0.069,0.887,-2.91,1.12,0.00,0.00,2.91,-1.12,0.00,10.20,-3.92,10.09,-3.89,0.00,0.39,-0.16,38.94,1000,1000,1000,1000,1022,1500,1506,11878,815
332322,9,0.12,-0.06,0.04,0.022,-0.068,0.890,-2.91,1.13,0.00,0.00,2.91,-1.13,0.00,10.19,-3.95,10.07,-3.89,0.00,0.39,-0.15,38.74,1000,1000,1000,1000,1022,1500,1506,11878,815
332334,9,0.10,-0.04,0.03,0.022,-0.068,0.889,-2.90,1.13,0.00,0.00,2.90,-1.13,0.00,10.14,-3.96,10.04,-3.91,0.00,0.40,-0.16,38.83,1000,1000,1000,1000,1022,1500,1506,11878,815
332346,9,0.12,-0.03,0.03,0.022,-0.067,0.891,-2.88,1.13,0.00,0.00,2.88,-1.13,0.00,10.08,-3.95,9.96,-3.92,0.00,0.39,-0.16,38.81,1000,1000,1000,1000,1022,1500,1506,11874,815
332359,9,0.15,-0.01,0.04,0.022,-0.067,0.890,-2.87,1.13,0.00,0.00,2.87,-1.13,0.00,10.04,-3.95,9.88,-3.94,0.00,0.38,-0.16,-0.29,1100,1100,1100,1100,1022,1500,1506,11870,816
332371,9,0.10,-0.03,0.04,0.022,-0.067,0.889,-2.86,1.14,0.00,0.00,2.86,-1.14,0.00,10.01,-3.99,9.91,-3.96,0.00,0.41,-0.16,38.83,1100,1100,1100,1100,1022,1500,1506,11870,816
332383,9,0.08,-0.03,-0.01,0.021,-0.068,0.889,-2.87,1.13,0.00,0.00,2.87,-1.13,0.00,10.04,-3.96,9.96,-3.93,0.00,0.41,-0.16,39.63,1100,1100,1100,1100,1022,1500,1506,11865,816
332394,9,0.02,0.08,0.03,0.021,-0.067,0.888,-2.87,1.10,0.00,0.00,2.87,-1.10,0.00,10.05,-3.86,10.03,-3.94,0.00,0.43,-0.20,37.52,1100,1100,1100,1100,1022,1500,1506,11861,816
332406,9,0.04,0.08,-0.03,0.022,-0.068,0.887,-2.88,1.09,0.00,0.00,2.88,-1.09,0.00,10.07,-3.81,10.03,-3.89,0.00,0.42,-0.19,38.68,1100,1100,1100,1100,1022,1500,1506,11857,816
332419,9,0.08,-0.00,-0.11,0.022,-0.066,0.888,-2.87,1.10,0.00,0.00,2.87,-1.10,0.00,10.04,-3.84,9.97,-3.84,0.00,0.40,-0.16,1.73,1100,1100,1100,1100,1022,1500,1506,11853,816
332431,9,0.12,0.01,0.07,0.020,-0.066,0.892,-2.84,1.08,0.00,0.00,2.84,-1.08,0.00,9.94,-3.79,9.82,-3.80,0.00,0.38,-0.17,-1.87,1100,1100,1100,1100,1022,1500,1506,11849,816
332442,9,0.15,0.01,0.25,0.021,-0.068,0.889,-2.81,1.09,0.00,0.00,2.81,-1.09,0.00,9.85,-3.82,9.70,-3.84,0.00,0.37,-0.18,-3.81,1100,1100,1100,1100,1022,1500,1506,11853,816
332454,9,0.11,0.04,0.09,0.022,-0.071,0.887,-2.85,1.11,0.00,0.00,2.85,-1.11,0.00,9.98,-3.88,9.86,-3.92,0.00,0.40,-0.19,39.47,1100,1100,1100,1100,1022,1500,1506,11849,816
332466,9,0.09,-0.07,-0.21,0.021,-0.068,0.886,-2.89,1.11,0.00,0.00,2.89,-1.11,0.00,10.11,-3.87,10.02,-3.80,0.00,0.41,-0.14,43.58,1100,1100,1100,1100,1022,1500,1506,11845,816
332479,9,0.17,-0.07,-0.13,0.018,-0.065,0.891,-2.86,1.07,0.00,0.00,2.86,-1.07,0.00,10.03,-3.75,9.86,-3.69,0.00,0.37,-0.14,1.33,1100,1100,1100,1100,1022,1500,1506,11841,816
332491,9,0.12,0.02,0.22,0.022,-0.064,0.889,-2.85,1.06,0.00,0.00,2.85,-1.06,0.00,9.96,-3.70,9.84,-3.72,0.00,0.39,-0.17,-4.63,1100,1100,1100,1100,1022,1500,1506,11836,816
332502,9,0.25,-0.04,0.43,0.020,-0.072,0.892,-2.90,1.05,0.00,0.00,2.90,-1.05,0.00,10.13,-3.66,9.89,-3.62,0.00,0.35,-0.12,-5.90,1100,1100,1100,1100,1022,1500,1506,11828,816
332514,9,0.42,-0.42,-0.48,0.017,-0.080,0.891,-2.99,1.04,0.00,0.00,2.99,-1.04,0.00,10.46,-3.63,10.04,-3.22,0.00,0.28,0.07,48.63,1100,1100,1100,1100,1022,1500,1507,11828,816
332526,9,-0.07,-0.10,-0.59,0.016,-0.066,0.885,-2.91,1.09,0.00,0.00,2.91,-1.09,0.00,10.17,-3.82,10.25,-3.72,0.00,0.49,-0.15,44.34,1100,1100,1100,1100,1022,1500,1506,11828,816
332539,9,-0.03,0.23,0.67,0.017,-0.064,0.891,-2.79,1.05,0.00,0.00,2.79,-1.05,0.00,9.77,-3.69,9.80,-3.92,0.00,0.44,-0.29,-14.94,1100,1100,1100,1100,1022,1500,1506,11803,816
332551,9,0.11,0.39,0.79,0.015,-0.080,0.892,-2.85,1.02,0.00,0.00,2.85,-1.02,0.00,9.97,-3.57,9.86,-3.96,0.00,0.39,-0.27,28.76,1100,1100,1100,1100,1022,1500,1506,11799,816
332562,9,-0.09,0.27,-0.43,0.023,-0.077,0.884,-2.94,1.11,0.00,0.00,2.94,-1.11,0.00,10.30,-3.88,10.39,-4.15,0.00,0.50,-0.26,51.64,1100,1100,1100,1100,1022,1500,1506,11791,816
332574,9,0.02,0.03,-0.86,0.011,-0.059,0.890,-2.83,1.09,0.00,0.00,2.83,-1.09,0.00,9.91,-3.80,9.89,-3.84,0.00,0.45,-0.23,51.69,1100,1100,1100,1100,1022,1500,1506,11770,816
332586,9,0.28,0.02,0.17,0.012,-0.069,0.891,-2.74,1.01,0.00,0.00,2.74,-1.01,0.00,9.60,-3.55,9.32,-3.57,0.00,0.34,-0.17,29.81,1100,1100,1100,1100,1022,1500,1506,11766,816
332599,9,0.17,-0.11,0.81,0.032,-0.077,0.879,-2.76,1.22,0.00,0.00,2.76,-1.22,0.00,9.66,-4.26,9.48,-4.15,0.00,0.36,-0.15,20.09,1100,1100,1100,1100,1022,1500,1506,11753,816
332611,9,-0.12,0.34,0.07,0.006,-0.078,0.896,-2.81,1.17,0.00,0.00,2.81,-1.17,0.00,9.84,-4.11,9.96,-4.45,0.00,0.48,-0.34,41.72,1100,1100,1100,1100,1022,1500,1506,11757,816
332622,9,0.21,-0.46,-0.62,0.014,-0.067,0.892,-2.79,1.20,0.00,0.00,2.79,-1.20,0.00,9.75,-4.19,9.55,-3.73,0.00,0.35,-0.04,50.05,1100,1100,1100,1100,1022,1500,1506,11741,816
332634,9,0.44,-0.16,-0.22,0.011,-0.067,0.888,-2.78,1.15,0.00,0.00,2.78,-1.15,0.00,9.73,-4.02,9.29,-3.86,0.00,0.28,-0.17,38.12,1100,1100,1100,1100,1022,1500,1506,11732,816
332646,9,-0.09,0.34,0.64,0.016,-0.077,0.894,-2.82,1.07,0.00,0.00,2.82,-1.07,0.00,9.88,-3.73,9.97,-4.08,0.00,0.52,-0.27,24.77,1100,1100,1100,1100,1022,1500,1506,11711,816
332659,9,-0.66,0.76,0.61,0.015,-0.071,0.892,-2.80,1.09,0.00,0.00,2.80,-1.09,0.00,9.81,-3.82,10.48,-4.59,0.00,0.71,-0.39,-6.02,1100,1100,1100,1100,1022,1500,1506,11716,816
332671,9,0.21,0.02,-0.47,0.015,-0.060,0.899,-2.81,1.01,0.00,0.00,2.81,-1.01,0.00,9.84,-3.55,9.63,-3.58,0.00,0.29,-0.03,50.93,1100,1100,1100,1100,1022,1500,1506,11724,816
332682,9,0.82,-0.65,-1.38,0.031,-0.068,0.905,-2.83,1.03,0.00,0.00,2.83,-1.03,0.00,9.90,-3.62,9.08,-2.97,0.00,0.14,0.16,58.63,1100,1100,1100,1100,1022,1500,1506,11724,816
332695,9,0.74,-0.59,-0.18,0.017,-0.070,0.883,-2.84,1.07,0.00,0.00,2.84,-1.07,0.00,9.96,-3.74,9.22,-3.15,0.00,0.26,-0.02,36.41,1100,1100,1100,1100,1022,1500,1506,11711,816
332706,9,0.02,0.14,1.60,0.012,-0.050,0.876,-2.68,0.88,0.00,0.00,2.68,-0.88,0.00,9.38,-3.07,9.36,-3.21,0.00,0.52,-0.31,12.33,1100,1100,1100,1100,1022,1500,1506,11728,816
332719,9,-0.03,1.00,1.35,0.012,-0.078,0.910,-2.74,0.81,0.00,0.00,2.74,-0.81,0.00,9.58,-2.85,9.62,-3.85,0.00,0.44,-0.49,-12.82,1100,1100,1100,1100,1022,1500,1506,11728,816
332731,9,0.67,-1.18,-1.66,0.041,-0.058,0.906,-2.78,0.98,0.00,0.00,2.78,-0.98,0.00,9.75,-3.42,9.08,-2.24,0.00,0.16,0.44,76.30,1100,1100,1100,1100,1022,1500,1506,11724,816
332742,9,0.59,-0.23,-1.83,0.006,-0.053,0.861,-2.54,1.18,0.00,0.00,2.54,-1.18,0.00,8.88,-4.14,8.29,-3.90,0.00,0.27,-0.26,59.36,1100,1100,1100,1100,1022,1500,1506,11736,816
332754,9,0.84,1.03,1.35,-0.010,-0.082,0.916,-2.47,0.94,0.00,0.00,2.47,-0.94,0.00,8.63,-3.29,7.79,-4.32,0.00,0.14,-0.62,2.22,1100,1100,1100,1100,1022,1500,1506,11741,816
332766,9,-0.59,-0.44,1.27,-0.004,-0.065,0.950,-2.46,0.81,0.00,0.00,2.46,-0.81,0.00,8.62,-2.82,9.21,-2.38,0.00,0.82,0.08,21.39,1100,1100,1100,1100,1022,1500,1506,11749,816
332779,9,-0.28,0.67,-0.35,0.016,-0.046,0.814,-2.51,0.47,0.00,0.00,2.51,-0.47,0.00,8.79,-1.65,9.06,-2.31,0.00,0.58,-0.30,14.00,1100,1100,1100,1100,1022,1500,1506,11749,816
332791,9,0.92,-0.32,-0.98,0.041,-0.079,0.954,-2.71,0.63,0.00,0.00,2.71,-0.63,0.00,9.48,-2.21,8.56,-1.89,0.00,0.05,0.27,54.23,1100,1100,1100,1100,1022,1500,1506,11741,816
332802,9,0.98,-0.15,-0.91,0.017,-0.056,0.876,-2.55,0.79,0.00,0.00,2.55,-0.79,0.00,8.93,-2.76,7.95,-2.61,0.00,-0.04,-0.04,44.09,1100,1100,1100,1100,1022,1500,1506,11741,816
332814,9,0.41,0.31,1.48,0.005,-0.049,0.881,-2.33,0.91,0.00,0.00,2.33,-0.91,0.00,8.14,-3.19,7.74,-3.50,0.00,0.19,-0.16,5.22,1100,1100,1100,1100,1022,1500,1506,11736,816
332826,9,-1.94,0.50,0.61,0.014,-0.076,0.955,-2.35,0.95,0.00,0.00,2.35,-0.95,0.00,8.23,-3.31,10.18,-3.81,0.00,1.31,-0.28,34.05,1100,1100,1100,1100,1022,1500,1506,11741,816
332839,9,1.57,0.54,-0.39,0.033,-0.089,0.786,-2.72,0.87,0.00,0.00,2.72,-0.87,0.00,9.51,-3.03,7.93,-3.57,0.00,-0.36,-0.10,13.46,1100,1100,1100,1100,1022,1500,1506,11741,816
332851,9,-0.94,-1.11,-1.66,0.032,-0.049,0.989,-2.60,1.08,0.00,0.00,2.60,-1.08,0.00,9.11,-3.79,10.04,-2.68,0.00,0.88,0.39,64.33,1100,1100,1100,1100,1022,1500,1506,11753,816
332862,9,1.33,1.05,-0.05,0.013,-0.110,0.825,-3.00,0.86,0.00,0.00,3.00,-0.86,0.00,10.49,-3.01,9.16,-4.06,0.00,-0.15,-0.54,25.76,1100,1100,1100,1100,1022,1500,1506,11753,816
332874,9,-0.58,-0.76,0.86,0.020,-0.012,0.941,-2.45,1.16,0.00,0.00,2.45,-1.16,0.00,8.56,-4.07,9.14,-3.30,0.00,0.80,0.06,20.00,1100,1100,1100,1100,1022,1500,1506,11749,816
332886,9,1.55,-0.85,1.02,0.014,-0.092,0.894,-2.92,0.64,0.00,0.00,2.92,-0.64,0.00,10.21,-2.25,8.66,-1.41,0.00,-0.24,0.29,23.82,1100,1100,1100,1100,1022,1500,1506,11757,816
332899,9,-1.48,0.77,-0.65,0.042,0.001,0.862,-2.34,1.00,0.00,0.00,2.34,-1.00,0.00,8.18,-3.50,9.66,-4.27,0.00,1.14,-0.68,19.24,1100,1100,1100,1100,1022,1500,1506,11753,816
332911,9,1.00,-1.03,-0.68,0.049,-0.041,0.897,-2.78,0.99,0.00,0.00,2.78,-0.99,0.00,9.74,-3.47,8.75,-2.45,0.00,-0.14,0.40,44.43,1100,1100,1100,1100,1022,1500,1506,11757,816
332922,9,-3.32,3.85,0.22,0.022,-0.062,0.891,-2.43,1.17,0.00,0.00,2.43,-1.17,0.00,8.52,-4.09,11.84,-7.94,0.00,1.63,-1.77,27.21,1100,1100,1100,1100,1022,1500,1506,11761,816
332934,9,-0.79,0.68,0.79,0.113,-0.017,0.866,-2.59,1.63,0.00,0.00,2.59,-1.63,0.00,9.07,-5.72,9.86,-6.41,0.00,0.22,0.24,-14.70,1100,1100,1100,1100,1022,1500,1506,11753,816
332946,9,-3.74,3.87,0.22,-0.016,-0.096,0.878,-2.25,1.83,0.00,0.00,2.25,-1.83,0.00,7.89,-6.40,11.63,-10.27,0.00,1.23,-1.39,2.35,1100,1100,1100,1100,1022,1500,1506,11749,816
332959,9,-1.45,2.49,-0.97,-0.014,-0.067,0.918,-2.81,0.94,0.00,0.00,2.81,-0.94,0.00,9.83,-3.30,11.28,-5.79,0.00,0.28,-0.29,19.59,1100,1100,1100,1100,1022,1500,1506,11736,816
332971,9,-2.24,3.37,-0.07,-0.093,-0.138,0.955,-3.12,0.37,0.00,0.00,3.12,-0.37,0.00,10.92,-1.31,13.15,-4.67,0.00,0.37,-0.46,33.82,1100,1100,1100,1100,1022,1500,1506,11736,816
332982,9,0.07,0.02,0.24,0.022,-0.039,0.867,-3.25,-0.19,0.00,0.00,3.25,0.19,0.00,11.38,0.67,11.31,0.65,0.00,-0.14,1.03,29.25,1100,1100,1100,1100,1022,1500,1506,11741,816
332994,9,1.12,0.15,0.55,0.037,-0.148,0.827,-3.65,0.38,0.00,0.00,3.65,-0.38,0.00,12.77,-1.32,11.66,-1.47,0.00,-0.45,0.64,32.91,1100,1100,1100,1100,1022,1500,1506,11749,816
333007,9,-0.45,-0.95,0.46,0.033,-0.027,0.888,-3.14,0.82,0.00,0.00,3.14,-0.82,0.00,10.99,-2.85,11.44,-1.90,0.00,0.76,0.37,32.72,1100,1100,1100,1100,1022,1500,1506,11741,816
333019,9,2.91,-1.04,-1.34,-0.025,-0.106,0.974,-3.51,0.47,0.00,0.00,3.51,-0.47,0.00,12.27,-1.66,9.36,-0.62,0.00,-0.67,0.20,25.78,1100,1100,1100,1100,1022,1500,1506,11745,816
333031,9,0.58,-0.09,-0.13,0.087,-0.009,0.797,-2.73,1.46,0.00,0.00,2.73,-1.46,0.00,9.54,-5.11,8.96,-5.03,0.00,0.53,-0.51,28.78,1100,1100,1100,1100,1022,1500,1506,11745,816
333042,9,3.24,-5.14,-0.03,0.107,-0.049,0.890,-3.07,2.19,0.00,0.00,3.07,-2.19,0.00,10.73,-7.65,7.49,-2.51,0.00,-0.39,1.52,31.40,1100,1100,1100,1100,1022,1500,1506,11745,816
333054,9,0.71,-3.30,1.26,0.052,-0.080,0.795,-3.01,2.81,0.00,0.00,3.01,-2.81,0.00,10.52,-9.84,9.81,-6.54,0.00,0.60,0.08,15.47,1100,1100,1100,1100,1022,1500,1506,11749,816
333066,9,-0.17,-3.24,-0.33,0.048,-0.063,0.899,-3.22,2.52,0.00,0.00,3.22,-2.52,0.00,11.28,-8.81,11.45,-5.57,0.00,1.12,-0.26,45.43,1100,1100,1100,1100,1022,1500,1506,11757,816
333079,9,1.48,-2.76,-0.68,0.067,-0.061,0.867,-3.11,2.15,0.00,0.00,3.11,-2.15,0.00,10.87,-7.54,9.39,-4.78,0.00,0.23,-0.18,12.28,1100,1100,1100,1100,1022,1500,1506,11749,816
333091,9,0.98,-0.23,-0.62,0.014,-0.021,0.791,-2.74,1.81,0.00,0.00,2.74,-1.81,0.00,9.59,-6.32,8.61,-6.09,0.00,0.37,-1.15,43.34,1100,1100,1100,1100,1022,1500,1506,11761,816
333103,9,0.67,-1.35,-0.03,-0.016,-0.066,0.964,-2.40,1.40,0.00,0.00,2.40,-1.40,0.00,8.39,-4.90,7.72,-3.55,0.00,0.45,-0.26,39.75,1100,1100,1100,1100,1022,1500,1506,11761,816
333114,9,2.17,-2.52,1.26,-0.002,-0.107,0.850,-2.60,0.95,0.00,0.00,2.60,-0.95,0.00,9.12,-3.34,6.95,-0.82,0.00,-0.30,0.42,-20.67,1100,1100,1100,1100,1022,1500,1506,11766,816
333126,9,-1.05,0.74,-0.42,-0.024,-0.178,0.923,-2.91,0.82,0.00,0.00,2.91,-0.82,0.00,10.17,-2.87,11.21,-3.61,0.00,1.18,-1.10,11.99,1100,1100,1100,1100,1022,1500,1506,11770,816
333139,9,-0.39,0.02,-0.28,0.063,-0.057,0.903,-3.07,1.27,0.00,0.00,3.07,-1.27,0.00,10.75,-4.46,11.14,-4.48,0.00,0.92,-0.68,3.32,1100,1100,1100,1100,1022,1500,1506,11761,816
333151,9,-0.05,3.02,-0.31,0.032,-0.045,0.850,-2.99,1.29,0.00,0.00,2.99,-1.29,0.00,10.47,-4.50,10.52,-7.52,0.00,0.41,-1.49,36.20,1100,1100,1100,1100,1022,1500,1506,11757,816
333162,9,-1.90,2.32,0.55,0.026,0.073,0.925,-2.10,1.60,0.00,0.00,2.10,-1.60,0.00,7.36,-5.62,9.26,-7.93,0.00,1.29,-1.02,26.46,1100,1100,1100,1100,1022,1500,1506,11761,816
333174,9,3.23,0.97,1.00,-0.015,-0.059,0.854,-2.80,0.67,0.00,0.00,2.80,-0.67,0.00,9.82,-2.36,6.58,-3.33,0.00,-1.08,0.52,23.24,1100,1100,1100,1100,1022,1500,1506,11753,816
333186,9,-1.19,5.58,-0.43,-0.079,-0.202,0.923,-2.85,0.22,0.00,0.00,2.85,-0.22,0.00,9.98,-0.76,11.17,-6.34,0.00,0.84,-1.47,49.68,1100,1100,1100,1100,1023,1500,1506,11753,816
333199,9,1.39,0.66,-0.48,-0.025,-0.047,0.970,-2.98,-0.40,0.00,0.00,2.98,0.40,0.00,10.43,1.39,9.03,0.74,0.00,-0.01,0.81,7.73,1100,1100,1100,1100,1023,1500,1506,11757,816
333211,9,2.96,-2.63,-0.34,0.008,-0.178,0.921,-2.81,-0.34,0.00,0.00,2.81,0.34,0.00,9.82,1.18,6.87,3.81,0.00,-1.10,2.13,1.20,1100,1100,1100,1100,1022,1505,1501,11757,816
333222,9,-5.17,2.47,1.26,0.002,-0.153,0.925,-2.86,-0.21,0.00,0.00,2.86,0.21,0.00,9.99,0.74,15.16,-1.74,0.00,3.16,-1.15,-23.96,1100,1100,1100,1100,1022,1505,1501,11761,816
333234,9,1.22,-3.47,0.32,0.148,-0.046,0.827,-3.48,0.90,0.00,0.00,3.48,-0.90,0.00,12.17,-3.15,10.95,0.33,0.00,0.16,1.38,36.19,1100,1100,1100,1100,1022,1500,1506,11770,816
333246,9,-1.93,2.01,0.01,0.064,-0.038,0.821,-3.08,2.06,0.00,0.00,3.08,-2.06,0.00,10.77,-7.22,12.70,-9.23,0.00,0.96,-1.59,41.41,1100,1100,1100,1100,1022,1500,1506,11761,816
333259,9,-2.82,-0.57,-0.44,0.071,0.075,0.815,-2.67,2.40,0.00,0.00,2.67,-2.40,0.00,9.34,-8.39,12.16,-7.82,0.00,1.58,-0.30,8.83,1100,1100,1100,1100,1022,1500,1506,11757,816
333271,9,3.41,1.12,0.09,-0.033,-0.161,0.969,-3.36,1.51,0.00,0.00,3.36,-1.51,0.00,11.75,-5.28,8.35,-6.40,0.00,-1.52,-0.30,36.61,1100,1100,1100,1100,1023,1500,1506,11770,816
333282,9,-2.38,1.93,0.49,-0.024,-0.074,0.792,-3.05,1.07,0.00,0.00,3.05,-1.07,0.00,10.69,-3.74,13.06,-5.67,0.00,1.29,-0.85,30.30,1100,1100,1100,1100,1023,1500,1506,11757,816
333294,9,2.07,-3.57,-0.31,0.029,-0.003,0.901,-3.12,0.55,0.00,0.00,3.12,-0.55,0.00,10.94,-1.94,8.87,1.63,0.00,-0.45,1.73,43.62,1100,1100,1100,1100,1023,1500,1506,11757,816
333307,9,1.78,0.12,0.14,-0.072,-0.157,0.955,-3.19,-0.34,0.00,0.00,3.19,0.34,0.00,11.17,1.20,9.39,1.08,0.00,-0.48,0.15,33.60,1100,1100,1100,1100,1022,1500,1506,11753,816
333319,9,0.07,0.26,-0.27,-0.002,-0.153,0.884,-3.19,-0.12,0.00,0.00,3.19,0.12,0.00,11.17,0.44,11.10,0.17,0.00,0.84,-0.27,2.63,1100,1100,1100,1100,1022,1500,1506,11757,816
333331,9,2.69,0.69,-0.66,-0.031,-0.056,1.071,-2.89,-0.45,0.00,0.00,2.89,0.45,0.00,10.13,1.57,7.44,0.88,0.00,-0.40,-0.21,42.85,1100,1100,1100,1100,1022,1500,1506,11757,816
333342,9,-0.23,4.18,0.86,-0.085,0.004,0.881,-2.43,-1.34,0.00,0.00,2.43,1.34,0.00,8.50,4.70,8.73,0.52,0.00,0.98,-1.33,15.16,1100,1100,1100,1100,1022,1500,1506,11753,816
333354,9,0.74,1.29,0.56,-0.022,-0.017,0.924,-2.15,-1.74,0.00,0.00,2.15,1.74,0.00,7.52,6.08,6.77,4.79,0.00,0.65,0.36,-8.43,1100,1100,1100,1100,1023,1500,1506,11753,815
333366,9,2.46,-0.95,0.06,0.023,-0.040,0.947,-2.47,-1.82,0.00,0.00,2.47,1.82,0.00,8.63,6.35,6.17,7.31,0.00,-0.13,1.10,2.38,1100,1100,1100,1100,1023,1500,1506,11749,815
333379,9,-0.10,-3.35,-0.69,0.089,-0.071,0.734,-2.59,-0.43,0.00,0.00,2.59,0.43,0.00,9.07,1.52,9.17,4.87,0.00,0.85,1.30,11.17,1100,1100,1100,1100,1023,1500,1506,11757,815
333391,9,-1.47,-3.84,-0.39,0.174,0.037,0.780,-2.22,1.63,0.00,0.00,2.22,-1.63,0.00,7.76,-5.72,9.23,-1.88,0.00,1.28,0.57,40.43,1100,1100,1100,1100,1022,1500,1506,11757,815
333402,9,3.47,-4.82,1.41,0.120,-0.064,0.762,-2.87,2.78,0.00,0.00,2.87,-2.78,0.00,10.05,-9.72,6.58,-4.90,0.00,-1.12,1.01,7.95,1100,1100,1100,1100,1022,1500,1506,11753,815
333414,9,2.09,0.16,0.40,-0.046,-0.136,0.918,-2.92,2.30,0.00,0.00,2.92,-2.30,0.00,10.21,-8.06,8.12,-8.23,0.00,-0.76,-1.06,-2.57,1100,1100,1100,1100,1022,1500,1506,11749,815
333426,9,-1.04,-2.44,-0.56,-0.020,-0.057,0.981,-2.93,1.45,0.00,0.00,2.93,-1.45,0.00,10.25,-5.07,11.29,-2.63,0.00,0.95,0.58,16.89,1100,1100,1100,1100,1022,1500,1506,11749,815
333439,9,0.26,-2.21,-0.78,0.018,-0.253,0.873,-3.71,1.24,0.00,0.00,3.71,-1.24,0.00,12.98,-4.35,12.72,-2.14,0.00,0.31,0.71,40.73,1100,1100,1100,1100,1022,1500,1506,11745,815
333451,9,-4.29,2.39,-0.83,0.137,-0.105,0.801,-3.19,2.38,0.00,0.00,3.19,-2.38,0.00,11.18,-8.34,15.48,-10.73,0.00,2.30,-1.88,46.63,1100,1100,1100,1100,1022,1500,1506,11749,816
333462,9,1.55,-5.30,0.83,0.120,0.008,0.898,-3.25,4.02,0.00,0.00,3.25,-4.02,0.00,11.38,-14.06,9.83,-8.77,0.00,-0.20,1.08,15.49,1100,1100,1100,1100,1022,1500,1506,11745,816
333474,9,1.99,2.51,0.82,-0.012,-0.097,0.917,-3.15,3.49,0.00,0.00,3.15,-3.49,0.00,11.03,-12.20,9.05,-14.71,0.00,-0.75,-1.95,18.46,1100,1100,1100,1100,1022,1500,1506,11749,816
333486,9,-3.22,2.17,0.04,-0.016,-0.027,0.881,-2.75,3.22,0.00,0.00,2.75,-3.22,0.00,9.62,-11.26,12.83,-13.43,0.00,2.32,-1.97,35.81,1100,1100,1100,1100,1022,1500,1506,11757,816
333499,9,5.32,-3.17,-0.36,0.044,0.029,0.888,-2.95,1.59,0.00,0.00,2.95,-1.59,0.00,10.32,-5.56,5.00,-2.39,0.00,-1.60,1.39,7.88,1100,1100,1100,1100,1022,1500,1506,11757,816
333511,9,-0.99,-0.21,-0.05,-0.041,0.027,0.827,-2.54,0.82,0.00,0.00,2.54,-0.82,0.00,8.89,-2.87,9.88,-2.66,0.00,0.95,-0.23,33.38,1100,1100,1100,1100,1022,1500,1506,11757,816
333522,9,-0.72,-3.15,-0.01,0.141,0.007,0.768,-2.06,1.59,0.00,0.00,2.06,-1.59,0.00,7.21,-5.58,7.93,-2.43,0.00,1.08,0.89,32.30,1100,1100,1100,1100,1022,1500,1506,11757,816
333534,9,4.23,2.17,0.49,0.019,-0.160,0.935,-2.76,1.48,0.00,0.00,2.76,-1.48,0.00,9.66,-5.19,5.43,-7.37,0.00,-1.77,-1.13,25.10,1100,1100,1100,1100,1022,1500,1506,11757,816
333546,9,-3.19,2.55,-0.11,-0.075,-0.135,0.807,-2.53,1.25,0.00,0.00,2.53,-1.25,0.00,8.86,-4.37,12.05,-6.92,0.00,1.69,-1.20,35.15,1100,1100,1100,1100,1022,1500,1506,11761,816
333559,9,1.36,-3.18,-0.95,0.015,0.008,0.984,-2.53,0.19,0.00,0.00,2.53,-0.19,0.00,8.84,-0.66,7.48,2.51,0.00,-0.27,1.91,19.04,1100,1100,1100,1100,1022,1500,1506,11757,816
333571,9,1.11,-0.03,-0.10,-0.074,-0.207,0.953,-3.22,-0.38,0.00,0.00,3.22,0.38,0.00,11.26,1.31,10.15,1.34,0.00,-0.24,0.25,32.99,1100,1100,1100,1100,1022,1500,1506,11753,816
333582,9,-1.02,-0.71,0.69,0.078,-0.089,0.815,-2.93,0.59,0.00,0.00,2.93,-0.59,0.00,10.26,-2.08,11.28,-1.37,0.00,1.19,-0.16,18.35,1100,1100,1100,1100,1022,1500,1506,11761,816
333594,9,2.06,-2.56,0.18,0.033,-0.077,0.999,-3.51,1.00,0.00,0.00,3.51,-1.00,0.00,12.27,-3.49,10.21,-0.93,0.00,-0.28,0.43,32.44,1100,1100,1100,1100,1022,1500,1506,11757,816
333606,9,-3.53,2.86,0.71,-0.018,-0.094,0.887,-3.18,1.73,0.00,0.00,3.18,-1.73,0.00,11.13,-6.07,14.66,-8.93,0.00,2.03,-2.06,23.19,1100,1100,1100,1100,1022,1500,1506,11761,816
333619,9,-2.85,1.83,-0.65,0.046,0.017,0.864,-2.57,1.56,0.00,0.00,2.57,-1.56,0.00,8.99,-5.47,11.84,-7.30,0.00,1.55,-1.06,13.47,1100,1100,1100,1100,1022,1500,1506,11757,816
333631,9,1.19,1.19,-0.13,-0.058,-0.021,0.926,-2.69,0.17,0.00,0.00,2.69,-0.17,0.00,9.42,-0.58,8.23,-1.77,0.00,-0.51,-0.07,2.18,1100,1100,1100,1100,1022,1500,1506,11757,816
333642,9,1.01,-3.50,0.67,0.047,-0.016,0.771,-2.49,0.61,0.00,0.00,2.49,-0.61,0.00,8.72,-2.12,7.71,1.38,0.00,-0.31,1.61,-16.18,1100,1100,1100,1100,1022,1500,1506,11749,816
333654,9,1.47,-3.07,0.39,0.085,0.005,0.828,-2.76,1.28,0.00,0.00,2.76,-1.28,0.00,9.66,-4.47,8.19,-1.40,0.00,-0.15,0.63,27.48,1100,1100,1100,1100,1022,1500,1506,11741,816
333666,9,3.53,-1.88,0.60,0.060,-0.127,0.837,-3.47,2.41,0.00,0.00,3.47,-2.41,0.00,12.15,-8.42,8.61,-6.54,0.00,-0.83,-0.26,25.79,1100,1100,1100,1100,1022,1500,1506,11736,816
333679,9,-0.11,1.26,-0.72,0.062,-0.087,0.785,-3.35,2.21,0.00,0.00,3.35,-2.21,0.00,11.72,-7.73,11.83,-8.99,0.00,0.91,-1.23,16.27,1100,1100,1100,1100,1022,1500,1506,11741,816
333691,9,-1.02,1.10,-0.70,-0.015,-0.073,0.998,-2.85,1.63,0.00,0.00,2.85,-1.63,0.00,9.99,-5.70,11.01,-6.79,0.00,1.14,-0.49,51.01,1100,1100,1100,1100,1022,1500,1506,11749,816
333702,9,2.86,0.23,0.70,-0.007,-0.081,0.893,-2.34,1.45,0.00,0.00,2.34,-1.45,0.00,8.18,-5.06,5.32,-5.29,0.00,-1.07,0.25,22.37,1100,1100,1100,1100,1022,1500,1506,11753,816
333715,9,-2.44,3.08,0.63,-0.018,-0.151,1.022,-2.01,1.50,0.00,0.00,2.01,-1.50,0.00,7.02,-5.24,9.47,-8.31,0.00,1.33,-1.43,23.24,1100,1100,1100,1100,1022,1500,1506,11757,816
333726,9,-2.73,1.22,-0.15,0.067,-0.030,0.941,-2.06,1.60,0.00,0.00,2.06,-1.60,0.00,7.21,-5.60,9.94,-6.82,0.00,1.55,-0.37,43.18,1100,1100,1100,1100,1022,1500,1506,11766,816
333739,9,-1.68,5.74,-0.14,-0.087,-0.119,0.840,-3.22,0.10,0.00,0.00,3.22,-0.10,0.00,11.26,-0.35,12.94,-6.09,0.00,0.72,-1.59,4.60,1100,1100,1100,1100,1022,1500,1506,11761,816
333751,9,-6.29,4.87,-0.61,-0.059,-0.121,0.938,-3.27,-0.80,0.00,0.00,3.27,0.80,0.00,11.43,2.81,17.72,-2.05,0.00,2.85,-0.88,40.89,1100,1100,1100,1100,1022,1500,1506,11757,816
333762,9,2.63,-1.99,0.57,0.080,0.026,0.897,-3.27,-0.96,0.00,0.00,3.27,0.96,0.00,11.43,3.37,8.80,5.36,0.00,-1.16,2.00,18.30,1100,1100,1100,1100,1022,1500,1506,11753,816
333774,9,2.79,-3.25,0.63,0.073,-0.068,0.794,-3.04,0.99,0.00,0.00,3.04,-0.99,0.00,10.65,-3.47,7.86,-0.22,0.00,-1.21,1.26,19.14,1100,1100,1100,1100,1022,1500,1506,11761,816
333786,9,0.98,-4.47,-0.18,0.200,0.124,0.764,-1.94,3.19,0.00,0.00,1.94,-3.19,0.00,6.77,-11.17,5.80,-6.70,0.00,0.52,0.41,37.45,1100,1100,1100,1100,1022,1500,1506,11749,816
333799,9,5.64,-4.83,0.05,0.061,-0.096,0.824,-3.37,3.01,0.00,0.00,3.37,-3.01,0.00,11.81,-10.53,6.17,-5.70,0.00,-1.43,0.72,0.86,1100,1100,1100,1100,1022,1500,1506,11741,816
333811,9,-2.47,4.95,-0.67,-0.083,-0.185,0.876,-2.93,2.16,0.00,0.00,2.93,-2.16,0.00,10.27,-7.57,12.74,-12.52,0.00,1.98,-3.11,43.82,1100,1100,1100,1100,1022,1500,1506,11753,816
333823,9,-1.29,1.04,-0.39,0.046,-0.016,0.915,-2.65,1.58,0.00,0.00,2.65,-1.58,0.00,9.26,-5.53,10.55,-6.57,0.00,1.41,-0.64,37.66,1100,1100,1100,1100,1022,1500,1506,11749,816
333834,9,1.17,2.31,0.03,0.014,-0.211,0.959,-2.98,1.61,0.00,0.00,2.98,-1.61,0.00,10.42,-5.65,9.24,-7.96,0.00,-0.50,-0.81,-1.80,1100,1100,1100,1100,1022,1500,1506,11741,816
333846,9,-4.56,3.51,-0.14,0.058,-0.068,0.847,-2.08,2.11,0.00,0.00,2.08,-2.11,0.00,7.29,-7.38,11.85,-10.89,0.00,2.12,-1.75,2.96,1100,1100,1100,1100,1022,1500,1506,11741,816
333859,9,2.78,-1.59,-0.05,0.015,-0.017,0.978,-2.67,1.45,0.00,0.00,2.67,-1.45,0.00,9.36,-5.09,6.58,-3.50,0.00,-0.99,1.13,1.08,1100,1100,1100,1100,1022,1500,1506,11741,816
333871,9,-0.12,4.25,0.47,-0.159,-0.170,1.036,-3.04,0.06,0.00,0.00,3.04,-0.06,0.00,10.65,-0.22,10.77,-4.47,0.00,0.36,-1.28,22.85,1100,1100,1100,1100,1022,1500,1506,11757,816
333882,9,-1.57,0.87,0.30,0.018,-0.021,0.854,-2.99,-0.61,0.00,0.00,2.99,0.61,0.00,10.46,2.15,12.04,1.27,0.00,1.65,0.12,27.28,1100,1100,1100,1100,1022,1500,1506,11753,816
333894,9,2.47,0.65,0.19,-0.029,-0.087,1.012,-3.23,-1.02,0.00,0.00,3.23,1.02,0.00,11.32,3.58,8.84,2.93,0.00,-0.53,0.42,32.00,1100,1100,1100,1100,1022,1500,1506,11753,816
333906,9,-0.68,0.68,0.54,0.139,0.017,0.667,-2.31,0.64,0.00,0.00,2.31,-0.64,0.00,8.07,-2.23,8.75,-2.91,0.00,0.91,-0.20,24.06,1100,1100,1100,1100,1022,1500,1506,11745,816
333919,9,1.75,-1.20,-0.25,0.070,0.040,0.953,-2.05,1.36,0.00,0.00,2.05,-1.36,0.00,7.19,-4.78,5.44,-3.58,0.00,-0.08,0.22,5.98,1100,1100,1100,1100,1022,1500,1506,11745,816
333931,9,-0.01,3.54,0.07,-0.075,-0.071,0.988,-2.15,0.84,0.00,0.00,2.15,-0.84,0.00,7.53,-2.95,7.53,-6.49,0.00,0.16,-1.26,0.64,1100,1100,1100,1100,1022,1500,1506,11745,816
333942,9,-2.29,4.26,0.21,-0.121,-0.106,0.753,-2.43,-0.67,0.00,0.00,2.43,0.67,0.00,8.52,2.35,10.81,-1.91,0.00,1.01,-0.74,-3.67,1100,1100,1100,1100,1022,1500,1506,11745,816
333954,9,-1.26,-0.34,-0.85,0.014,-0.103,0.969,-2.51,-0.86,0.00,0.00,2.51,0.86,0.00,8.80,3.01,10.06,3.35,0.00,0.50,1.46,49.63,1100,1100,1100,1100,1022,1500,1506,11753,816
333966,9,0.51,-2.29,0.34,0.052,-0.077,0.841,-3.01,-0.73,0.00,0.00,3.01,0.73,0.00,10.54,2.54,10.03,4.83,0.00,-0.32,1.55,26.61,1100,1100,1100,1100,1022,1500,1506,11736,816
333979,9,0.20,-1.30,0.24,-0.009,-0.179,0.900,-3.21,-0.08,0.00,0.00,3.21,0.08,0.00,11.23,0.27,11.03,1.57,0.00,0.03,0.46,-4.90,1100,1100,1100,1100,1022,1500,1506,11728,816
333991,9,0.93,-1.10,-0.29,0.027,-0.134,1.024,-2.87,0.37,0.00,0.00,2.87,-0.37,0.00,10.03,-1.29,9.10,-0.19,0.00,0.17,0.31,38.21,1100,1100,1100,1100,1022,1500,1506,11732,816
334002,9,2.60,0.40,0.12,-0.084,-0.143,0.897,-3.24,0.06,0.00,0.00,3.24,-0.06,0.00,11.34,-0.20,8.75,-0.60,0.00,-0.40,-0.45,28.62,1100,1100,1100,1100,1022,1500,1506,11732,816
334014,9,-1.59,-0.66,-0.11,0.112,-0.102,0.951,-2.25,1.13,0.00,0.00,2.25,-1.13,0.00,7.88,-3.97,9.48,-3.31,0.00,1.78,-0.61,32.74,1100,1100,1100,1100,1022,1500,1506,11728,816
334027,9,0.00,-0.95,0.26,0.140,0.095,0.874,-1.64,1.79,0.00,0.00,1.64,-1.79,0.00,5.73,-6.26,5.73,-5.30,0.00,1.04,-0.35,29.81,1100,1100,1100,1100,1022,1500,1506,11736,816
334039,9,1.92,3.52,0.55,-0.041,-0.183,0.893,-2.70,1.58,0.00,0.00,2.70,-1.58,0.00,9.45,-5.52,7.53,-9.04,0.00,-0.28,-1.58,30.39,1100,1100,1100,1100,1022,1500,1506,11741,816
334051,9,-5.53,4.85,-1.03,0.042,-0.054,0.940,-2.24,1.45,0.00,0.00,2.24,-1.45,0.00,7.85,-5.07,13.37,-9.92,0.00,3.13,-2.02,49.58,1100,1100,1100,1100,1022,1500,1506,11732,816
334062,9,1.03,-2.39,-0.03,0.049,0.002,0.870,-2.63,1.00,0.00,0.00,2.63,-1.00,0.00,9.20,-3.51,8.17,-1.12,0.00,-0.14,1.40,26.82,1100,1100,1100,1100,1022,1500,1506,11745,816
334074,9,-0.58,-0.07,0.44,0.083,-0.029,0.768,-2.14,2.16,0.00,0.00,2.14,-2.16,0.00,7.49,-7.56,8.07,-7.50,0.00,0.05,-0.14,18.94,1100,1100,1100,1100,1022,1500,1506,11745,816
334086,9,-1.01,-3.01,0.49,0.166,0.153,0.765,-1.48,3.57,0.00,0.00,1.48,-3.57,0.00,5.18,-12.51,6.19,-9.49,0.00,0.72,0.43,22.02,1100,1100,1100,1100,1022,1500,1506,11745,816
334099,9,4.21,-1.06,0.19,0.013,-0.114,0.901,-2.77,2.92,0.00,0.00,2.77,-2.92,0.00,9.71,-10.21,5.49,-9.15,0.00,-1.92,0.24,-2.20,1100,1100,1100,1100,1022,1500,1506,11741,816
334111,9,-2.90,3.16,-0.17,-0.101,-0.173,0.897,-2.47,2.03,0.00,0.00,2.47,-2.03,0.00,8.64,-7.09,11.55,-10.25,0.00,1.32,-1.64,35.04,1100,1100,1100,1100,1022,1500,1506,11741,816
334122,9,2.28,-0.74,-0.47,-0.012,-0.044,0.931,-2.45,0.81,0.00,0.00,2.45,-0.81,0.00,8.56,-2.84,6.28,-2.10,0.00,-0.50,0.66,39.22,1100,1100,1100,1100,1022,1500,1506,11745,816
334134,9,3.48,-0.71,-0.50,0.010,-0.145,0.926,-2.89,0.72,0.00,0.00,2.89,-0.72,0.00,10.13,-2.52,6.65,-1.82,0.00,-1.25,0.63,10.69,1100,1100,1100,1100,1022,1500,1506,11753,816
334146,9,-1.55,-0.08,0.51,0.042,-0.089,0.828,-2.53,1.28,0.00,0.00,2.53,-1.28,0.00,8.85,-4.49,10.40,-4.41,0.00,1.43,-0.43,-10.61,1100,1100,1100,1100,1022,1500,1506,11749,816
334159,9,4.89,-3.54,-0.28,0.029,-0.092,1.001,-2.66,1.30,0.00,0.00,2.66,-1.30,0.00,9.31,-4.57,4.42,-1.03,0.00,-1.37,1.28,6.02,1100,1100,1100,1100,1022,1500,1506,11745,816
334171,9,-1.54,4.34,0.15,-0.077,-0.134,0.979,-2.56,1.20,0.00,0.00,2.56,-1.20,0.00,8.94,-4.19,10.48,-8.53,0.00,1.50,-2.22,28.02,1100,1100,1100,1100,1022,1500,1506,11741,816
334182,9,-2.83,0.24,-0.18,0.075,-0.047,0.804,-2.30,1.72,0.00,0.00,2.30,-1.72,0.00,8.04,-6.03,10.87,-6.27,0.00,2.20,-0.36,31.73,1100,1100,1100,1100,1022,1500,1506,11741,816
334194,9,1.17,-1.89,-0.50,0.197,-0.020,0.854,-2.19,2.92,0.00,0.00,2.19,-2.92,0.00,7.68,-10.23,6.51,-8.33,0.00,-0.04,0.29,44.63,1100,1100,1100,1100,1022,1500,1506,11741,816
334206,9,-1.80,-0.67,0.73,0.150,-0.020,0.806,-1.85,4.99,0.00,0.00,1.85,-4.99,0.00,6.49,-17.45,8.29,-16.78,0.00,1.14,-1.13,19.18,1100,1100,1100,1100,1022,1500,1506,11745,816
334219,9,-0.96,1.38,-0.31,0.156,0.046,0.801,-1.84,5.65,0.00,0.00,1.84,-5.65,0.00,6.42,-19.76,7.39,-21.14,0.00,0.58,-1.75,4.30,1100,1100,1100,1100,1022,1500,1506,11753,816
334231,9,0.30,0.64,0.29,0.023,-0.038,0.856,-2.80,5.13,0.00,0.00,2.80,-5.13,0.00,9.81,-17.95,9.51,-18.59,0.00,-0.23,-0.84,-5.88,1100,1100,1100,1100,1022,1500,1506,11757,816
334242,9,-0.65,1.07,-0.38,-0.026,-0.096,0.839,-2.90,3.54,0.00,0.00,2.90,-3.54,0.00,10.17,-12.39,10.81,-13.46,0.00,0.06,-0.35,4.71,1100,1100,1100,1100,1022,1500,1506,11753,816
334254,9,-0.64,-1.87,-1.04,0.048,-0.013,0.883,-2.48,2.75,0.00,0.00,2.48,-2.75,0.00,8.68,-9.64,9.32,-7.76,0.00,0.36,0.84,49.15,1100,1100,1100,1100,1022,1500,1506,11757,816
334266,9,3.62,-4.93,0.96,0.101,-0.126,0.825,-3.13,3.17,0.00,0.00,3.13,-3.17,0.00,10.94,-11.11,7.32,-6.18,0.00,-1.37,1.79,9.72,1100,1100,1100,1100,1022,1500,1506,11749,816
334279,9,1.57,0.31,0.09,-0.053,-0.189,0.875,-3.20,2.65,0.00,0.00,3.20,-2.65,0.00,11.19,-9.28,9.62,-9.59,0.00,-0.38,-0.95,-1.35,1100,1100,1100,1100,1022,1500,1506,11753,816
334291,9,0.98,-2.56,-0.08,-0.035,-0.116,0.974,-3.26,1.70,0.00,0.00,3.26,-1.70,0.00,11.42,-5.94,10.44,-3.38,0.00,0.36,0.69,34.81,1100,1100,1100,1100,1022,1500,1506,11757,816
334302,9,1.89,-2.81,-0.51,0.013,-0.211,0.964,-3.61,1.43,0.00,0.00,3.61,-1.43,0.00,12.62,-5.01,10.73,-2.21,0.00,0.05,0.70,38.76,1100,1100,1100,1100,1022,1500,1506,11745,816
334314,9,-2.41,-2.93,-0.46,0.119,-0.062,0.817,-3.17,2.22,0.00,0.00,3.17,-2.22,0.00,11.08,-7.78,13.50,-4.85,0.00,2.22,-0.25,37.95,1100,1100,1100,1100,1022,1500,1506,11745,816
334326,9,3.52,-8.23,1.00,0.111,-0.008,0.890,-3.37,3.56,0.00,0.00,3.37,-3.56,0.00,11.80,-12.45,8.28,-4.21,0.00,-0.37,1.32,10.44,1100,1100,1100,1100,1022,1500,1506,11745,816
334339,9,-0.06,1.33,0.40,0.054,-0.114,0.818,-3.37,3.82,0.00,0.00,3.37,-3.82,0.00,11.78,-13.38,11.84,-14.71,0.00,0.82,-2.66,-5.04,1100,1100,1100,1100,1022,1500,1506,11745,816
334351,9,-4.40,2.71,-0.11,0.048,-0.013,0.840,-2.78,3.78,0.00,0.00,2.78,-3.78,0.00,9.73,-13.23,14.12,-15.94,0.00,2.88,-2.77,35.53,1100,1100,1100,1100,1022,1500,1506,11736,816
334362,9,3.13,0.55,-0.33,0.010,0.005,0.928,-2.92,2.64,0.00,0.00,2.92,-2.64,0.00,10.20,-9.24,7.07,-9.79,0.00,-1.11,-0.50,36.32,1100,1100,1100,1100,1022,1500,1506,11745,816
334374,9,-1.00,2.02,-0.22,-0.107,-0.056,0.857,-2.42,1.34,0.00,0.00,2.42,-1.34,0.00,8.48,-4.70,9.48,-6.72,0.00,0.40,-0.78,29.91,1100,1100,1100,1100,1022,1500,1506,11741,816
334386,9,1.29,-4.16,-0.12,0.085,0.014,0.841,-2.07,1.54,0.00,0.00,2.07,-1.54,0.00,7.23,-5.41,5.93,-1.25,0.00,-0.16,1.85,28.22,1100,1100,1100,1100,1022,1500,1506,11741,816
334399,9,3.37,0.35,0.10,-0.008,-0.185,0.941,-2.90,0.93,0.00,0.00,2.90,-0.93,0.00,10.15,-3.26,6.78,-3.62,0.00,-1.27,-0.20,-1.57,1100,1100,1100,1100,1022,1500,1506,11749,816
334411,9,-3.34,2.49,0.05,-0.058,-0.113,0.844,-2.59,0.84,0.00,0.00,2.59,-0.84,0.00,9.06,-2.93,12.40,-5.42,0.00,2.01,-1.39,29.77,1100,1100,1100,1100,1022,1500,1506,11745,816
334422,9,2.23,0.56,-0.42,-0.008,-0.070,1.001,-3.01,-0.31,0.00,0.00,3.01,0.31,0.00,10.54,1.09,8.31,0.53,0.00,-0.31,0.36,38.38,1100,1100,1100,1100,1022,1500,1506,11736,816
334435,9,0.13,4.85,0.16,-0.126,-0.148,1.015,-2.99,-1.25,0.00,0.00,2.99,1.25,0.00,10.46,4.38,10.33,-0.47,0.00,0.42,-1.27,40.19,1100,1100,1100,1100,1022,1500,1506,11745,816
334446,9,-1.80,0.22,-0.02,0.059,0.047,0.855,-1.82,-0.50,0.00,0.00,1.82,0.50,0.00,6.36,1.77,8.17,1.54,0.00,1.47,0.52,42.96,1100,1100,1100,1100,1022,1500,1506,11741,816
334459,9,2.03,-1.10,0.00,-0.000,-0.071,0.929,-2.30,-0.56,0.00,0.00,2.30,0.56,0.00,8.05,1.96,6.01,3.05,0.00,-0.58,1.03,-0.14,1100,1100,1100,1100,1022,1500,1506,11728,816
334471,9,-3.93,3.20,0.09,0.020,-0.055,0.787,-1.96,0.42,0.00,0.00,1.96,-0.42,0.00,6.85,-1.48,10.77,-4.67,0.00,1.96,-1.47,25.83,1100,1100,1100,1100,1022,1500,1506,11736,816
334482,9,-1.39,-0.81,-0.43,0.110,0.028,0.849,-2.45,1.00,0.00,0.00,2.45,-1.00,0.00,8.56,-3.49,9.95,-2.68,0.00,0.72,0.44,35.57,1100,1100,1100,1100,1022,1500,1506,11732,816
334494,9,0.91,-0.43,0.08,-0.035,-0.155,0.874,-3.28,0.83,0.00,0.00,3.28,-0.83,0.00,11.49,-2.90,10.58,-2.46,0.00,-0.67,0.68,23.70,1100,1100,1100,1100,1022,1500,1506,11728,816
334506,9,0.73,2.98,0.03,-0.105,-0.107,0.936,-2.92,-0.30,0.00,0.00,2.92,0.30,0.00,10.23,1.04,9.51,-1.93,0.00,-0.22,-0.81,23.70,1100,1100,1100,1100,1022,1500,1506,11741,816
334519,9,4.32,-1.31,-0.14,-0.125,-0.131,1.039,-3.40,-1.53,0.00,0.00,3.40,1.53,0.00,11.90,5.37,7.58,6.68,0.00,-1.42,1.39,3.79,1100,1100,1100,1100,1022,1500,1506,11757,816
334531,9,0.92,-2.64,0.70,0.011,-0.129,0.913,-3.21,-1.41,0.00,0.00,3.21,1.41,0.00,11.22,4.92,10.30,7.56,0.00,0.33,1.47,17.02,1100,1100,1100,1100,1022,1500,1506,11749,816
334542,9,-1.41,-3.02,-0.45,0.103,-0.031,0.811,-2.93,-0.56,0.00,0.00,2.93,0.56,0.00,10.25,1.95,11.66,4.97,0.00,1.59,0.83,38.95,1100,1100,1100,1100,1022,1500,1506,11757,816
334554,9,-1.34,-2.29,0.04,0.127,-0.079,0.921,-3.12,1.80,0.00,0.00,3.12,-1.80,0.00,10.91,-6.30,12.25,-4.01,0.00,1.31,-0.19,28.82,1100,1100,1100,1100,1022,1500,1506,11749,816
334566,9,-0.48,-0.19,0.41,0.082,-0.025,0.799,-2.88,2.70,0.00,0.00,2.88,-2.70,0.00,10.07,-9.45,10.55,-9.26,0.00,0.49,-1.12,18.16,1100,1100,1100,1100,1022,1500,1506,11757,816
334579,9,-0.96,0.42,0.05,0.033,-0.042,0.907,-2.83,3.09,0.00,0.00,2.83,-3.09,0.00,9.89,-10.83,10.85,-11.25,0.00,0.87,-1.34,-0.86,1100,1100,1100,1100,1022,1500,1506,11766,816
334591,9,2.12,0.56,0.52,0.077,-0.009,0.889,-2.81,2.41,0.00,0.00,2.81,-2.41,0.00,9.85,-8.45,7.74,-9.01,0.00,-0.53,-0.70,20.97,1100,1100,1100,1100,1022,1500,1506,11757,816
334602,9,2.03,0.24,0.02,-0.008,-0.052,0.735,-3.20,1.34,0.00,0.00,3.20,-1.34,0.00,11.21,-4.70,9.18,-4.94,0.00,-0.47,-0.04,30.55,1100,1100,1100,1100,1022,1500,1506,11757,816
334614,9,-0.10,-1.72,-0.34,-0.055,-0.031,1.027,-2.76,0.89,0.00,0.00,2.76,-0.89,0.00,9.64,-3.13,9.75,-1.41,0.00,0.44,0.96,38.07,1100,1100,1100,1100,1022,1500,1506,11753,816
334626,9,1.11,-0.48,0.15,0.021,-0.138,0.896,-2.68,0.94,0.00,0.00,2.68,-0.94,0.00,9.37,-3.29,8.26,-2.81,0.00,-0.23,0.50,25.10,1100,1100,1100,1100,1022,1500,1506,11757,816
334639,9,-0.85,3.67,-0.50,-0.037,-0.192,0.975,-2.10,1.45,0.00,0.00,2.10,-1.45,0.00,7.35,-5.08,8.20,-8.75,0.00,0.54,-1.67,7.42,1100,1100,1100,1100,1022,1500,1506,11736,816
334651,9,-1.84,1.00,-0.26,0.077,-0.075,0.940,-1.99,1.84,0.00,0.00,1.99,-1.84,0.00,6.97,-6.44,8.81,-7.43,0.00,1.33,-0.26,46.00,1100,1100,1100,1100,1023,1500,1506,11736,816
334662,9,0.64,4.58,0.64,-0.069,-0.128,0.880,-2.59,0.66,0.00,0.00,2.59,-0.66,0.00,9.07,-2.30,8.43,-6.88,0.00,0.14,-1.61,27.87,1100,1100,1100,1100,1023,1500,1506,11741,816
334674,9,-2.76,4.57,-0.33,-0.047,-0.009,0.940,-2.20,-0.07,0.00,0.00,2.20,0.07,0.00,7.70,0.24,10.46,-4.33,0.00,1.68,-1.40,34.74,1100,1100,1100,1100,1023,1500,1506,11753,816
334686,9,2.58,-3.36,0.52,0.018,0.068,0.857,-2.84,-0.51,0.00,0.00,2.84,0.51,0.00,9.92,1.77,7.34,5.13,0.00,-0.66,2.20,16.90,1100,1100,1100,1100,1023,1500,1506,11749,816
334699,9,1.10,-4.51,-0.50,0.087,-0.045,0.793,-2.76,0.52,0.00,0.00,2.76,-0.52,0.00,9.65,-1.82,8.55,2.69,0.00,-0.23,2.08,5.89,1100,1100,1100,1100,1023,1500,1506,11741,816
334711,9,-0.50,-4.93,0.08,0.235,0.056,0.796,-2.18,2.39,0.00,0.00,2.18,-2.39,0.00,7.65,-8.38,8.15,-3.45,0.00,0.96,0.92,-1.33,1100,1100,1100,1100,1023,1500,1506,11745,816
334722,9,5.91,-6.23,0.93,0.140,-0.184,0.780,-3.22,4.14,0.00,0.00,3.22,-4.14,0.00,11.25,-14.48,5.35,-8.26,0.00,-2.02,1.22,-17.77,1100,1100,1100,1100,1023,1500,1506,11741,816
334734,9,-1.90,4.30,-0.15,0.002,-0.162,0.891,-2.59,4.44,0.00,0.00,2.59,-4.44,0.00,9.05,-15.55,10.95,-19.84,0.00,1.41,-3.53,7.38,1100,1100,1100,1100,1023,1500,1506,11728,816
334746,9,-0.33,1.17,0.10,-0.071,-0.085,1.022,-3.07,3.36,0.00,0.00,3.07,-3.36,0.00,10.74,-11.76,11.07,-12.93,0.00,0.79,-1.15,1.37,1100,1100,1100,1100,1023,1500,1506,11724,816
334759,9,-1.18,4.79,-0.40,-0.049,-0.163,0.964,-3.20,2.26,0.00,0.00,3.20,-2.26,0.00,11.19,-7.92,12.37,-12.71,0.00,0.49,-1.53,40.98,1100,1100,1100,1100,1023,1500,1506,11728,862
334771,9,-6.73,2.77,-0.16,0.054,0.029,0.884,-2.51,2.22,0.00,0.00,2.51,-2.22,0.00,8.78,-7.78,15.51,-10.55,0.00,3.29,-0.94,0.88,1100,1100,1100,1100,1023,1500,1506,11732,862
334782,9,3.53,-3.85,0.50,0.109,-0.044,0.848,-3.22,2.27,0.00,0.00,3.22,-2.27,0.00,11.28,-7.96,7.75,-4.11,0.00,-1.34,1.90,-10.62,1100,1100,1100,1100,1023,1500,1506,11741,862
334794,9,1.07,1.83,0.34,0.001,-0.062,0.857,-2.97,2.61,0.00,0.00,2.97,-2.61,0.00,10.40,-9.13,9.33,-10.95,0.00,-0.29,-1.54,-4.29,1100,1100,1100,1100,1023,1500,1506,11736,862
334806,9,-2.26,1.45,0.08,-0.040,0.029,0.900,-2.65,2.01,0.00,0.00,2.65,-2.01,0.00,9.29,-7.03,11.54,-8.48,0.00,1.82,-1.31,0.15,1100,1100,1100,1100,1023,1500,1506,11745,862
334819,9,4.37,-0.33,-0.76,0.007,-0.043,0.926,-3.07,1.08,0.00,0.00,3.07,-1.08,0.00,10.73,-3.77,6.36,-3.44,0.00,-1.50,0.59,11.16,1100,1100,1100,1100,1023,1500,1506,11736,862
334831,9,-2.00,0.26,-0.28,0.061,-0.054,0.739,-2.71,1.66,0.00,0.00,2.71,-1.66,0.00,9.48,-5.80,11.47,-6.06,0.00,1.37,-0.17,-1.39,1100,1100,1100,1100,1023,1500,1506,11741,862
334843,9,1.17,-4.51,-0.15,0.140,0.016,0.869,-2.54,2.48,0.00,0.00,2.54,-2.48,0.00,8.88,-8.68,7.71,-4.17,0.00,0.07,1.61,-1.48,1100,1100,1100,1100,1023,1500,1506,11741,862
334854,9,0.61,-0.83,0.54,0.062,-0.187,0.882,-2.99,3.12,0.00,0.00,2.99,-3.12,0.00,10.46,-10.91,9.85,-10.09,0.00,-0.17,-0.41,21.83,1100,1100,1100,1100,1023,1500,1506,11741,859
334866,9,-2.25,0.21,0.59,0.025,-0.104,0.796,-2.59,3.46,0.00,0.00,2.59,-3.46,0.00,9.07,-12.11,11.31,-12.33,0.00,1.35,-1.06,22.68,1100,1100,1100,1100,1024,1500,1506,11753,859
334879,9,3.75,-3.47,-0.55,-0.003,-0.072,1.024,-3.13,2.80,0.00,0.00,3.13,-2.80,0.00,10.95,-9.81,7.21,-6.34,0.00,-1.34,0.98,60.64,1100,1100,1100,1100,1024,1500,1506,11757,859
334891,9,-2.72,3.69,0.06,-0.078,-0.177,0.958,-3.21,2.08,0.00,0.00,3.21,-2.08,0.00,11.23,-7.26,13.95,-10.95,0.00,1.62,-2.04,-1.16,1100,1100,1100,1100,1023,1500,1506,11749,859
334902,9,-2.44,-0.26,-0.12,0.070,-0.062,0.802,-3.03,1.97,0.00,0.00,3.03,-1.97,0.00,10.62,-6.88,13.06,-6.62,0.00,1.72,-0.48,-0.14,1100,1100,1100,1100,1023,1500,1506,11741,859
334914,9,2.12,-2.00,0.55,0.072,0.007,0.907,-3.05,1.57,0.00,0.00,3.05,-1.57,0.00,10.68,-5.50,8.56,-3.50,0.00,-0.50,0.33,-7.23,1100,1100,1100,1100,1024,1500,1506,11749,859
334926,9,-0.13,-1.88,1.50,0.056,0.018,0.872,-2.62,2.72,0.00,0.00,2.62,-2.72,0.00,9.16,-9.51,9.29,-7.64,0.00,0.53,-0.35,-24.47,1100,1100,1100,1100,1024,1500,1506,11749,859
334939,9,-0.43,-0.08,-0.58,0.096,0.008,0.808,-2.46,3.28,0.00,0.00,2.46,-3.28,0.00,8.62,-11.48,9.06,-11.41,0.00,0.62,-0.92,48.42,1100,1100,1100,1100,1024,1500,1506,11736,859
334951,9,1.83,0.90,-0.12,-0.016,-0.121,0.863,-3.07,2.45,0.00,0.00,3.07,-2.45,0.00,10.74,-8.58,8.91,-9.48,0.00,-0.33,-0.81,4.34,1100,1100,1100,1100,1024,1496,1506,11736,866
334962,9,0.12,2.23,-0.45,-0.044,-0.105,0.883,-2.90,1.41,0.00,0.00,2.90,-1.41,0.00,10.16,-4.92,10.05,-7.15,0.00,0.39,-0.87,5.59,1100,1100,1100,1100,1024,1496,1506,11736,866
334974,9,-0.39,-1.62,-0.37,-0.000,0.019,0.859,-2.53,0.66,0.00,0.00,2.53,-0.66,0.00,8.85,-2.32,9.25,-0.70,0.00,0.57,1.01,7.87,1100,1100,1100,1100,1024,1500,1506,11732,866
334986,9,3.12,-6.08,0.76,0.121,-0.069,0.816,-2.86,1.87,0.00,0.00,2.86,-1.87,0.00,10.01,-6.54,6.89,-0.46,0.00,-1.00,2.28,-13.53,1100,1100,1100,1100,1024,1500,1506,11724,866
334999,9,-0.74,-1.53,-0.72,0.150,-0.164,0.873,-2.64,3.19,0.00,0.00,2.64,-3.19,0.00,9.23,-11.17,9.97,-9.64,0.00,0.85,-0.58,59.72,1100,1100,1100,1100,1024,1500,1506,11728,866
335011,9,-0.83,0.32,0.00,-0.018,-0.163,0.923,-2.94,3.28,0.00,0.00,2.94,-3.28,0.00,10.30,-11.48,11.13,-11.79,0.00,1.07,-1.30,-0.22,1100,1100,1100,1100,1025,1500,1506,11732,866
335022,9,0.87,1.79,0.21,-0.025,-0.103,0.937,-3.20,2.10,0.00,0.00,3.20,-2.10,0.00,11.20,-7.36,10.32,-9.15,0.00,-0.05,-1.14,-4.22,1100,1100,1100,1100,1025,1500,1506,11720,866
335034,9,-4.73,-0.42,-0.08,0.125,-0.059,0.879,-2.90,2.77,0.00,0.00,2.90,-2.77,0.00,10.17,-9.70,14.89,-9.28,0.00,2.64,-0.69,3.78,1100,1100,1100,1100,1025,1500,1506,11716,866
335047,9,0.23,-4.96,0.40,0.209,0.007,0.845,-3.04,4.28,0.00,0.00,3.04,-4.28,0.00,10.63,-14.99,10.40,-10.03,0.00,0.24,1.05,-6.58,1100,1100,1100,1100,1035,1500,1506,11720,866
335059,9,0.00,-1.30,0.62,0.118,-0.083,0.729,-3.41,5.95,0.00,0.00,3.41,-5.95,0.00,11.94,-20.84,11.94,-19.53,0.00,-0.19,-0.90,26.94,1100,1100,1100,1100,1035,1500,1506,11732,863
335071,9,-3.86,2.26,0.22,0.065,0.026,0.857,-2.65,6.16,0.00,0.00,2.65,-6.16,0.00,9.27,-21.57,13.14,-23.83,0.00,1.96,-2.57,-2.03,1100,1100,1100,1100,1038,1500,1506,11724,863
335082,9,6.21,-2.65,0.18,-0.025,-0.056,0.907,-3.30,3.93,0.00,0.00,3.30,-3.93,0.00,11.55,-13.74,5.34,-11.10,0.00,-2.45,0.70,-1.76,1100,1100,1100,1100,1038,1500,1506,11728,863
335094,9,2.08,2.70,-0.18,-0.207,-0.130,0.943,-3.31,1.22,0.00,0.00,3.31,-1.22,0.00,11.57,-4.27,9.49,-6.97,0.00,-0.33,-1.26,3.87,1100,1100,1100,1100,1039,1500,1506,11741,863
335106,9,2.21,-5.82,-0.45,0.080,0.052,0.809,-2.65,0.95,0.00,0.00,2.65,-0.95,0.00,9.26,-3.33,7.05,2.49,0.00,0.37,2.24,8.17,1100,1100,1100,1100,1039,1500,1506,11741,863
335119,9,3.59,-4.36,0.76,0.037,-0.164,0.870,-3.45,1.18,0.00,0.00,3.45,-1.18,0.00,12.07,-4.13,8.47,0.23,0.00,-0.71,1.18,12.98,1100,1100,1100,1100,1039,1500,1506,11745,863
335131,9,-4.75,2.64,0.18,0.088,-0.148,0.855,-2.27,2.75,0.00,0.00,2.27,-2.75,0.00,7.95,-9.62,12.71,-12.26,0.00,2.76,-2.40,-0.14,1100,1100,1100,1100,1039,1500,1506,11741,863
335142,9,0.31,0.33,-0.48,0.094,-0.053,0.962,-2.40,3.09,0.00,0.00,2.40,-3.09,0.00,8.40,-10.83,8.09,-11.17,0.00,0.28,-0.75,12.44,1100,1100,1100,1100,1039,1500,1506,11741,863
335154,9,-1.71,4.86,-0.68,-0.071,-0.163,0.993,-2.48,2.14,0.00,0.00,2.48,-2.14,0.00,8.66,-7.48,10.37,-12.33,0.00,0.74,-2.18,10.30,1100,1100,1100,1100,1040,1500,1506,11728,940
335166,9,-4.59,0.88,-0.45,0.034,0.012,0.842,-2.06,1.66,0.00,0.00,2.06,-1.66,0.00,7.20,-5.80,11.79,-6.68,0.00,2.34,-0.48,3.75,1100,1100,1100,1100,1043,1500,1506,11724,940
335179,9,4.16,-4.64,0.78,0.052,-0.055,0.887,-3.20,1.61,0.00,0.00,3.20,-1.61,0.00,11.20,-5.65,7.03,-1.01,0.00,-1.47,1.82,-17.25,1100,1100,1100,1100,1043,1500,1506,11724,940
335191,9,-2.86,3.01,0.50,0.033,-0.119,0.909,-3.18,2.43,0.00,0.00,3.18,-2.43,0.00,11.13,-8.52,13.99,-11.53,0.00,1.64,-2.29,-8.46,1100,1100,1100,1100,1043,1500,1506,11724,940
335202,9,-2.57,0.66,-0.17,0.165,0.026,0.722,-3.06,3.21,0.00,0.00,3.06,-3.21,0.00,10.72,-11.23,13.30,-11.89,0.00,1.67,-1.12,5.64,1100,1100,1100,1100,1043,1500,1506,11720,940
335214,9,1.94,-0.46,-0.30,0.086,-0.042,0.846,-3.07,3.29,0.00,0.00,3.07,-3.29,0.00,10.74,-11.50,8.80,-11.04,0.00,-0.85,-0.01,5.04,1100,1100,1100,1100,1044,1500,1506,11724,940
335226,9,0.57,-1.65,-0.00,0.076,0.074,0.807,-1.82,3.59,0.00,0.00,1.82,-3.59,0.00,6.38,-12.56,5.81,-10.91,0.00,-0.03,-0.05,-0.79,1100,1100,1100,1100,1044,1500,1506,11724,940
335239,9,4.24,-8.49,0.58,0.123,-0.053,0.859,-2.44,3.90,0.00,0.00,2.44,-3.90,0.00,8.55,-13.66,4.31,-5.17,0.00,-1.27,2.57,-10.76,1100,1100,1100,1100,1044,1500,1506,11716,940
335251,9,1.49,-2.91,0.02,0.106,-0.245,0.822,-3.38,4.56,0.00,0.00,3.38,-4.56,0.00,11.84,-15.95,10.36,-13.05,0.00,0.03,-0.39,3.87,1100,1100,1100,1100,1044,1500,1506,11724,936
335262,9,-2.48,1.34,-0.37,0.054,-0.164,0.809,-3.75,4.88,0.00,0.00,3.75,-4.88,0.00,13.14,-17.08,15.62,-18.42,0.00,2.09,-2.50,8.31,1100,1100,1100,1100,1044,1500,1506,11724,936
335274,9,-0.72,3.40,-1.48,0.022,-0.028,1.018,-3.43,3.94,0.00,0.00,3.43,-3.94,0.00,12.02,-13.80,12.74,-17.19,0.00,0.86,-2.18,25.70,1100,1100,1100,1100,1044,1500,1506,11728,936
335286,9,-1.44,3.55,0.45,-0.018,-0.009,0.927,-3.02,2.52,0.00,0.00,3.02,-2.52,0.00,10.55,-8.83,12.00,-12.37,0.00,0.90,-1.40,-12.61,1100,1100,1100,1100,1044,1500,1506,11741,936
335299,9,-0.71,-1.95,0.90,0.065,-0.039,0.942,-2.64,2.49,0.00,0.00,2.64,-2.49,0.00,9.25,-8.73,9.96,-6.77,0.00,0.72,0.95,-19.00,1100,1100,1100,1100,1044,1500,1506,11766,936
335311,9,1.70,-3.30,0.25,0.070,-0.038,0.907,-2.55,2.51,0.00,0.00,2.55,-2.51,0.00,8.91,-8.79,7.22,-5.49,0.00,-0.20,0.63,-0.73,1100,1100,1100,1100,1044,1500,1506,11749,936
335322,9,0.27,-2.30,0.45,0.027,-0.064,0.732,-3.04,2.73,0.00,0.00,3.04,-2.73,0.00,10.63,-9.55,10.37,-7.26,0.00,0.46,-0.45,-7.70,1100,1100,1100,1100,1044,1500,1506,11745,936
335334,9,-1.98,-0.65,-0.88,0.083,-0.004,0.870,-2.88,2.92,0.00,0.00,2.88,-2.92,0.00,10.08,-10.21,12.06,-9.57,0.00,1.39,-0.99,16.99,1100,1100,1100,1100,1044,1500,1506,11741,936
335347,9,0.08,-0.64,0.47,0.049,0.013,0.843,-2.94,2.94,0.00,0.00,2.94,-2.94,0.00,10.29,-10.29,10.22,-9.65,0.00,0.17,-0.47,-8.33,1100,1100,1100,1100,1048,1500,1506,11741,936
335359,9,0.67,1.11,0.37,-0.018,-0.066,0.853,-2.72,2.11,0.00,0.00,2.72,-2.11,0.00,9.51,-7.39,8.83,-8.51,0.00,-0.54,-0.60,-6.78,1100,1100,1100,1100,1048,1500,1506,11745,819
335371,9,0.25,-3.42,-0.09,0.081,-0.081,0.909,-2.58,2.01,0.00,0.00,2.58,-2.01,0.00,9.04,-7.05,8.79,-3.63,0.00,-0.01,1.51,5.75,1100,1100,1100,1100,1048,1500,1506,11732,819
335382,9,4.38,-3.23,0.33,0.052,-0.190,0.878,-3.17,2.57,0.00,0.00,3.17,-2.57,0.00,11.08,-8.99,6.70,-5.76,0.00,-1.65,1.01,-5.34,1100,1100,1100,1100,1048,1500,1506,11741,819
335394,9,-0.23,2.52,-0.82,0.009,-0.168,0.913,-3.00,2.93,0.00,0.00,3.00,-2.93,0.00,10.50,-10.27,10.73,-12.79,0.00,0.73,-2.19,16.27,1100,1100,1100,1100,1067,1500,1506,11736,819
335406,9,0.48,-1.80,0.12,0.016,-0.037,0.954,-3.08,2.57,0.00,0.00,3.08,-2.57,0.00,10.79,-8.99,10.31,-7.20,0.00,0.86,0.19,-0.28,1100,1100,1100,1100,1067,1501,1506,11741,819
335419,9,1.42,2.63,0.13,-0.102,-0.147,0.966,-3.39,0.63,0.00,0.00,3.39,-0.63,0.00,11.88,-2.22,10.46,-4.85,0.00,0.02,-0.89,42.31,1100,1100,1100,1100,1067,1501,1506,11753,819
335431,9,-4.25,3.84,-0.19,-0.008,-0.083,0.923,-2.32,0.11,0.00,0.00,2.32,-0.11,0.00,8.12,-0.40,12.37,-4.24,0.00,2.77,-1.53,32.75,1100,1100,1100,1100,1076,1500,1506,11749,819
335442,9,3.02,-1.34,0.06,0.084,0.040,0.903,-1.97,0.30,0.00,0.00,1.97,-0.30,0.00,6.91,-1.06,3.90,0.27,0.00,-0.71,0.87,25.27,1100,1100,1100,1100,1076,1500,1506,11745,819
335455,9,-1.19,4.03,0.02,-0.056,0.022,0.834,-1.49,0.60,0.00,0.00,1.49,-0.60,0.00,5.23,-2.09,6.42,-6.12,0.00,0.63,-1.89,-0.71,1100,1100,1100,1100,1080,1500,1506,11736,816
335466,9,-3.31,0.04,0.33,0.084,0.082,0.842,-1.29,1.36,0.00,0.00,1.29,-1.36,0.00,4.53,-4.74,7.84,-4.79,0.00,1.80,-0.01,-6.67,1100,1100,1100,1100,1080,1500,1506,11732,816
335479,9,4.75,-1.21,-0.79,0.093,-0.103,0.796,-2.60,1.40,0.00,0.00,2.60,-1.40,0.00,9.11,-4.91,4.36,-3.70,0.00,-2.12,1.21,44.85,1100,1100,1100,1100,1080,1500,1506,11741,816
335491,9,-1.17,4.54,-0.12,-0.138,-0.142,0.934,-2.71,0.09,0.00,0.00,2.71,-0.09,0.00,9.48,-0.30,10.65,-4.85,0.00,0.69,-1.59,-1.36,1100,1100,1100,1100,1081,1500,1506,11741,816
335502,9,2.44,-3.86,-0.16,0.066,-0.013,0.884,-2.67,-0.01,0.00,0.00,2.67,0.01,0.00,9.36,0.04,6.92,3.90,0.00,-0.44,2.29,-0.50,1100,1100,1100,1100,1081,1500,1506,11741,816
335514,9,3.34,-3.03,0.11,0.075,-0.170,0.851,-3.26,1.21,0.00,0.00,3.26,-1.21,0.00,11.41,-4.23,8.06,-1.20,0.00,-0.96,1.03,-1.83,1100,1100,1100,1100,1081,1500,1506,11741,816
335526,9,-2.56,-2.69,0.20,0.192,-0.043,0.791,-2.25,3.88,0.00,0.00,2.25,-3.88,0.00,7.88,-13.57,10.44,-10.88,0.00,1.97,-0.24,-3.86,1100,1100,1100,1100,1092,1500,1506,11741,816
335539,9,1.66,-4.20,-0.46,0.109,-0.073,0.893,-2.81,4.66,0.00,0.00,2.81,-4.66,0.00,9.82,-16.31,8.17,-12.11,0.00,-0.25,0.49,9.94,1100,1100,1100,1100,1092,1500,1506,11741,816
335551,9,-3.94,4.38,0.57,-0.033,-0.197,0.913,-2.56,4.83,0.00,0.00,2.56,-4.83,0.00,8.94,-16.92,12.88,-21.30,0.00,1.93,-3.25,33.08,1100,1100,1100,1100,1091,1500,1506,11732,816
335563,9,-2.21,0.90,0.04,0.040,-0.094,0.899,-2.81,4.45,0.00,0.00,2.81,-4.45,0.00,9.85,-15.58,12.06,-16.48,0.00,1.37,-1.52,43.40,1100,1100,1100,1100,1091,1500,1506,11736,816
335574,9,1.58,-2.01,0.14,0.054,-0.030,0.888,-3.36,3.92,0.00,0.00,3.36,-3.92,0.00,11.75,-13.72,10.18,-11.71,0.00,-0.45,0.13,2.01,1100,1100,1100,1100,1095,1500,1506,11732,816
335586,9,-3.16,0.82,1.34,0.051,-0.068,0.799,-3.54,4.77,0.00,0.00,3.54,-4.77,0.00,12.40,-16.70,15.56,-17.52,0.00,1.82,-1.57,-20.53,1100,1100,1100,1100,1096,1500,1506,11736,816
335599,9,-0.04,0.22,0.11,0.031,-0.024,0.856,-3.65,3.57,0.00,0.00,3.65,-3.57,0.00,12.76,-12.50,12.80,-12.72,0.00,0.63,-0.85,4.18,1100,1100,1100,1100,1096,1500,1506,11728,816
335611,9,2.86,3.69,0.28,-0.109,-0.058,1.047,-3.65,1.16,0.00,0.00,3.65,-1.16,0.00,12.76,-4.07,9.91,-7.76,0.00,-0.76,-1.36,32.30,1100,1100,1100,1100,1100,1500,1506,11741,816
335622,9,1.88,-1.24,-0.12,-0.010,-0.015,0.742,-3.22,0.35,0.00,0.00,3.22,-0.35,0.00,11.27,-1.21,9.39,0.03,0.00,-0.32,1.21,33.99,1100,1100,1100,1100,1100,1500,1506,11741,816
335634,9,1.62,-6.68,0.05,0.105,-0.013,0.866,-2.98,1.18,0.00,0.00,2.98,-1.18,0.00,10.42,-4.12,8.80,2.56,0.00,-0.00,2.69,1.38,1100,1100,1100,1100,1106,1500,1506,11745,816
335646,9,1.50,-6.39,0.80,0.197,-0.091,0.835,-2.89,3.08,0.00,0.00,2.89,-3.08,0.00,10.13,-10.77,8.63,-4.38,0.00,-0.16,1.59,-9.83,1100,1100,1100,1100,1106,1500,1507,11749,816
335659,9,-1.69,-0.40,-0.22,0.065,-0.177,0.759,-3.29,3.60,0.00,0.00,3.29,-3.60,0.00,11.53,-12.59,13.22,-12.18,0.00,1.08,-1.21,9.61,1100,1100,1100,1100,1106,1500,1507,11736,816
335671,9,-1.01,0.35,-0.28,-0.031,-0.142,1.070,-3.15,3.28,0.00,0.00,3.15,-3.28,0.00,11.04,-11.47,12.05,-11.82,0.00,0.71,-0.94,6.94,1100,1100,1100,1100,1114,1500,1506,11741,816
335682,9,0.55,3.27,0.10,-0.096,-0.149,0.976,-3.34,2.26,0.00,0.00,3.34,-2.26,0.00,11.70,-7.90,11.15,-11.17,0.00,-0.14,-1.73,-5.58,1100,1100,1100,1100,1114,1500,1506,11736,816
335694,9,-3.92,2.31,-0.26,-0.005,-0.100,0.927,-2.82,1.95,0.00,0.00,2.82,-1.95,0.00,9.89,-6.84,13.80,-9.15,0.00,2.12,-1.38,3.51,1100,1100,1100,1100,1115,1500,1506,11736,816
335706,9,-0.56,-2.91,-0.02,0.184,0.027,0.862,-2.62,2.49,0.00,0.00,2.62,-2.49,0.00,9.16,-8.71,9.72,-5.80,0.00,0.86,0.91,3.86,1100,1100,1100,1100,1115,1500,1506,11728,816
335719,9,2.21,0.15,0.51,0.107,-0.002,0.745,-2.64,3.46,0.00,0.00,2.64,-3.46,0.00,9.25,-12.11,7.03,-12.26,0.00,-0.51,-1.03,25.62,1100,1100,1100,1100,1115,1500,1506,11716,816
335731,9,-0.26,1.50,-0.02,0.033,0.075,0.908,-1.87,3.37,0.00,0.00,1.87,-3.37,0.00,6.54,-11.81,6.80,-13.30,0.00,0.80,-1.63,-1.92,1100,1100,1100,1100,1121,1500,1506,11724,816
335742,9,5.24,0.83,0.39,-0.038,0.004,0.908,-2.41,1.76,0.00,0.00,2.41,-1.76,0.00,8.42,-6.17,3.18,-7.00,0.00,-1.75,-0.11,-9.83,1100,1100,1100,1100,1121,1500,1506,11732,816
335754,9,-1.58,4.85,0.13,-0.147,-0.133,0.910,-2.35,0.32,0.00,0.00,2.35,-0.32,0.00,8.23,-1.11,9.81,-5.96,0.00,1.09,-1.34,-1.51,1100,1100,1100,1100,1121,1500,1506,11720,816
335767,9,-0.68,-2.54,0.02,0.122,-0.008,0.854,-2.05,0.28,0.00,0.00,2.05,-0.28,0.00,7.17,-0.99,7.86,1.55,0.00,0.99,1.90,4.45,1100,1100,1100,1100,1127,1500,1506,11724,816
335779,9,4.24,-1.88,-0.11,-0.037,-0.200,0.919,-3.07,-0.29,0.00,0.00,3.07,0.29,0.00,10.74,1.00,6.50,2.88,0.00,-1.67,1.55,4.36,1100,1100,1100,1100,1127,1500,1506,11720,816
335791,9,-3.43,3.96,-0.41,0.004,-0.124,0.928,-2.33,0.96,0.00,0.00,2.33,-0.96,0.00,8.17,-3.38,11.60,-7.34,0.00,1.86,-1.95,6.04,1100,1100,1100,1100,1134,1500,1506,11720,816
335802,9,0.20,-1.97,-0.22,0.086,-0.058,0.907,-2.68,1.78,0.00,0.00,2.68,-1.78,0.00,9.37,-6.22,9.17,-4.25,0.00,0.49,0.61,0.11,1100,1100,1100,1100,1134,1500,1506,11724,816
335814,9,-0.24,3.87,0.37,-0.046,-0.143,0.988,-2.72,1.13,0.00,0.00,2.72,-1.13,0.00,9.53,-3.96,9.77,-7.83,0.00,0.28,-1.66,-7.91,1100,1100,1100,1100,1134,1500,1506,11724,816
335826,9,-4.02,-0.10,0.19,0.044,0.054,0.854,-2.01,1.11,0.00,0.00,2.01,-1.11,0.00,7.04,-3.89,11.07,-3.79,0.00,2.43,-0.09,-0.85,1100,1100,1100,1100,1134,1500,1506,11720,816
335839,9,3.97,-2.94,0.16,0.051,-0.034,0.922,-2.73,0.63,0.00,0.00,2.73,-0.63,0.00,9.55,-2.19,5.58,0.75,0.00,-1.21,1.32,-2.36,1100,1100,1100,1100,1134,1500,1506,11732,816
335851,9,-1.54,4.28,-0.29,0.051,-0.104,0.784,-2.33,1.55,0.00,0.00,2.33,-1.55,0.00,8.16,-5.42,9.70,-9.70,0.00,1.06,-2.48,3.04,1100,1100,1100,1100,1134,1500,1506,11724,816
335862,9,0.31,-2.44,-0.02,0.191,0.077,0.746,-1.90,3.09,0.00,0.00,1.90,-3.09,0.00,6.64,-10.80,6.32,-8.36,0.00,0.51,0.17,-3.77,1100,1100,1100,1100,1134,1500,1506,11732,816
335874,9,1.60,-1.37,-0.23,0.084,-0.021,0.917,-1.99,3.74,0.00,0.00,1.99,-3.74,0.00,6.97,-13.08,5.37,-11.72,0.00,-0.72,0.17,30.96,1100,1100,1100,1100,1134,1500,1506,11724,816
335886,9,-2.50,-1.72,0.58,0.062,0.023,0.706,-1.51,4.02,0.00,0.00,1.51,-4.02,0.00,5.29,-14.06,7.79,-12.34,0.00,1.17,-0.05,17.17,1100,1100,1100,1100,1134,1500,1506,11736,816
335899,9,3.96,-5.49,-0.06,0.051,-0.107,0.930,-2.17,3.25,0.00,0.00,2.17,-3.25,0.00,7.60,-11.38,3.64,-5.89,0.00,-1.54,1.69,2.42,1100,1100,1100,1100,1134,1500,1506,11728,816
335911,9,1.34,-2.31,-0.15,0.106,-0.179,0.885,-2.60,3.61,0.00,0.00,2.60,-3.61,0.00,9.08,-12.62,7.75,-10.31,0.00,-0.34,-0.03,45.45,1100,1100,1100,1100,1135,1500,1506,11732,816
335922,9,-2.79,0.60,-0.28,0.037,-0.150,0.785,-2.96,4.31,0.00,0.00,2.96,-4.31,0.00,10.35,-15.09,13.14,-15.69,0.00,1.75,-1.79,45.76,1100,1100,1100,1100,1135,1500,1506,11720,816
335934,9,-0.46,0.19,-0.23,0.064,-0.071,0.977,-2.99,4.02,0.00,0.00,2.99,-4.02,0.00,10.47,-14.07,10.93,-14.26,0.00,0.54,-1.02,7.69,1100,1100,1100,1100,1140,1500,1506,11716,816
335946,9,0.77,0.11,0.94,-0.098,-0.087,0.969,-3.12,2.46,0.00,0.00,3.12,-2.46,0.00,10.93,-8.62,10.16,-8.73,0.00,0.03,-0.60,-15.50,1100,1100,1100,1100,1140,1500,1506,11716,816
335959,9,-2.07,0.13,0.04,-0.008,-0.092,1.016,-2.87,1.81,0.00,0.00,2.87,-1.81,0.00,10.06,-6.34,12.13,-6.47,0.00,1.64,-0.61,1.16,1100,1100,1100,1100,1140,1500,1506,11716,816
335971,9,0.16,0.39,0.34,0.002,-0.009,0.944,-2.71,0.63,0.00,0.00,2.71,-0.63,0.00,9.47,-2.19,9.31,-2.58,0.00,0.69,-0.71,-4.03,1100,1100,1100,1100,1140,1500,1506,11703,816
335982,9,1.69,0.81,0.71,0.053,-0.002,0.715,-2.62,0.87,0.00,0.00,2.62,-0.87,0.00,9.15,-3.06,7.46,-3.87,0.00,-0.28,-0.89,-11.73,1100,1100,1100,1100,1140,1500,1506,11707,816
335994,9,-3.09,1.77,-0.20,0.078,0.073,0.913,-2.22,1.16,0.00,0.00,2.22,-1.16,0.00,7.76,-4.07,10.86,-5.83,0.00,1.89,-1.12,36.82,1100,1100,1100,1100,1144,1500,1506,11720,816
336006,9,1.33,-0.57,0.50,0.007,0.018,0.877,-2.81,0.62,0.00,0.00,2.81,-0.62,0.00,9.83,-2.18,8.50,-1.62,0.00,-0.38,0.80,21.45,1100,1100,1100,1100,1144,1500,1506,11711,816
336019,9,1.75,1.15,-0.07,-0.057,-0.069,0.812,-2.66,-0.15,0.00,0.00,2.66,0.15,0.00,9.31,0.54,7.56,-0.61,0.00,-1.02,0.23,0.52,1100,1100,1100,1100,1144,1500,1506,11711,816
336031,9,0.82,-5.77,-0.32,0.135,-0.038,0.819,-2.57,0.91,0.00,0.00,2.57,-0.91,0.00,8.99,-3.19,8.17,2.58,0.00,0.00,2.38,5.22,1100,1100,1100,1100,1149,1500,1506,11720,816
336042,9,3.58,-4.73,0.05,0.103,-0.244,0.855,-3.49,2.10,0.00,0.00,3.49,-2.10,0.00,12.23,-7.37,8.65,-2.63,0.00,-1.10,1.21,-1.56,1100,1100,1100,1100,1149,1500,1506,11711,816
336054,9,-2.47,3.99,-0.20,0.015,-0.165,0.889,-3.24,2.79,0.00,0.00,3.24,-2.79,0.00,11.33,-9.77,13.80,-13.76,0.00,1.67,-3.23,5.32,1100,1100,1100,1100,1149,1500,1506,11716,816
336067,9,1.80,-2.82,-0.21,0.066,0.025,0.927,-3.08,3.00,0.00,0.00,3.08,-3.00,0.00,10.79,-10.50,8.98,-7.68,0.00,0.16,0.29,4.42,1100,1100,1100,1100,1153,1500,1506,11716,816
336079,9,2.17,2.83,0.15,-0.090,-0.120,1.019,-3.34,1.42,0.00,0.00,3.34,-1.42,0.00,11.70,-4.98,9.52,-7.81,0.00,-0.37,-1.37,-4.62,1100,1100,1100,1100,1153,1500,1506,11720,816
336091,9,-4.60,2.44,0.27,-0.016,-0.077,0.881,-2.76,0.92,0.00,0.00,2.76,-0.92,0.00,9.64,-3.22,14.25,-5.66,0.00,3.00,-1.32,-5.75,1100,1100,1100,1100,1161,1500,1506,11703,816
336102,9,2.96,-3.07,0.58,0.162,-0.014,0.872,-2.82,1.24,0.00,0.00,2.82,-1.24,0.00,9.87,-4.34,6.91,-1.26,0.00,-0.66,1.32,-6.99,1100,1100,1100,1100,1161,1500,1506,11703,816
336114,9,-2.11,1.07,0.66,0.053,-0.060,0.805,-2.69,2.22,0.00,0.00,2.69,-2.22,0.00,9.40,-7.78,11.51,-8.84,0.00,1.23,-1.24,-6.38,1100,1100,1100,1100,1161,1500,1506,11674,816
336126,9,-2.36,-2.18,-0.40,0.068,0.023,0.792,-2.63,2.89,0.00,0.00,2.63,-2.89,0.00,9.22,-10.10,11.58,-7.93,0.00,1.60,0.14,10.61,1100,1100,1100,1100,1163,1500,1506,11674,816
336139,9,4.81,-0.71,-0.00,-0.012,-0.037,0.989,-3.35,1.95,0.00,0.00,3.35,-1.95,0.00,11.72,-6.82,6.91,-6.11,0.00,-2.02,0.17,34.08,1100,1100,1100,1100,1163,1500,1506,11653,816
336151,9,-1.78,3.17,0.19,-0.067,-0.054,0.805,-3.09,1.22,0.00,0.00,3.09,-1.22,0.00,10.81,-4.28,12.59,-7.45,0.00,1.15,-1.82,-6.91,1154,1168,1169,1158,1163,1500,1506,11662,816
336162,9,0.57,-2.56,0.45,0.092,0.044,0.823,-2.49,1.45,0.00,0.00,2.49,-1.45,0.00,8.73,-5.09,8.16,-2.53,0.00,0.58,0.88,-7.85,1154,1168,1169,1158,1163,1500,1506,11653,816
336175,9,4.51,-3.09,1.00,0.114,-0.066,0.951,-3.62,2.24,0.00,0.00,3.62,-2.24,0.00,12.68,-7.83,8.17,-4.74,0.00,-1.48,0.94,-13.63,1154,1168,1169,1158,1166,1500,1506,11653,816
336186,9,-4.25,8.99,-0.50,-0.082,-0.018,0.873,-2.90,1.77,0.00,0.00,2.90,-1.77,0.00,10.16,-6.18,14.41,-15.18,0.00,2.46,-5.18,16.31,1154,1168,1169,1158,1167,1500,1506,11666,816
336199,9,-1.34,-0.20,-0.74,-0.029,0.007,0.908,-2.34,0.97,0.00,0.00,2.34,-0.97,0.00,8.19,-3.39,9.52,-3.18,0.00,1.17,-0.18,44.66,1154,1168,1169,1158,1167,1500,1506,11662,816
336211,9,3.49,0.32,-0.54,0.009,-0.003,1.147,-2.91,1.21,0.00,0.00,2.91,-1.21,0.00,10.17,-4.25,6.68,-4.57,0.00,-1.33,-0.03,2.89,1154,1168,1169,1158,1167,1500,1506,11649,816
336222,9,-2.82,4.24,0.23,-0.083,-0.197,1.001,-3.31,0.80,0.00,0.00,3.31,-0.80,0.00,11.57,-2.80,14.39,-7.04,0.00,1.72,-2.10,-7.16,1154,1168,1169,1158,1167,1500,1506,11657,816
336234,9,0.62,-5.46,1.05,0.041,-0.147,0.714,-3.22,1.86,0.00,0.00,3.22,-1.86,0.00,11.26,-6.49,10.64,-1.03,0.00,0.43,1.93,-15.16,1154,1168,1169,1158,1181,1500,1506,11653,816
336246,9,1.38,-8.37,-0.04,0.201,-0.015,0.835,-2.81,2.64,0.00,0.00,2.81,-2.64,0.00,9.83,-9.23,8.46,-0.86,0.00,0.00,3.51,8.79,1154,1168,1169,1158,1183,1500,1506,11637,816
336259,9,1.68,1.74,-0.92,0.094,-0.071,0.826,-3.24,2.78,0.00,0.00,3.24,-2.78,0.00,11.33,-9.72,9.64,-11.46,0.00,-0.03,-2.00,23.85,1185,1179,1185,1180,1183,1500,1506,11632,816
336271,9,1.58,1.39,0.45,-0.083,-0.171,0.851,-2.89,2.25,0.00,0.00,2.89,-2.25,0.00,10.12,-7.88,8.55,-9.27,0.00,-0.07,-1.73,-13.58,1185,1179,1185,1180,1186,1500,1506,11628,816
336282,9,-0.65,-1.29,0.34,-0.033,-0.035,0.929,-2.11,2.60,0.00,0.00,2.11,-2.60,0.00,7.39,-9.08,8.04,-7.79,0.00,0.61,-0.23,-19.26,1185,1179,1185,1180,1186,1500,1506,11620,816
336294,9,-4.38,-1.76,-0.87,0.187,0.088,0.870,-1.74,3.32,0.00,0.00,1.74,-3.32,0.00,6.07,-11.64,10.45,-9.87,0.00,2.55,-0.42,14.84,1185,1179,1185,1180,1188,1500,1506,11616,816
336306,9,3.67,-4.89,0.79,0.119,0.021,0.836,-2.14,2.62,0.00,0.00,2.14,-2.62,0.00,7.48,-9.17,3.81,-4.28,0.00,-1.12,1.26,-6.07,1185,1179,1185,1180,1190,1500,1506,11603,816
336319,9,6.29,2.38,0.93,-0.089,-0.200,0.981,-2.75,1.76,0.00,0.00,2.75,-1.76,0.00,9.62,-6.15,3.32,-8.53,0.00,-2.68,-1.78,-11.32,1185,1179,1185,1180,1190,1500,1506,11595,816
336331,9,-3.54,2.23,-1.48,-0.120,-0.218,0.914,-2.54,2.59,0.00,0.00,2.54,-2.59,0.00,8.89,-9.07,12.43,-11.30,0.00,1.93,-2.21,24.28,1185,1179,1185,1180,1190,1500,1506,11595,816
336342,9,-6.74,-6.03,-2.56,0.115,-0.000,0.772,-1.96,3.28,0.00,0.00,1.96,-3.28,0.00,6.85,-11.48,13.58,-5.45,0.00,4.00,1.72,33.80,1185,1179,1185,1180,1190,1500,1506,11582,816
336354,9,5.97,-4.87,-0.97,0.159,0.120,0.933,-2.47,2.47,0.00,0.00,2.47,-2.47,0.00,8.64,-8.63,2.68,-3.76,0.00,-1.72,1.05,0.30,1192,1192,1188,1187,1190,1500,1506,11607,816
336366,9,9.70,0.91,0.69,0.079,0.048,0.994,-2.62,1.42,0.00,0.00,2.62,-1.42,0.00,9.16,-4.98,-0.54,-5.89,0.00,-4.31,-1.41,-23.16,1192,1192,1188,1187,1190,1500,1506,11616,816
336379,9,1.90,-0.42,-0.41,-0.128,-0.415,0.759,-3.72,0.60,0.00,0.00,3.72,-0.60,0.00,13.01,-2.10,11.11,-1.68,0.00,-1.11,-0.63,-3.77,1192,1192,1188,1187,1190,1500,1506,11603,816
336391,9,-9.84,-5.22,-3.32,0.137,-0.208,0.562,-2.99,1.64,0.00,0.00,2.99,-1.64,0.00,10.46,-5.73,20.31,-0.51,0.00,4.82,2.12,47.55,1192,1192,1188,1187,1189,1500,1506,11603,816
336402,9,-6.88,4.46,-1.94,-0.193,0.070,1.128,-3.05,-0.18,0.00,0.00,3.05,0.18,0.00,10.67,0.63,17.56,-3.83,0.00,4.14,-1.83,12.31,1192,1192,1188,1187,1189,1500,1506,11607,816
336414,9,5.46,0.68,-4.27,0.164,0.061,0.979,-3.18,2.10,0.00,0.00,3.18,-2.10,0.00,11.12,-7.34,5.66,-8.01,0.00,-1.94,-0.29,39.06,1192,1192,1188,1187,1195,1500,1506,11599,816
336426,1,10.05,-1.51,-6.31,0.346,0.024,0.677,-3.69,3.13,0.00,0.00,3.69,-3.13,0.00,12.91,-10.95,2.86,-9.44,0.00,-4.95,0.72,61.82,1192,1192,1188,1187,1202,1500,1506,11591,816
336439,1,0.76,0.91,-6.16,-0.013,-0.421,0.889,-5.11,2.75,0.00,0.00,5.11,-2.75,0.00,17.92,-9.65,17.16,-10.56,0.00,-0.48,-0.75,33.56,1192,1192,1188,1187,1202,1500,1506,11582,816
336451,1,-8.05,-2.33,-7.92,-0.205,-0.234,0.935,-3.92,2.43,0.00,0.00,3.92,-2.43,0.00,13.78,-8.58,21.83,-6.25,0.00,3.91,0.96,56.29,1146,1253,1257,1150,1202,1500,1506,11591,813
336462,1,-9.11,0.20,-5.39,-0.158,0.001,0.870,-3.87,2.68,0.00,0.00,3.87,-2.68,0.00,13.66,-9.46,22.78,-9.66,0.00,5.35,-0.18,7.82,1146,1253,1257,1150,1202,1500,1506,11582,813
336474,1,5.87,2.18,-4.47,0.180,0.250,0.926,-3.08,2.03,0.00,0.00,3.08,-2.03,0.00,10.92,-7.20,5.05,-9.38,0.00,-1.56,-1.46,-4.85,1146,1253,1257,1150,1209,1500,1506,11582,813
336486,1,9.50,-1.52,-3.07,0.283,-0.018,0.920,-4.63,3.45,0.00,0.00,4.63,-3.45,0.00,16.40,-12.22,6.90,-10.70,0.00,-3.32,-1.19,-16.66,1146,1253,1257,1150,1209,1500,1506,11562,813
336499,1,3.97,-6.08,-5.08,0.238,-0.267,0.603,-4.99,3.06,0.00,0.00,4.99,-3.06,0.00,17.72,-10.87,13.75,-4.79,0.00,-1.20,1.94,27.10,1146,1253,1257,1150,1209,1500,1506,11557,813
336511,1,-5.03,-3.81,-4.82,-0.187,-0.235,0.842,-4.02,1.12,0.00,0.00,4.02,-1.12,0.00,14.35,-4.11,19.38,-0.30,0.00,3.27,1.26,24.26,1146,1253,1257,1150,1215,1500,1506,11566,813
336522,1,-5.14,0.20,-5.80,-0.105,-0.054,1.001,-1.65,2.26,0.00,0.00,1.65,-2.26,0.00,6.08,-8.11,11.22,-8.31,0.00,3.38,-0.77,30.09,1146,1253,1257,1150,1215,1500,1506,11557,813
336534,1,0.22,0.85,-4.92,0.175,0.052,0.691,-1.63,4.45,0.00,0.00,1.63,-4.45,0.00,6.00,-15.80,5.78,-16.65,0.00,0.66,-1.21,12.41,1146,1253,1257,1150,1215,1500,1506,11562,813
336546,1,1.88,9.09,-5.55,0.084,-0.003,1.000,-1.78,1.96,0.00,0.00,1.78,-1.96,0.00,6.57,-7.12,4.69,-16.21,0.00,-0.43,-4.76,23.66,1146,1253,1257,1150,1216,1500,1506,11549,813
336559,1,3.45,-12.26,-4.79,0.276,0.040,0.791,-1.98,4.72,0.00,0.00,1.98,-4.72,0.00,7.29,-16.80,3.85,-4.54,0.00,-1.24,4.61,11.88,1204,1225,1223,1209,1216,1500,1506,11549,816
336571,1,2.51,-1.25,-3.99,-0.098,-0.127,1.000,-2.54,3.07,0.00,0.00,2.54,-3.07,0.00,9.28,-11.08,6.77,-9.83,0.00,-0.81,0.19,5.14,1204,1225,1223,1209,1222,1500,1506,11549,816
336583,1,-0.22,-0.83,-1.78,-0.115,-0.214,0.954,-2.57,3.26,0.00,0.00,2.57,-3.26,0.00,9.39,-11.78,9.61,-10.95,0.00,0.50,-0.09,-28.89,1204,1225,1223,1209,1222,1500,1506,11545,816
336594,1,-2.63,2.53,-0.40,-0.059,-0.097,0.814,-2.34,2.63,0.00,0.00,2.34,-2.63,0.00,8.62,-9.59,11.25,-12.12,0.00,1.60,-1.71,4.64,1204,1225,1223,1209,1222,1500,1506,11532,816
336606,1,-3.51,4.66,-0.98,-0.026,-0.023,0.849,-1.77,1.56,0.00,0.00,1.77,-1.56,0.00,6.64,-5.86,10.15,-10.52,0.00,2.02,-2.35,29.33,1204,1225,1223,1209,1225,1500,1506,11528,816
336619,1,-3.64,-3.05,-0.39,0.133,0.009,0.763,-2.12,2.39,0.00,0.00,2.12,-2.39,0.00,7.87,-8.78,11.50,-5.73,0.00,2.19,1.15,-12.53,1204,1225,1223,1209,1225,1500,1506,11528,816
336631,1,-0.38,2.40,-1.20,-0.008,0.099,1.022,-2.03,1.29,0.00,0.00,2.03,-1.29,0.00,7.60,-4.97,7.98,-7.36,0.00,0.49,-1.24,14.51,1204,1225,1223,1209,1224,1500,1506,11524,816
336642,1,3.00,4.73,-1.17,0.052,0.027,0.973,-2.60,0.23,0.00,0.00,2.60,-0.23,0.00,9.59,-1.25,6.59,-5.98,0.00,-1.21,-1.34,12.79,1204,1225,1223,1209,1224,1500,1506,11516,816
336654,1,8.97,-6.26,-1.00,0.169,0.039,0.837,-2.89,1.08,0.00,0.00,2.89,-1.08,0.00,10.65,-4.23,1.68,2.03,0.00,-4.06,3.42,4.72,1212,1233,1235,1214,1224,1500,1506,11532,1029
336666,1,6.31,0.45,-2.76,-0.177,-0.294,1.031,-3.04,-0.28,0.00,0.00,3.04,0.28,0.00,11.18,0.51,4.88,0.06,0.00,-2.70,-0.33,23.60,1212,1233,1235,1214,1224,1500,1506,11545,1029
336679,1,-2.49,-4.18,-4.43,-0.061,-0.353,0.820,-3.23,-0.32,0.00,0.00,3.23,0.32,0.00,11.88,0.65,14.36,4.83,0.00,1.80,2.09,39.20,1212,1233,1235,1214,1224,1500,1506,11549,1029
336691,1,-9.38,-1.04,-6.37,-0.188,-0.161,0.848,-1.83,0.70,0.00,0.00,1.83,-0.70,0.00,7.00,-2.92,16.38,-1.89,0.00,5.34,-0.32,58.78,1212,1233,1235,1214,1226,1500,1506,11553,1029
336702,1,-11.54,7.00,-6.27,-0.237,0.019,0.959,-1.10,0.19,0.00,0.00,1.10,-0.19,0.00,4.47,-1.12,16.01,-8.12,0.00,6.28,-3.84,42.97,1212,1233,1235,1214,1226,1500,1506,11545,1029
336714,1,-8.15,7.73,-6.54,0.087,0.247,0.816,-0.08,1.22,0.00,0.00,0.08,-1.22,0.00,0.90,-4.76,9.05,-12.49,0.00,4.26,-3.40,45.15,1212,1233,1235,1214,1226,1500,1506,11541,1029
336727,1,-0.68,1.18,-6.16,0.360,0.373,0.815,0.22,3.08,0.00,0.00,-0.22,-3.08,0.00,-0.13,-11.29,0.55,-12.47,0.00,0.35,-0.60,32.96,1212,1233,1235,1214,1226,1500,1506,11549,1029
336739,1,6.29,-0.23,-5.11,0.247,0.174,0.863,-1.29,3.06,0.00,0.00,1.29,-3.06,0.00,5.19,-11.21,-1.10,-10.99,0.00,-3.34,-0.31,51.36,1212,1233,1235,1214,1226,1500,1506,11549,1029
336751,1,8.45,3.77,-5.73,0.184,-0.039,0.930,-1.95,1.50,0.00,0.00,1.95,-1.50,0.00,7.49,-5.79,-0.96,-9.56,0.00,-4.96,-0.76,25.33,1194,1261,1256,1191,1226,1500,1506,11549,818
336762,1,3.06,-14.42,-7.18,0.260,-0.326,0.629,-2.87,4.43,0.00,0.00,2.87,-4.43,0.00,10.72,-16.08,7.66,-1.65,0.00,-2.43,7.28,42.51,1194,1261,1256,1191,1226,1500,1506,11553,818
336775,1,-6.23,2.31,-6.66,-0.482,-0.562,1.121,-3.01,1.73,0.00,0.00,3.01,-1.73,0.00,11.24,-6.67,17.47,-8.98,0.00,1.91,-0.37,25.82,1194,1261,1256,1191,1228,1500,1506,11557,818
336787,1,-10.59,6.21,-8.28,-0.128,-0.307,0.883,-1.68,2.23,0.00,0.00,1.68,-2.23,0.00,6.60,-8.45,17.18,-14.65,0.00,4.17,-1.29,51.28,1194,1261,1256,1191,1228,1500,1506,11570,818
336799,1,-11.12,8.91,-6.31,-0.015,-0.157,0.924,-1.01,3.96,0.00,0.00,1.01,-3.96,0.00,4.27,-14.51,15.38,-23.41,0.00,4.64,-3.45,89.58,1194,1261,1256,1191,1228,1500,1506,11578,818
336811,1,-4.95,-0.64,-4.44,0.357,0.156,0.670,-0.91,6.14,0.00,0.00,0.91,-6.14,0.00,3.93,-22.19,8.88,-21.55,0.00,1.80,0.23,-22.53,1194,1261,1256,1191,1234,1500,1506,11562,818
336822,1,-0.24,5.08,-4.26,0.007,0.058,0.996,-2.16,4.09,0.00,0.00,2.16,-4.09,0.00,8.33,-15.06,8.57,-20.14,0.00,-0.11,-3.22,-11.85,1194,1261,1256,1191,1234,1500,1506,11549,818
336834,1,3.34,-4.18,-5.16,0.277,0.103,0.829,-2.36,3.29,0.00,0.00,2.36,-3.29,0.00,9.06,-12.30,5.72,-8.12,0.00,-1.55,2.38,16.95,1194,1261,1256,1191,1240,1500,1506,11532,818
336846,1,5.28,-6.07,-5.38,0.035,-0.032,0.893,-2.77,3.72,0.00,0.00,2.77,-3.72,0.00,10.52,-13.82,5.25,-7.76,0.00,-1.94,2.30,26.10,1194,1261,1256,1191,1238,1500,1506,11537,818
336859,1,6.93,-3.09,-5.36,-0.057,-0.030,0.918,-3.03,3.10,0.00,0.00,3.03,-3.10,0.00,11.46,-11.69,4.52,-8.60,0.00,-2.27,0.85,28.83,1231,1244,1245,1231,1238,1500,1506,11541,816
336871,1,7.45,1.25,-5.14,-0.173,-0.130,1.027,-3.07,1.01,0.00,0.00,3.07,-1.01,0.00,11.61,-4.41,4.16,-5.66,0.00,-2.36,-0.84,21.18,1231,1244,1245,1231,1241,1500,1506,11520,816
336882,1,0.20,1.37,-6.62,-0.108,-0.296,0.900,-3.01,0.02,0.00,0.00,3.01,-0.02,0.00,11.42,-0.94,11.22,-2.30,0.00,1.12,-0.74,40.31,1231,1244,1245,1231,1241,1500,1506,11520,816
336894,1,-8.04,-6.74,-7.17,-0.108,-0.170,0.780,-2.24,1.58,0.00,0.00,2.24,-1.58,0.00,8.75,-6.43,16.79,0.31,0.00,5.11,2.13,42.24,1231,1244,1245,1231,1241,1500,1506,11524,816
336906,1,-8.14,0.77,-8.32,-0.202,0.064,0.934,-1.47,1.18,0.00,0.00,1.47,-1.18,0.00,6.10,-5.03,14.24,-5.81,0.00,5.53,-1.63,58.04,1231,1244,1245,1231,1243,1500,1506,11520,816
336919,1,-1.49,-0.94,-9.61,-0.006,0.417,0.749,0.28,4.01,0.00,0.00,-0.28,-4.01,0.00,-0.01,-14.97,1.47,-14.04,0.00,2.70,-1.89,69.33,1231,1244,1245,1231,1243,1500,1506,11508,816
336931,1,8.89,1.80,-8.88,0.089,0.473,0.908,-0.41,2.96,0.00,0.00,0.41,-2.96,0.00,2.40,-11.34,-6.49,-13.14,0.00,-2.21,-3.70,72.99,1231,1244,1245,1231,1243,1500,1506,11491,816
336942,1,11.49,4.22,-9.80,0.055,0.377,0.988,-0.84,0.30,0.00,0.00,0.84,-0.30,0.00,3.95,-2.02,-7.54,-6.23,0.00,-3.74,-3.96,79.47,1231,1244,1245,1231,1243,1500,1506,11512,816
336954,1,12.06,1.48,-9.74,0.307,0.084,0.920,-0.70,-0.47,0.00,0.00,0.70,0.47,0.00,3.45,0.70,-8.61,-0.79,0.00,-4.63,-0.17,38.57,1182,1306,1304,1192,1247,1500,1506,11499,816
336966,1,4.73,-12.07,-9.42,0.175,-0.155,0.703,-0.76,2.54,0.00,0.00,0.76,-2.54,0.00,3.66,-9.88,-1.07,2.18,0.00,-1.59,5.63,32.76,1182,1306,1304,1192,1253,1500,1506,11503,816
336979,1,0.05,-1.08,-7.36,-0.243,-0.404,0.935,-1.51,1.86,0.00,0.00,1.51,-1.86,0.00,6.29,-7.53,6.24,-6.46,0.00,0.29,0.32,6.41,1182,1306,1304,1192,1253,1500,1506,11495,816
336991,1,-4.82,-1.98,-6.76,-0.126,-0.457,0.855,-2.10,3.11,0.00,0.00,2.10,-3.11,0.00,8.36,-11.92,13.17,-9.94,0.00,2.55,0.37,10.11,1182,1306,1304,1192,1253,1500,1506,11503,816
337002,1,-6.16,13.42,-4.42,-0.276,-0.250,1.112,-2.57,0.47,0.00,0.00,2.57,-0.47,0.00,10.03,-2.72,16.19,-16.14,0.00,3.11,-6.47,-20.83,1182,1306,1304,1192,1253,1500,1506,11495,816
337014,1,-3.74,4.73,-4.64,0.185,-0.034,0.744,-2.08,1.47,0.00,0.00,2.08,-1.47,0.00,8.34,-6.20,12.08,-10.93,0.00,1.98,-1.43,-5.23,1182,1306,1304,1192,1253,1500,1506,11491,816
337026,1,-3.45,2.16,-5.52,0.181,0.008,0.836,-1.75,1.78,0.00,0.00,1.75,-1.78,0.00,7.20,-7.30,10.65,-9.46,0.00,2.05,-0.70,15.32,1182,1306,1304,1192,1253,1500,1506,11487,816
337039,1,-2.68,-4.49,-5.44,0.072,0.098,0.839,-1.71,1.91,0.00,0.00,1.71,-1.91,0.00,7.08,-7.76,9.77,-3.27,0.00,2.01,2.12,14.88,1182,1306,1304,1192,1253,1500,1506,11508,816
337051,1,0.94,-2.53,-6.32,0.035,0.176,0.831,-2.30,2.55,0.00,0.00,2.30,-2.55,0.00,9.18,-10.03,8.25,-7.50,0.00,0.71,0.74,32.21,1225,1281,1280,1224,1253,1500,1506,11503,818
337062,1,5.68,-1.49,-7.67,0.111,0.235,0.914,-3.16,3.08,0.00,0.00,3.16,-3.08,0.00,12.22,-11.93,6.54,-10.45,0.00,-1.17,-0.38,49.96,1225,1281,1280,1224,1253,1500,1506,11495,818
337074,1,12.12,-5.26,-7.88,0.237,0.247,0.853,-3.59,3.58,0.00,0.00,3.59,-3.58,0.00,13.77,-13.68,1.65,-8.43,0.00,-3.97,0.68,41.00,1225,1281,1280,1224,1252,1500,1506,11478,818
337086,1,16.02,-5.95,-8.07,0.199,0.135,0.828,-3.41,2.43,0.00,0.00,3.41,-2.43,0.00,13.17,-9.70,-2.85,-3.75,0.00,-5.85,0.76,33.82,1225,1281,1280,1224,1252,1500,1506,11483,818
337099,1,19.57,-5.59,-7.38,-0.002,-0.177,0.972,-3.89,0.79,0.00,0.00,3.89,-0.79,0.00,14.87,-3.97,-4.70,1.62,0.00,-7.08,0.85,12.11,1225,1281,1280,1224,1252,1500,1506,11487,818
337111,1,9.23,-2.86,-7.76,-0.053,-0.455,0.842,-4.18,-0.98,0.00,0.00,4.18,0.98,0.00,15.91,2.24,6.68,5.09,0.00,-2.60,1.46,18.81,1225,1281,1280,1224,1252,1500,1506,11487,818
337122,1,-0.54,-3.20,-7.93,-0.292,-0.515,0.968,-2.63,-1.68,0.00,0.00,2.63,1.68,0.00,10.52,4.67,11.06,7.87,0.00,1.16,2.63,23.41,1225,1281,1280,1224,1252,1500,1506,11495,818
337134,1,-7.05,1.34,-7.64,-0.263,-0.571,1.069,-1.13,0.47,0.00,0.00,1.13,-0.47,0.00,5.27,-2.83,12.32,-4.17,0.00,3.56,0.31,22.50,1225,1281,1280,1224,1252,1500,1506,11483,818
337146,1,-5.20,-1.70,-7.16,-0.063,-0.446,0.936,-0.84,5.05,0.00,0.00,0.84,-5.05,0.00,4.27,-18.92,9.47,-17.21,0.00,2.80,0.43,22.47,1225,1281,1280,1224,1252,1500,1506,11487,818
337159,1,-10.95,0.84,-6.78,0.005,-0.288,0.936,-0.39,8.91,0.00,0.00,0.39,-8.91,0.00,2.67,-32.51,13.62,-33.35,0.00,5.39,-2.01,22.67,1239,1268,1267,1233,1252,1500,1506,11499,823
337171,1,-10.13,9.30,-4.77,-0.053,-0.097,1.030,-0.96,8.59,0.00,0.00,0.96,-8.59,0.00,4.67,-31.48,14.80,-40.78,0.00,4.63,-5.98,-7.83,1239,1268,1267,1233,1255,1500,1506,11487,823
337182,1,-7.67,7.36,-3.98,0.186,0.059,0.819,-1.08,7.90,0.00,0.00,1.08,-7.90,0.00,5.11,-29.15,12.77,-36.51,0.00,2.86,-3.69,-13.76,1239,1268,1267,1233,1255,1500,1506,11499,823
337194,1,-5.30,1.41,-5.44,0.261,0.092,0.638,-0.67,8.28,0.00,0.00,0.67,-8.28,0.00,3.71,-30.52,9.01,-31.93,0.00,1.22,-0.80,11.64,1239,1268,1267,1233,1263,1500,1506,11491,823
337206,1,-6.02,1.67,-6.76,0.031,-0.019,0.834,-1.64,6.92,0.00,0.00,1.64,-6.92,0.00,7.12,-25.83,13.14,-27.51,0.00,1.23,-0.95,26.64,1239,1268,1267,1233,1263,1500,1506,11478,823
337219,1,-2.47,-2.16,-7.29,-0.194,0.010,0.996,-2.43,4.55,0.00,0.00,2.43,-4.55,0.00,9.90,-17.62,12.36,-15.47,0.00,-0.16,1.45,25.20,1239,1268,1267,1233,1263,1500,1506,11466,823
337231,1,-1.75,3.72,-6.32,-0.502,0.050,1.057,-2.77,1.49,0.00,0.00,2.77,-1.49,0.00,11.13,-6.94,12.87,-10.66,0.00,0.41,-1.09,4.99,1239,1268,1267,1233,1263,1500,1506,11491,823
337242,1,-1.03,7.22,-6.57,-0.383,0.170,0.960,-2.73,0.19,0.00,0.00,2.73,-0.19,0.00,11.02,-2.39,12.05,-9.62,0.00,0.96,-2.49,15.40,1239,1268,1267,1233,1263,1500,1506,11478,823
337254,1,0.68,8.02,-7.45,-0.246,0.278,1.104,-2.55,-0.11,0.00,0.00,2.55,0.11,0.00,10.42,-1.33,9.74,-9.35,0.00,0.83,-2.84,33.71,1240,1291,1284,1235,1263,1500,1506,11491,820
337266,1,7.77,9.64,-7.47,0.042,0.279,1.027,-2.62,-0.55,0.00,0.00,2.62,0.55,0.00,10.69,0.22,2.92,-9.42,0.00,-2.25,-3.72,32.12,1240,1291,1284,1235,1264,1500,1506,11487,820
337279,1,12.50,3.74,-6.59,0.427,0.369,0.730,-2.36,1.97,0.00,0.00,2.36,-1.97,0.00,9.82,-8.62,-2.68,-12.36,0.00,-4.42,-1.68,13.78,1240,1291,1284,1235,1264,1500,1506,11499,820
337291,1,14.15,-6.08,-6.00,0.489,0.254,0.646,-2.25,5.87,0.00,0.00,2.25,-5.87,0.00,9.45,-22.32,-4.70,-16.24,0.00,-5.64,1.11,1.28,1240,1291,1284,1235,1266,1500,1506,11478,820
337303,1,16.02,-3.74,-4.97,0.270,-0.040,0.697,-2.83,6.42,0.00,0.00,2.83,-6.42,0.00,11.53,-24.29,-4.49,-20.55,0.00,-7.00,-0.20,-15.27,1240,1291,1284,1235,1266,1500,1506,11453,820
337314,1,13.16,-5.11,-4.10,0.222,-0.304,0.710,-4.15,6.59,0.00,0.00,4.15,-6.59,0.00,16.17,-24.96,3.01,-19.84,0.00,-6.14,0.58,-21.87,1240,1291,1284,1235,1266,1500,1506,11466,820
337326,1,9.91,-16.61,-4.87,0.101,-0.425,0.833,-4.65,7.10,0.00,0.00,4.65,-7.10,0.00,17.93,-26.80,8.02,-10.19,0.00,-4.23,4.80,5.08,1240,1291,1284,1235,1272,1500,1506,11458,820
337339,1,7.16,-6.00,-4.96,-0.171,-0.376,0.834,-4.75,4.88,0.00,0.00,4.75,-4.88,0.00,18.31,-19.11,11.15,-13.10,0.00,-2.25,-0.28,12.43,1240,1291,1284,1235,1272,1500,1506,11470,820
337351,1,4.65,-0.59,-6.37,-0.343,-0.365,0.982,-4.04,2.18,0.00,0.00,4.04,-2.18,0.00,15.87,-9.68,11.22,-9.10,0.00,-0.88,-1.70,39.23,1235,1311,1310,1241,1275,1500,1506,11470,823
337362,1,2.20,5.15,-8.02,-0.206,-0.376,1.057,-3.63,0.86,0.00,0.00,3.63,-0.86,0.00,14.44,-5.08,12.24,-10.22,0.00,0.31,-2.91,63.03,1235,1311,1310,1241,1275,1500,1506,11495,823
337374,1,0.50,9.28,-8.28,-0.109,-0.300,0.962,-3.17,0.50,0.00,0.00,3.17,-0.50,0.00,12.87,-3.81,12.37,-13.09,0.00,0.78,-4.11,57.20,1235,1311,1310,1241,1271,1500,1506,11462,823
337386,1,2.56,8.13,-7.66,0.084,-0.219,0.870,-3.24,1.70,0.00,0.00,3.24,-1.70,0.00,13.13,-8.02,10.56,-16.15,0.00,-0.48,-3.34,39.41,1235,1311,1310,1241,1273,1500,1506,11462,823
337399,1,4.74,0.50,-6.76,0.284,-0.207,0.747,-3.62,2.94,0.00,0.00,3.62,-2.94,0.00,14.48,-12.38,9.74,-12.88,0.00,-2.03,0.48,21.57,1235,1311,1310,1241,1273,1500,1506,11466,823
337411,1,7.86,-4.81,-5.17,0.161,-0.285,0.811,-4.37,2.19,0.00,0.00,4.37,-2.19,0.00,17.16,-9.77,9.30,-4.96,0.00,-3.70,2.48,-4.16,1235,1311,1310,1241,1277,1500,1506,11458,823
337422,1,9.41,-10.20,-4.67,0.223,-0.493,0.629,-5.84,2.46,0.00,0.00,5.84,-2.46,0.00,22.32,-10.74,12.91,-0.54,0.00,-4.03,4.07,-6.69,1235,1311,1310,1241,1277,1500,1506,11458,823
337434,1,4.53,-7.92,-5.95,0.073,-0.640,0.752,-5.49,1.48,0.00,0.00,5.49,-1.48,0.00,21.14,-7.33,16.61,0.59,0.00,-1.72,2.81,76.82,1235,1311,1310,1241,1278,1500,1506,11441,823
337447,1,2.08,-9.45,-6.45,-0.147,-0.743,0.868,-4.47,1.17,0.00,0.00,4.47,-1.17,0.00,17.61,-6.26,15.53,3.20,0.00,-0.66,3.10,85.45,1235,1311,1310,1241,1278,1500,1506,11424,823
337459,1,-2.07,-5.28,-7.84,-0.217,-0.640,0.874,-3.22,-0.42,0.00,0.00,3.22,0.42,0.00,13.25,-0.71,15.32,4.56,0.00,1.74,2.00,78.98,1235,1329,1319,1227,1278,1500,1506,11403,820
337471,1,-4.91,4.89,-8.33,-0.541,-0.571,1.154,-1.70,-2.54,0.00,0.00,1.70,2.54,0.00,7.94,6.72,12.85,1.82,0.00,3.08,-2.07,82.66,1235,1329,1319,1227,1282,1500,1506,11395,820
337482,1,-6.34,-0.21,-8.04,-0.398,-0.471,1.044,-0.07,-2.33,0.00,0.00,0.07,2.33,0.00,2.24,6.00,8.57,6.21,0.00,3.58,1.20,75.16,1235,1329,1319,1227,1282,1500,1506,11387,820
337494,1,-6.28,3.54,-7.93,-0.189,-0.428,0.955,0.66,-1.43,0.00,0.00,-0.66,1.43,0.00,-0.32,2.89,5.95,-0.65,0.00,3.39,-0.81,72.16,1235,1329,1319,1227,1282,1500,1506,11412,820
337507,1,-5.25,4.97,-6.49,-0.150,-0.327,0.976,0.58,-1.32,0.00,0.00,-0.58,1.32,0.00,-0.07,2.51,5.18,-2.46,0.00,3.07,-2.03,51.20,1235,1329,1319,1227,1286,1499,1506,11399,820
337519,1,-2.24,5.62,-4.66,-0.083,-0.253,0.957,0.03,-1.86,0.00,0.00,-0.03,1.86,0.00,1.85,4.42,4.09,-1.20,0.00,1.74,-2.31,39.87,1235,1329,1319,1227,1286,1499,1506,11412,820
337531,1,0.33,4.60,-3.33,-0.002,-0.155,0.925,-0.47,-2.77,0.00,0.00,0.47,2.77,0.00,3.58,7.62,3.25,3.02,0.00,0.42,-1.46,-14.04,1235,1329,1319,1227,1287,1500,1506,11424,820
337542,1,2.62,4.04,-1.72,-0.180,-0.257,1.011,-1.23,-4.88,0.00,0.00,1.23,4.88,0.00,6.25,15.03,3.63,10.99,0.00,-0.74,-0.29,-33.73,1235,1329,1319,1227,1287,1500,1506,11420,820
337554,1,1.79,2.45,-0.87,-0.104,-0.358,0.986,-1.60,-5.70,0.00,0.00,1.60,5.70,0.00,7.55,17.96,5.76,15.52,0.00,-0.28,1.62,-38.29,1288,1290,1290,1293,1291,1500,1506,11428,820
337566,1,-2.19,-0.28,-0.81,-0.262,-0.379,1.024,-1.39,-5.14,0.00,0.00,1.39,5.14,0.00,6.84,16.04,9.03,16.32,0.00,1.57,2.59,-26.93,1288,1290,1290,1293,1291,1500,1506,11441,820
337579,1,-9.00,-5.08,-1.33,-0.269,-0.323,0.932,-1.11,-2.93,0.00,0.00,1.11,2.93,0.00,5.85,8.34,14.85,13.41,0.00,4.84,3.61,-8.10,1288,1290,1290,1293,1291,1500,1506,11445,820
337591,1,-14.19,1.07,-1.78,-0.343,-0.201,1.064,-1.30,-1.17,0.00,0.00,1.30,1.17,0.00,6.54,2.16,20.72,1.09,0.00,7.41,0.08,4.21,1288,1290,1290,1293,1290,1500,1506,11449,820
337602,1,-15.95,0.16,-2.19,-0.225,-0.090,1.035,-1.58,1.65,0.00,0.00,1.58,-1.65,0.00,7.54,-7.70,23.48,-7.87,0.00,8.14,-0.80,13.80,1288,1290,1290,1293,1290,1500,1506,11428,820
337614,1,-15.47,-0.81,-3.74,-0.048,0.039,0.931,-1.17,4.79,0.00,0.00,1.17,-4.79,0.00,6.13,-18.74,21.60,-17.94,0.00,8.15,-1.15,75.81,1288,1290,1290,1293,1288,1500,1506,11424,820
337626,1,-15.44,1.68,-4.83,-0.041,0.153,1.092,-1.23,6.92,0.00,0.00,1.23,-6.92,0.00,6.38,-26.26,21.82,-27.94,0.00,7.94,-3.42,85.94,1288,1290,1290,1293,1290,1500,1506,11433,820
337639,1,-14.52,4.33,-6.89,-0.170,0.205,1.084,-0.77,7.09,0.00,0.00,0.77,-7.09,0.00,4.79,-26.92,19.31,-31.25,0.00,7.53,-4.02,75.77,1288,1290,1290,1293,1290,1500,1506,11445,820
337651,1,-11.99,5.20,-7.02,-0.125,0.297,1.048,-0.58,6.73,0.00,0.00,0.58,-6.73,0.00,4.13,-25.76,16.12,-30.96,0.00,6.33,-3.06,62.74,1236,1336,1337,1249,1290,1500,1506,11437,819
337662,1,-12.78,4.75,-7.70,-0.061,0.275,1.052,-0.17,5.12,0.00,0.00,0.17,-5.12,0.00,2.72,-20.16,15.50,-24.91,0.00,6.26,-1.26,64.81,1236,1336,1337,1249,1290,1500,1506,11412,819
337674,1,-10.05,0.07,-7.45,-0.122,0.128,1.102,-0.63,3.14,0.00,0.00,0.63,-3.14,0.00,4.34,-13.27,14.38,-13.34,0.00,4.52,1.50,57.26,1236,1336,1337,1249,1291,1500,1506,11412,819
337686,1,-6.51,-3.23,-7.79,-0.227,0.177,1.054,-0.16,0.07,0.00,0.00,0.16,-0.07,0.00,2.71,-2.56,9.22,0.67,0.00,3.13,2.95,57.36,1236,1336,1337,1249,1294,1500,1506,11428,819
337699,1,-2.02,-6.19,-7.15,-0.002,-0.054,0.820,-0.48,-2.48,0.00,0.00,0.48,2.48,0.00,3.86,6.41,5.88,12.60,0.00,1.22,4.57,41.21,1236,1336,1337,1249,1294,1500,1506,11416,819
337711,1,1.69,-3.99,-7.20,-0.034,-0.117,0.870,-0.55,-5.17,0.00,0.00,0.55,5.17,0.00,4.10,15.87,2.41,19.85,0.00,-0.23,3.44,76.63,1236,1336,1337,1249,1300,1500,1506,11395,819
337722,1,3.90,-11.52,-6.94,0.268,-0.373,0.729,-1.88,-4.52,0.00,0.00,1.88,4.52,0.00,8.74,13.66,4.84,25.18,0.00,-0.92,5.97,67.93,1236,1336,1337,1249,1300,1500,1506,11403,819
337734,1,4.58,-11.00,-7.56,0.311,-0.541,0.723,-2.81,-3.20,0.00,0.00,2.81,3.20,0.00,12.03,9.07,7.46,20.07,0.00,-1.02,4.69,38.18,1236,1336,1337,1249,1297,1500,1506,11387,819
337747,1,1.82,-15.76,-7.08,0.412,-0.827,0.678,-3.59,0.83,0.00,0.00,3.59,-0.83,0.00,14.75,-5.04,12.93,10.72,0.00,0.17,4.79,29.47,1236,1336,1337,1249,1305,1500,1506,11378,819
337759,1,0.98,-9.66,-6.38,0.237,-0.800,0.739,-3.15,4.51,0.00,0.00,3.15,-4.51,0.00,13.25,-17.95,12.27,-8.30,0.00,0.56,0.63,24.54,1315,1300,1295,1305,1305,1500,1506,11374,836
337771,1,-1.97,-3.60,-6.56,-0.010,-0.774,0.886,-1.76,4.93,0.00,0.00,1.76,-4.93,0.00,8.39,-19.48,10.36,-15.89,0.00,1.63,-1.62,35.11,1315,1300,1295,1305,1304,1500,1506,11403,836
337782,1,-3.51,-1.98,-6.24,-0.152,-0.742,0.969,-1.34,4.93,0.00,0.00,1.34,-4.93,0.00,6.91,-19.54,10.42,-17.57,0.00,2.05,-0.84,34.52,1315,1300,1295,1305,1304,1500,1506,11408,836
337794,1,-4.64,3.09,-7.31,-0.294,-0.561,0.877,-1.03,2.80,0.00,0.00,1.03,-2.80,0.00,5.82,-12.10,10.46,-15.19,0.00,2.20,-1.30,54.30,1315,1300,1295,1305,1310,1500,1506,11416,836
337806,1,-7.51,6.25,-8.26,-0.261,-0.447,0.872,-0.36,0.18,0.00,0.00,0.36,-0.18,0.00,3.47,-2.97,10.98,-9.22,0.00,2.89,-0.96,66.31,1315,1300,1295,1305,1311,1500,1506,11420,836
337819,1,-10.38,9.57,-8.86,-0.310,-0.218,1.072,0.19,-2.50,0.00,0.00,-0.19,2.50,0.00,1.53,6.44,11.91,-3.13,0.00,3.21,-1.49,73.73,1315,1300,1295,1305,1311,1500,1506,11403,836
337831,1,-7.45,3.67,-8.75,-0.139,-0.120,0.969,-0.59,-3.67,0.00,0.00,0.59,3.67,0.00,4.27,10.57,11.72,6.90,0.00,1.25,0.66,65.35,1315,1300,1295,1305,1309,1500,1506,11395,836
337842,1,-4.77,8.72,-9.37,-0.114,0.039,1.092,-1.40,-3.82,0.00,0.00,1.40,3.82,0.00,7.13,11.13,11.90,2.41,0.00,0.10,-2.56,72.34,1315,1300,1295,1305,1309,1500,1506,11395,836
337854,1,-3.38,12.52,-10.10,-0.223,0.166,1.186,-1.84,-4.08,0.00,0.00,1.84,4.08,0.00,8.68,12.08,12.06,-0.44,0.00,-0.09,-4.01,75.87,1271,1347,1346,1269,1309,1500,1506,11391,818
337866,1,-4.19,14.44,-10.55,-0.202,0.307,1.097,-1.49,-5.09,0.00,0.00,1.49,5.09,0.00,7.49,15.66,11.69,1.22,0.00,0.54,-3.80,72.32,1271,1347,1346,1269,1309,1500,1506,11412,818
337879,1,-4.17,15.40,-10.47,-0.072,0.380,1.121,-1.16,-5.47,0.00,0.00,1.16,5.47,0.00,6.34,17.02,10.50,1.63,0.00,0.63,-3.37,88.63,1271,1347,1346,1269,1309,1500,1506,11416,818
337891,1,-3.88,11.98,-10.00,0.116,0.404,0.930,-0.98,-3.59,0.00,0.00,0.98,3.59,0.00,5.73,10.51,9.61,-1.47,0.00,0.52,-1.69,77.84,1271,1347,1346,1269,1309,1500,1506,11383,818
337902,1,-5.32,13.16,-9.63,0.244,0.411,0.801,-0.34,-1.79,0.00,0.00,0.34,1.79,0.00,3.49,4.24,8.81,-8.92,0.00,0.93,-2.43,68.72,1271,1347,1346,1269,1309,1500,1506,11358,818
337915,1,-5.09,13.26,-8.11,0.298,0.408,0.868,-0.16,-0.20,0.00,0.00,0.16,0.20,0.00,2.88,-1.32,7.97,-14.58,0.00,0.05,-2.78,46.34,1271,1347,1346,1269,1309,1500,1506,11366,818
337926,1,-2.77,19.33,-6.67,0.202,0.394,0.854,-0.71,0.07,0.00,0.00,0.71,-0.07,0.00,4.84,-2.25,7.61,-21.58,0.00,-1.04,-5.48,26.81,1271,1347,1346,1269,1309,1500,1506,11374,818
337939,1,-7.69,12.35,-4.37,0.048,0.357,0.816,-1.28,0.29,0.00,0.00,1.28,-0.29,0.00,6.84,-3.03,14.53,-15.38,0.00,1.25,-2.06,30.18,1271,1347,1346,1269,1309,1500,1506,11362,818
337951,1,-7.16,8.26,-3.36,0.220,0.368,0.784,-1.39,2.22,0.00,0.00,1.39,-2.22,0.00,7.26,-9.81,14.42,-18.07,0.00,0.00,-1.50,-11.54,1297,1328,1328,1299,1314,1500,1506,11395,820
337962,1,-7.10,10.92,-2.16,0.048,0.394,0.776,-0.74,2.60,0.00,0.00,0.74,-2.60,0.00,5.00,-11.13,12.10,-22.05,0.00,-1.11,-2.49,-27.74,1297,1328,1328,1299,1314,1500,1506,11395,820
337974,1,-8.11,9.46,-2.03,-0.145,0.439,1.022,0.34,-0.14,0.00,0.00,-0.34,0.14,0.00,1.22,-1.56,9.33,-11.02,0.00,-1.33,-0.81,-19.38,1297,1328,1328,1299,1316,1500,1506,11370,820
337986,1,-14.23,-9.58,-1.31,0.368,0.312,0.715,0.77,3.29,0.00,0.00,-0.77,-3.29,0.00,-0.29,-13.59,13.94,-4.02,0.00,1.05,5.63,-21.92,1297,1328,1328,1299,1316,1500,1506,11349,820
337999,1,-21.65,-7.14,-1.78,0.415,0.151,0.637,0.41,9.92,0.00,0.00,-0.41,-9.92,0.00,0.99,-36.85,22.65,-29.72,0.00,3.63,1.37,1.08,1297,1328,1328,1299,1316,1500,1506,11370,820
338011,1,-26.49,-1.30,-2.12,0.038,-0.120,0.801,-0.28,10.03,0.00,0.00,0.28,-10.03,0.00,3.41,-37.36,29.90,-36.06,0.00,4.87,-1.20,21.02,1297,1328,1328,1299,1321,1500,1506,11362,820
338022,1,-29.99,0.54,-2.55,-0.013,-0.308,0.775,-1.21,8.55,0.00,0.00,1.21,-8.55,0.00,6.64,-32.26,36.63,-32.80,0.00,5.80,-1.63,36.89,1297,1328,1328,1299,1321,1500,1506,11358,820
338034,1,-33.14,5.31,-2.81,-0.253,-0.304,0.981,-1.43,7.47,0.00,0.00,1.43,-7.47,0.00,7.45,-28.56,40.59,-33.87,0.00,6.68,-3.69,55.09,1297,1328,1328,1299,1323,1500,1506,11349,820
338046,1,-35.95,7.87,-2.08,-0.444,-0.286,1.113,-1.32,4.63,0.00,0.00,1.32,-4.63,0.00,7.06,-18.68,43.02,-26.55,0.00,7.56,-3.77,42.63,1297,1328,1328,1299,1323,1500,1506,11354,820
338059,1,-36.47,3.62,-1.94,-0.343,-0.214,1.149,-1.12,3.94,0.00,0.00,1.12,-3.94,0.00,6.36,-16.31,42.83,-19.93,0.00,7.48,-2.14,44.43,1292,1353,1356,1290,1323,1500,1506,11341,817
338071,1,-38.25,3.13,-1.59,-0.345,-0.129,1.105,-1.18,4.41,0.00,0.00,1.18,-4.41,0.00,6.59,-18.01,44.84,-21.15,0.00,7.90,-2.42,44.17,1292,1353,1356,1290,1323,1500,1506,11358,817
338082,1,-39.46,1.50,-2.18,-0.305,-0.104,1.190,-1.76,3.30,0.00,0.00,1.76,-3.30,0.00,8.66,-14.18,48.12,-15.68,0.00,8.29,-1.32,58.00,1292,1353,1356,1290,1323,1500,1506,11333,817
338094,1,-43.33,-3.89,-3.36,0.002,-0.025,1.122,-2.66,4.87,0.00,0.00,2.66,-4.87,0.00,11.82,-19.73,55.15,-15.84,0.00,10.09,0.17,88.63,1292,1353,1356,1290,1323,1500,1506,11366,817
338106,1,-42.39,-0.02,-4.42,-0.192,0.045,1.078,-2.73,4.38,0.00,0.00,2.73,-4.38,0.00,12.12,-18.07,54.51,-18.05,0.00,9.08,-1.28,107.56,1292,1353,1356,1290,1323,1500,1506,11358,817
338119,1,-39.70,-6.59,-3.72,-0.099,-0.092,0.990,-2.62,1.29,0.00,0.00,2.62,-1.29,0.00,11.76,-7.27,51.46,-0.68,0.00,7.48,2.40,94.10,1292,1353,1356,1290,1323,1500,1506,11362,817
338131,1,-38.27,-16.01,-3.66,0.459,-0.182,0.675,-2.76,5.70,0.00,0.00,2.76,-5.70,0.00,12.29,-22.72,50.56,-6.71,0.00,6.40,3.60,103.69,1292,1353,1356,1290,1323,1500,1506,11358,817
338142,1,-35.28,-8.54,-2.69,0.237,-0.110,0.806,-2.34,9.90,0.00,0.00,2.34,-9.90,0.00,10.83,-37.51,46.12,-28.97,0.00,4.06,-1.97,90.24,1292,1353,1356,1290,1323,1500,1506,11358,817
338154,1,-32.09,-10.05,-1.35,0.155,-0.081,0.879,-2.20,9.46,0.00,0.00,2.20,-9.46,0.00,10.37,-36.06,42.46,-26.01,0.00,1.86,-0.66,69.91,1285,1354,1355,1296,1323,1500,1506,11362,818
338166,1,-30.91,-11.90,-0.15,0.305,-0.008,0.842,-2.30,10.84,0.00,0.00,2.30,-10.84,0.00,10.72,-40.99,41.63,-29.10,0.00,0.77,-0.53,55.95,1285,1354,1355,1296,1323,1500,1506,11366,818
338179,1,-31.77,-12.89,1.04,0.269,-0.083,0.867,-2.73,11.75,0.00,0.00,2.73,-11.75,0.00,12.25,-44.28,44.01,-31.39,0.00,0.54,-0.34,36.42,1285,1354,1355,1296,1323,1500,1506,11349,818
338191,1,-33.61,-12.28,1.48,0.465,-0.132,0.786,-3.52,12.13,0.00,0.00,3.52,-12.13,0.00,15.06,-45.72,48.67,-33.44,0.00,0.75,-0.39,36.29,1285,1354,1355,1296,1323,1500,1506,11324,818
338202,1,-33.12,-6.29,1.56,0.456,-0.308,0.715,-4.55,11.52,0.00,0.00,4.55,-11.52,0.00,18.70,-43.71,51.82,-37.43,0.00,0.20,-2.08,43.24,1285,1354,1355,1296,1323,1500,1506,11320,818
338214,1,-30.73,-3.04,2.06,0.411,-0.400,0.682,-5.79,10.42,0.00,0.00,5.79,-10.42,0.00,23.07,-39.94,53.80,-36.89,0.00,-1.06,-2.54,45.20,1285,1354,1355,1296,1323,1500,1506,11312,818
338226,1,-30.29,11.23,2.56,0.072,-0.445,0.846,-6.08,6.90,0.00,0.00,6.08,-6.90,0.00,24.13,-27.70,54.42,-38.93,0.00,-1.62,-6.39,39.66,1285,1354,1355,1296,1323,1500,1506,11324,818
338239,1,-29.65,10.72,3.79,-0.027,-0.448,0.888,-6.24,2.29,0.00,0.00,6.24,-2.29,0.00,24.72,-11.60,54.38,-22.32,0.00,-2.14,-2.56,20.82,1285,1354,1355,1296,1323,1500,1506,11333,818
338251,1,-32.79,9.10,4.21,0.092,-0.266,0.856,-5.43,1.32,0.00,0.00,5.43,-1.32,0.00,21.93,-8.20,54.72,-17.31,0.00,-1.05,-1.22,25.85,1283,1359,1360,1288,1323,1500,1506,11312,816
338262,1,-37.85,11.52,5.00,-0.046,-0.186,0.951,-4.52,0.66,0.00,0.00,4.52,-0.66,0.00,18.78,-5.93,56.63,-17.45,0.00,0.74,-1.08,11.54,1283,1359,1360,1288,1323,1500,1506,11341,816
338274,1,-40.04,8.96,4.82,-0.017,-0.102,0.874,-3.81,-1.12,0.00,0.00,3.81,1.12,0.00,16.35,0.32,56.39,-8.64,0.00,1.18,1.27,19.30,1283,1359,1360,1288,1323,1500,1506,11329,816
338286,1,-44.05,5.00,4.68,0.360,-0.141,0.671,-3.99,1.78,0.00,0.00,3.99,-1.78,0.00,16.99,-9.84,61.04,-14.83,0.00,2.70,2.35,23.70,1283,1359,1360,1288,1323,1500,1506,11337,816
338299,1,-47.77,12.71,4.04,0.102,-0.100,0.888,-3.89,3.87,0.00,0.00,3.89,-3.87,0.00,16.69,-17.19,64.46,-29.90,0.00,3.90,-2.15,51.26,1283,1359,1360,1288,1323,1500,1506,11324,816
338311,1,-51.31,16.18,3.82,0.038,-0.098,0.836,-3.91,4.55,0.00,0.00,3.91,-4.55,0.00,16.77,-19.60,68.09,-35.79,0.00,5.07,-2.90,68.69,1283,1359,1360,1288,1323,1500,1506,11324,816
338323,1,-51.59,23.31,4.08,-0.228,-0.144,0.958,-3.98,2.77,0.00,0.00,3.98,-2.77,0.00,17.08,-13.39,68.67,-36.70,0.00,4.98,-4.84,66.21,1283,1359,1360,1288,1323,1500,1506,11329,816
338334,1,-50.82,24.80,4.52,-0.269,-0.057,1.013,-3.86,0.91,0.00,0.00,3.86,-0.91,0.00,16.69,-6.92,67.51,-31.72,0.00,4.91,-4.65,70.10,1283,1359,1360,1288,1323,1500,1506,11341,816
338346,1,-52.64,23.48,5.97,-0.357,0.122,1.060,-3.78,0.43,0.00,0.00,3.78,-0.43,0.00,16.45,-5.23,69.09,-28.71,0.00,6.24,-4.39,46.95,1283,1359,1360,1288,1322,1500,1506,11349,816
338359,1,-55.34,14.04,7.70,-0.182,0.249,0.916,-3.02,0.04,0.00,0.00,3.02,-0.04,0.00,13.84,-3.88,69.19,-17.93,0.00,7.64,-0.17,44.66,1243,1393,1403,1248,1322,1500,1506,11324,819
338371,1,-56.99,6.30,8.37,0.358,0.333,0.690,-2.66,5.94,0.00,0.00,2.66,-5.94,0.00,12.61,-24.56,69.60,-30.87,0.00,8.49,0.51,49.93,1243,1393,1403,1248,1321,1500,1506,11324,819
338382,1,-57.53,19.57,8.92,-0.122,0.395,0.887,-3.03,7.52,0.00,0.00,3.03,-7.52,0.00,13.95,-30.17,71.48,-49.74,0.00,8.53,-6.51,52.60,1243,1393,1403,1248,1321,1500,1506,11324,819
338394,1,-52.94,15.96,8.48,0.048,0.230,0.893,-3.00,5.86,0.00,0.00,3.00,-5.86,0.00,13.89,-24.42,66.83,-40.39,0.00,6.40,-3.39,102.24,1243,1393,1403,1248,1307,1500,1506,11308,819
338406,1,-50.73,20.64,8.69,-0.164,0.126,0.989,-3.56,5.46,0.00,0.00,3.56,-5.46,0.00,15.92,-23.08,66.65,-43.73,0.00,5.47,-5.08,111.34,1243,1393,1403,1248,1307,1500,1506,11320,819
338419,1,-48.31,20.18,10.04,-0.343,0.082,1.137,-3.85,1.32,0.00,0.00,3.85,-1.32,0.00,16.95,-8.61,65.27,-28.78,0.00,4.16,-3.09,99.80,1243,1393,1403,1248,1307,1500,1506,11320,819
338431,1,-47.38,21.83,12.57,-0.134,-0.054,1.095,-4.20,0.36,0.00,0.00,4.20,-0.36,0.00,18.23,-5.26,65.61,-27.09,0.00,3.60,-3.10,99.42,1243,1393,1403,1248,1306,1500,1506,11341,819
338442,1,-45.87,15.83,14.40,0.042,-0.172,0.985,-5.00,2.18,0.00,0.00,5.00,-2.18,0.00,21.06,-11.66,66.93,-27.48,0.00,3.01,-0.67,81.94,1243,1393,1403,1248,1306,1500,1506,11333,819
338454,1,-45.78,21.98,15.25,-0.097,-0.267,0.928,-5.28,1.14,0.00,0.00,5.28,-1.14,0.00,22.11,-8.03,67.89,-30.01,0.00,3.36,-2.51,44.46,1215,1392,1389,1229,1307,1500,1506,11333,820
338466,1,-45.15,15.16,14.85,0.084,-0.398,0.905,-5.99,0.14,0.00,0.00,5.99,-0.14,0.00,24.62,-4.53,69.77,-19.69,0.00,3.82,1.32,72.73,1215,1392,1389,1229,1307,1500,1506,11345,820
338479,1,-47.54,20.24,13.74,-0.384,-0.420,0.974,-5.09,-0.97,0.00,0.00,5.09,0.97,0.00,21.51,-0.66,69.05,-20.90,0.00,5.64,-0.69,106.89,1215,1392,1389,1229,1307,1500,1506,11337,820
338491,1,-51.92,16.03,15.09,-0.344,-0.488,1.056,-4.50,-3.26,0.00,0.00,4.50,3.26,0.00,19.49,7.38,71.41,-8.65,0.00,8.70,1.05,98.14,1215,1392,1389,1229,1303,1500,1506,11333,820
338502,1,-55.12,13.08,17.12,-0.267,-0.201,1.002,-4.27,-2.03,0.00,0.00,4.27,2.03,0.00,18.74,3.09,73.86,-9.99,0.00,11.14,0.77,76.41,1215,1392,1389,1229,1303,1500,1506,11362,820
338514,1,-52.51,8.44,18.73,0.054,0.117,0.688,-2.75,1.63,0.00,0.00,2.75,-1.63,0.00,13.47,-9.71,65.98,-18.15,0.00,10.44,0.71,49.00,1215,1392,1389,1229,1307,1500,1506,11370,820
338527,1,-45.27,21.62,19.88,-0.512,0.362,0.978,-2.01,-1.04,0.00,0.00,2.01,1.04,0.00,10.93,-0.39,56.19,-22.00,0.00,7.06,-5.67,34.10,1215,1392,1389,1229,1303,1500,1506,11366,820
338539,1,-41.76,6.67,19.29,0.348,0.427,0.669,-1.51,1.04,0.00,0.00,1.51,-1.04,0.00,9.20,-7.65,50.96,-14.32,0.00,5.39,0.71,169.77,1215,1392,1389,1229,1303,1500,1506,11333,820
338551,1,-38.71,18.94,18.28,0.025,0.532,0.744,-1.86,2.17,0.00,0.00,1.86,-2.17,0.00,10.46,-11.64,49.16,-30.58,0.00,3.96,-5.75,72.86,1202,1405,1401,1212,1306,1500,1506,11324,830
338562,1,-37.40,13.92,20.88,-0.153,0.482,0.878,-2.45,-0.12,0.00,0.00,2.45,0.12,0.00,12.55,-3.62,49.96,-17.54,0.00,3.31,-1.71,26.38,1202,1405,1401,1212,1306,1500,1506,11312,830
338574,1,-33.87,14.92,23.85,-0.121,0.264,0.826,-2.57,-2.99,0.00,0.00,2.57,2.99,0.00,13.00,6.43,46.88,-8.49,0.00,1.35,-0.08,-28.45,1202,1405,1401,1212,1301,1500,1506,11291,830
338586,1,-33.48,12.48,25.10,-0.088,0.025,0.940,-3.48,-2.43,0.00,0.00,3.48,2.43,0.00,16.23,4.50,49.71,-7.98,0.00,1.46,0.28,-26.02,1202,1405,1401,1212,1301,1500,1506,11274,830
338599,1,-30.28,2.75,25.25,0.059,0.081,0.795,-3.60,2.62,0.00,0.00,3.60,-2.62,0.00,16.69,-13.20,46.97,-15.95,0.00,0.65,2.67,-12.24,1202,1405,1401,1212,1301,1500,1506,11295,830
338611,1,-21.03,6.39,24.28,0.120,0.327,0.897,-4.09,6.06,0.00,0.00,4.09,-6.06,0.00,18.44,-25.28,39.47,-31.68,0.00,-2.46,-1.47,25.42,1202,1405,1401,1212,1290,1500,1506,11299,830
338622,1,-16.89,23.72,23.42,-0.226,0.200,1.114,-5.12,3.53,0.00,0.00,5.12,-3.53,0.00,22.12,-16.47,39.01,-40.19,0.00,-3.68,-9.16,48.47,1202,1405,1401,1212,1290,1500,1506,11299,830
338634,1,-12.70,16.42,21.71,0.207,0.174,0.710,-3.60,3.35,0.00,0.00,3.60,-3.35,0.00,16.83,-15.85,29.53,-32.27,0.00,-4.49,-4.16,97.77,1202,1405,1401,1212,1289,1500,1506,11316,830
338646,1,-15.61,15.24,22.05,0.087,-0.269,0.690,-4.54,0.06,0.00,0.00,4.54,-0.06,0.00,20.14,-4.34,35.75,-19.57,0.00,-2.67,-1.83,75.65,1202,1405,1401,1212,1286,1500,1506,11341,830
338659,1,-14.98,8.93,21.85,0.354,-0.562,0.546,-6.59,-0.62,0.00,0.00,6.59,0.62,0.00,27.37,-1.95,42.36,-10.88,0.00,-2.73,1.30,68.21,1218,1353,1348,1224,1286,1500,1506,11358,820
338671,1,-18.81,0.74,20.65,0.341,-0.795,0.503,-7.47,3.22,0.00,0.00,7.47,-3.22,0.00,30.47,-15.40,49.28,-16.14,0.00,-0.63,2.83,87.01,1218,1353,1348,1224,1286,1500,1506,11358,820
338682,1,-24.13,6.39,18.89,0.047,-0.854,0.648,-6.10,5.03,0.00,0.00,6.10,-5.03,0.00,25.73,-21.81,49.85,-28.20,0.00,2.05,-0.75,110.14,1218,1353,1348,1224,1286,1500,1506,11358,820
338694,1,-26.73,17.48,17.90,-0.130,-0.654,0.739,-4.64,3.73,0.00,0.00,4.64,-3.73,0.00,20.65,-17.30,47.39,-34.78,0.00,3.55,-4.37,123.84,1218,1353,1348,1224,1286,1500,1506,11362,820
338706,1,-25.77,15.92,18.71,-0.122,-0.390,0.785,-3.35,1.79,0.00,0.00,3.35,-1.79,0.00,16.14,-10.53,41.91,-26.45,0.00,3.37,-2.24,109.76,1218,1353,1348,1224,1277,1500,1506,11374,820
338719,1,-24.57,2.79,21.56,0.125,-0.198,0.722,-2.31,4.38,0.00,0.00,2.31,-4.38,0.00,12.54,-19.64,37.11,-22.43,0.00,3.29,1.89,76.77,1218,1353,1348,1224,1277,1500,1506,11341,820
338731,1,-25.13,7.04,23.09,0.098,-0.208,0.710,-2.13,5.89,0.00,0.00,2.13,-5.89,0.00,11.93,-24.97,37.06,-32.01,0.00,4.29,-0.92,63.60,1218,1353,1348,1224,1277,1500,1506,11337,820
338742,1,-16.49,7.68,19.38,-0.191,-1.171,1.305,-6.17,2.54,0.00,0.00,6.17,-2.54,0.00,26.10,-13.25,42.59,-20.93,0.00,1.83,-0.22,139.82,1218,1353,1348,1224,1277,1500,1506,11349,820
338754,1,17.86,-43.45,7.88,-0.014,-0.984,1.007,-10.95,0.94,0.00,0.00,10.95,-0.94,0.00,42.92,-7.68,25.06,35.77,0.00,-7.89,17.12,304.28,1109,1480,1480,1105,1277,1500,1506,11354,819
338767,1,31.80,-50.80,3.21,-0.032,-0.501,0.464,-12.53,-2.61,0.00,0.00,12.53,2.61,0.00,48.57,4.76,16.77,55.56,0.00,-6.37,12.10,296.19,1109,1480,1480,1105,1273,1500,1506,11366,819
338779,1,32.32,-54.38,0.30,-0.070,-0.332,0.755,-10.38,-3.42,0.00,0.00,10.38,3.42,0.00,41.14,7.64,8.83,62.02,0.00,-0.51,7.81,265.00,1109,1480,1480,1105,1273,1500,1506,11337,819
338791,1,39.38,-58.43,2.95,-0.101,-0.013,0.867,-8.23,-1.60,0.00,0.00,8.23,1.60,0.00,33.71,1.26,-5.67,59.69,0.00,0.43,5.66,177.00,1109,1480,1480,1105,1272,1500,1506,11266,819
338802,1,49.91,-45.98,5.04,-0.505,0.503,1.148,-5.93,-4.43,0.00,0.00,5.93,4.43,0.00,25.74,11.22,-24.17,57.20,0.00,-2.50,-1.08,137.82,1109,1480,1480,1105,1272,1500,1506,11258,819
338814,1,55.25,-55.96,10.95,0.389,0.398,0.668,-4.56,-2.97,0.00,0.00,4.56,2.97,0.00,21.00,6.13,-34.25,62.08,0.00,-4.12,4.41,45.50,1109,1480,1480,1105,1272,1500,1506,11216,819
338826,1,63.19,-58.24,14.72,0.581,0.079,0.537,-5.76,3.10,0.00,0.00,5.76,-3.10,0.00,25.26,-15.09,-37.93,43.15,0.00,-7.17,2.69,21.98,1109,1480,1480,1105,1272,1500,1506,11204,819
338839,1,63.12,-52.21,17.05,-0.197,-0.368,0.795,-6.29,1.35,0.00,0.00,6.29,-1.35,0.00,27.16,-9.01,-35.96,43.19,0.00,-5.86,0.17,30.46,1109,1480,1480,1105,1272,1500,1506,11279,819
338851,1,54.35,-39.71,18.48,-0.449,-0.451,1.124,-4.28,-4.19,0.00,0.00,4.28,4.19,0.00,20.16,10.42,-34.19,50.12,0.00,-0.56,-1.82,47.59,1228,1315,1310,1232,1272,1500,1506,11324,816
338862,1,53.02,-48.60,20.72,-0.061,-0.143,0.867,-3.17,1.01,0.00,0.00,3.17,-1.01,0.00,16.31,-7.80,-36.71,40.80,0.00,1.47,2.13,36.19,1228,1315,1310,1232,1272,1500,1506,11341,816
338874,1,64.24,-31.00,19.29,0.146,0.189,0.673,-1.67,2.88,0.00,0.00,1.67,-2.88,0.00,11.10,-14.38,-53.14,16.63,0.00,-2.47,-5.11,81.02,1228,1315,1310,1232,1272,1500,1506,11354,816
338886,1,73.87,-30.55,18.20,-0.174,-0.024,0.926,-2.48,-0.92,0.00,0.00,2.48,0.92,0.00,13.98,-1.07,-59.90,29.49,0.00,-5.40,-4.18,102.95,1228,1315,1310,1232,1272,1500,1506,11378,816
338899,1,79.01,-34.81,16.25,-0.175,-0.131,0.865,-2.71,-5.54,0.00,0.00,2.71,5.54,0.00,14.80,15.17,-64.21,49.97,0.00,-6.54,0.60,138.08,1228,1315,1310,1232,1272,1500,1506,11416,816
338911,1,81.85,-38.87,16.86,0.134,-0.160,0.842,-3.08,-4.72,0.00,0.00,3.08,4.72,0.00,16.11,12.34,-65.75,51.22,0.00,-6.30,3.37,122.79,1228,1315,1310,1232,1272,1500,1506,11408,816
338922,1,81.48,-37.15,18.50,-0.010,-0.311,0.821,-3.60,0.31,0.00,0.00,3.60,-0.31,0.00,17.96,-5.26,-63.53,31.89,0.00,-4.57,1.24,81.70,1228,1315,1310,1232,1272,1500,1506,11403,816
338934,1,79.33,-37.54,18.53,0.363,-0.275,0.543,-3.76,3.26,0.00,0.00,3.76,-3.26,0.00,18.53,-15.62,-60.79,21.92,0.00,-2.18,0.52,79.76,1228,1315,1310,1232,1272,1500,1506,11395,816
338946,1,85.13,-45.32,16.60,-0.362,-0.315,0.919,-3.92,1.85,0.00,0.00,3.92,-1.85,0.00,19.15,-10.70,-65.99,34.62,0.00,-3.83,3.16,110.94,1228,1315,1310,1232,1272,1500,1506,11383,816
338959,1,93.14,-51.88,15.17,-0.284,-0.041,1.128,-3.71,-2.72,0.00,0.00,3.71,2.72,0.00,18.42,5.31,-74.72,57.19,0.00,-4.92,5.97,137.38,1138,1415,1407,1126,1272,1500,1506,11354,818
338971,1,101.05,-53.66,12.78,-0.096,0.168,0.896,-3.10,-2.33,0.00,0.00,3.10,2.33,0.00,16.35,3.96,-84.70,57.62,0.00,-6.10,5.12,176.99,1138,1415,1407,1126,1272,1500,1506,11341,818
338982,1,109.07,-48.68,13.90,-0.178,0.186,1.054,-2.83,-5.17,0.00,0.00,2.83,5.17,0.00,15.42,13.93,-93.65,62.61,0.00,-8.26,1.42,153.20,1138,1415,1407,1126,1272,1500,1506,11341,818
338994,1,107.51,-55.10,16.91,-0.280,-0.058,1.129,-2.48,-6.59,0.00,0.00,2.48,6.59,0.00,14.24,18.96,-93.27,74.06,0.00,-6.94,2.55,97.50,1138,1415,1407,1126,1272,1500,1506,11324,818
339007,1,96.33,-69.00,19.56,0.136,-0.442,0.518,-3.02,-6.53,0.00,0.00,3.02,6.53,0.00,16.12,18.83,-80.21,87.83,0.00,-0.74,9.19,60.66,1138,1415,1407,1126,1265,1500,1506,11324,818
339019,1,96.94,-73.90,20.60,-0.220,-0.137,0.895,-1.41,-7.00,0.00,0.00,1.41,7.00,0.00,10.51,20.53,-86.43,94.43,0.00,0.15,8.53,48.98,1138,1415,1407,1126,1265,1500,1506,11329,818
339031,1,124.45,-60.22,27.90,0.158,-0.199,1.231,-5.83,-2.09,0.00,0.00,5.83,2.09,0.00,26.04,3.37,-98.42,63.59,0.00,-10.51,-0.14,-47.70,1138,1415,1407,1126,1264,1500,1506,11341,818
339043,1,146.38,-31.03,35.08,0.551,-0.192,0.682,-8.53,4.51,0.00,0.00,8.53,-4.51,0.00,35.58,-19.73,-110.81,11.29,0.00,-15.15,-11.41,-85.57,1138,1415,1407,1126,1264,1500,1506,11358,818
339054,1,164.75,-11.56,40.75,0.242,0.058,0.807,-8.37,7.92,0.00,0.00,8.37,-7.92,0.00,35.10,-31.76,-129.65,-20.21,0.00,-18.38,-16.11,-141.76,1397,1107,1103,1391,1227,1500,1506,11374,871
339066,9,149.68,-14.56,40.17,-0.134,-0.206,0.949,-5.24,6.86,0.00,0.00,5.24,-6.86,0.00,24.20,-28.11,-125.48,-13.54,0.00,-6.93,-6.22,-78.55,1397,1107,1103,1391,1199,1500,1506,11362,871
339079,9,147.38,-9.70,39.77,-0.293,0.006,0.939,-3.25,3.81,0.00,0.00,3.25,-3.81,0.00,11.37,-13.33,-136.01,-3.64,0.00,-3.42,-3.11,-60.72,1397,1107,1103,1391,1199,1500,1506,11387,871
339091,9,68.55,92.59,30.45,-0.837,1.330,3.543,-1.48,-1.93,0.00,0.00,1.48,1.93,0.00,5.17,6.77,-63.39,-85.82,0.00,31.35,-42.14,127.33,1397,1107,1103,1391,1191,1500,1506,11378,871
339102,9,10.88,53.39,27.18,0.265,0.426,2.061,-1.36,-0.88,0.00,0.00,1.36,0.88,0.00,4.77,3.10,-6.12,-50.30,0.00,33.52,-16.77,90.78,1397,1107,1103,1391,1191,1500,1506,11399,871
339114,9,-46.98,48.20,25.64,0.216,0.275,0.658,-3.51,9.09,0.00,0.00,3.51,-9.09,0.00,12.28,-31.83,59.26,-80.02,0.00,35.55,-14.22,-28.95,1397,1107,1103,1391,1184,1500,1506,11428,871
339126,9,-57.53,20.02,19.39,1.200,-0.069,0.439,-4.90,19.52,0.00,0.00,4.90,-19.52,0.00,17.15,-68.31,74.68,-88.33,0.00,21.46,5.23,36.71,1397,1107,1103,1391,1184,1500,1506,11416,871
339139,9,-58.36,36.38,18.87,0.059,-0.302,0.441,-8.15,16.65,0.00,0.00,8.15,-16.65,0.00,28.53,-58.27,86.88,-94.65,0.00,10.22,-0.87,-11.02,1397,1107,1103,1391,1184,1500,1506,11424,871
339151,9,-49.63,12.31,15.01,0.108,-1.045,0.526,-11.79,12.80,0.00,0.00,11.79,-12.80,0.00,41.26,-44.80,90.89,-57.11,0.00,3.40,9.37,48.55,1151,1206,1227,1150,1184,1500,1506,11458,868
339162,9,-39.75,7.48,10.40,0.300,-0.752,1.255,-8.32,14.28,0.00,0.00,8.32,-14.28,0.00,29.11,-49.97,68.87,-57.45,0.00,1.80,4.58,109.67,1151,1206,1227,1150,1184,1500,1506,11466,868
339174,9,-24.76,-0.78,11.83,-0.223,-0.359,1.028,-8.54,15.78,0.00,0.00,8.54,-15.78,0.00,29.89,-55.23,54.65,-54.45,0.00,-0.82,1.44,25.06,1151,1206,1227,1150,1184,1500,1506,11474,868
339186,9,-9.88,-13.18,13.05,0.180,-0.082,0.361,-7.95,14.33,0.00,0.00,7.95,-14.33,0.00,27.83,-50.15,37.71,-36.97,0.00,-2.51,5.63,-17.95,1151,1206,1227,1150,1184,1500,1506,11499,868
339199,9,-0.94,-12.92,12.87,-0.083,0.202,0.708,-6.92,9.43,0.00,0.00,6.92,-9.43,0.00,24.21,-33.00,25.14,-20.08,0.00,-2.21,2.74,-31.66,1151,1206,1227,1150,1184,1500,1506,11537,868
339211,9,13.51,-9.35,12.09,-0.006,0.414,0.626,-5.41,5.79,0.00,0.00,5.41,-5.79,0.00,18.94,-20.28,5.42,-10.92,0.00,-5.39,-0.30,-36.68,1151,1206,1227,1150,1184,1500,1506,11549,868
339222,9,27.07,-16.82,11.10,0.173,0.094,0.583,-7.48,6.98,0.00,0.00,7.48,-6.98,0.00,26.17,-24.44,-0.90,-7.62,0.00,-8.73,1.14,-38.02,1151,1206,1227,1150,1184,1500,1506,11549,868
339234,9,28.38,-23.23,9.83,0.113,-0.166,0.672,-8.65,4.44,0.00,0.00,8.65,-4.44,0.00,30.27,-15.54,1.89,7.70,0.00,-7.08,3.41,-26.52,1151,1206,1227,1150,1184,1500,1506,11545,868
339247,9,25.35,-20.78,6.47,-0.042,-0.257,0.632,-7.78,1.03,0.00,0.00,7.78,-1.03,0.00,27.23,-3.60,1.88,17.18,0.00,-3.68,2.22,22.71,1151,1206,1227,1150,1183,1500,1506,11545,868
339259,9,24.80,-28.76,5.56,0.041,-0.215,0.533,-7.07,-0.02,0.00,0.00,7.07,0.02,0.00,24.76,0.06,-0.04,28.82,0.00,-1.67,6.10,21.49,1196,1179,1170,1185,1183,1500,1506,11532,860
339271,9,29.39,-28.45,5.64,-0.263,-0.570,0.858,-7.59,0.15,0.00,0.00,7.59,-0.15,0.00,26.56,-0.52,-2.84,27.94,0.00,-2.25,4.26,7.41,1196,1179,1170,1185,1183,1500,1506,11516,860
339282,9,-10.49,13.07,1.97,-0.355,-0.584,1.861,-5.46,-1.90,0.00,0.00,5.46,1.90,0.00,19.09,6.66,29.59,-6.41,0.00,12.00,-11.30,55.79,1196,1179,1170,1185,1183,1500,1506,11516,860
339294,9,-36.37,44.53,9.46,-0.397,-0.224,1.430,-7.12,-0.85,0.00,0.00,7.12,0.85,0.00,24.92,2.98,61.29,-41.55,0.00,18.70,-20.48,-84.49,1196,1179,1170,1185,1183,1500,1506,11516,860
