time_ms,flags,gyro_x,gyro_y,gyro_z,accel_x,accel_y,accel_z,roll,pitch,angle_sp_roll,angle_sp_pitch,angle_err_roll,angle_err_pitch,angle_i_roll,rate_sp_roll,rate_sp_pitch,rate_err_roll,rate_err_pitch,rate_i_roll,pid_roll,pid_pitch,pid_yaw,m1,m2,m3,m4,rc_thr,rc_roll,rc_pitch,battery_mv,loop_us
242399,9,0.12,0.03,0.06,0.010,-0.050,0.888,-1.80,0.38,0.00,0.00,1.80,-0.38,0.00,6.31,-1.31,6.19,-1.34,0.00,0.23,-0.07,-0.38,1000,1000,1000,1000,1034,1500,1508,11945,819
242411,9,0.12,-0.02,0.05,0.011,-0.052,0.887,-1.80,0.38,0.00,0.00,1.80,-0.38,0.00,6.30,-1.34,6.17,-1.32,0.00,0.24,-0.05,-0.09,1000,1000,1000,1000,1033,1500,1508,11945,819
242422,9,0.04,-0.04,-0.01,0.011,-0.051,0.886,-1.81,0.39,0.00,0.00,1.81,-0.39,0.00,6.34,-1.36,6.29,-1.31,0.00,0.27,-0.04,0.75,1000,1000,1000,1000,1033,1500,1508,11945,819
242434,9,0.11,-0.08,0.08,0.010,-0.050,0.887,-1.79,0.40,0.00,0.00,1.79,-0.40,0.00,6.28,-1.38,6.16,-1.31,0.00,0.24,-0.04,-0.93,1000,1000,1000,1000,1034,1500,1508,11945,819
242446,9,0.11,-0.04,0.11,0.010,-0.053,0.887,-1.81,0.39,0.00,0.00,1.81,-0.39,0.00,6.33,-1.36,6.22,-1.33,0.00,0.25,-0.06,-0.90,1000,1000,1000,1000,1034,1500,1508,11945,819
242459,9,0.11,-0.01,0.05,0.009,-0.051,0.888,-1.82,0.37,0.00,0.00,1.82,-0.37,0.00,6.38,-1.30,6.27,-1.29,0.00,0.25,-0.06,31.70,1100,1100,1100,1100,1034,1500,1508,11945,819
242471,9,0.10,-0.03,0.02,0.010,-0.049,0.889,-1.79,0.36,0.00,0.00,1.79,-0.36,0.00,6.26,-1.26,6.16,-1.23,0.00,0.25,-0.05,0.34,1100,1100,1100,1100,1034,1500,1508,11945,819
242483,9,0.09,-0.06,0.08,0.009,-0.053,0.887,-1.81,0.35,0.00,0.00,1.81,-0.35,0.00,6.33,-1.23,6.23,-1.18,0.00,0.25,-0.03,-0.89,1100,1100,1100,1100,1034,1500,1508,11940,819
242494,9,0.09,-0.03,0.11,0.013,-0.051,0.886,-1.82,0.37,0.00,0.00,1.82,-0.37,0.00,6.36,-1.30,6.27,-1.28,0.00,0.25,-0.06,40.56,1100,1100,1100,1100,1033,1500,1508,11940,819
242506,9,0.14,0.02,0.08,0.009,-0.049,0.889,-1.79,0.38,0.00,0.00,1.79,-0.38,0.00,6.27,-1.33,6.12,-1.35,0.00,0.22,-0.07,41.57,1100,1100,1100,1100,1033,1500,1508,11936,819
242519,9,0.14,-0.04,-0.09,0.008,-0.051,0.887,-1.79,0.36,0.00,0.00,1.79,-0.36,0.00,6.25,-1.25,6.11,-1.21,0.00,0.23,-0.04,36.48,1100,1100,1100,1100,1033,1500,1508,11940,819
242531,9,0.07,0.08,-0.04,0.008,-0.049,0.890,-1.79,0.32,0.00,0.00,1.79,-0.32,0.00,6.26,-1.11,6.18,-1.19,0.00,0.26,-0.09,0.62,1100,1100,1100,1100,1034,1500,1508,11936,819
242542,9,0.16,0.07,0.03,0.011,-0.050,0.888,-1.77,0.32,0.00,0.00,1.77,-0.32,0.00,6.20,-1.12,6.04,-1.19,0.00,0.22,-0.06,-0.59,1100,1100,1100,1100,1034,1500,1508,11928,819
242554,9,0.16,-0.02,0.04,0.011,-0.052,0.887,-1.78,0.35,0.00,0.00,1.78,-0.35,0.00,6.24,-1.22,6.08,-1.20,0.00,0.23,-0.03,-0.48,1100,1100,1100,1100,1034,1500,1508,11920,819
242566,9,0.04,0.04,0.02,0.012,-0.050,0.885,-1.79,0.37,0.00,0.00,1.79,-0.37,0.00,6.27,-1.28,6.24,-1.32,0.00,0.28,-0.06,-0.13,1100,1100,1100,1100,1033,1500,1508,11924,819
242579,9,0.07,-0.01,0.12,0.012,-0.051,0.886,-1.79,0.39,0.00,0.00,1.79,-0.39,0.00,6.25,-1.37,6.18,-1.37,0.00,0.26,-0.05,31.11,1100,1100,1100,1100,1033,1500,1508,11924,819
242591,9,0.21,-0.02,0.06,0.009,-0.055,0.888,-1.80,0.41,0.00,0.00,1.80,-0.41,0.00,6.32,-1.42,6.11,-1.40,0.00,0.20,-0.05,39.01,1100,1100,1100,1100,1033,1500,1508,11928,819
242602,9,0.10,0.05,0.02,0.007,-0.051,0.888,-1.82,0.39,0.00,0.00,1.82,-0.39,0.00,6.38,-1.38,6.28,-1.42,0.00,0.26,-0.09,39.46,1100,1100,1100,1100,1033,1500,1508,11924,819
242614,9,-0.13,0.37,0.07,0.005,-0.054,0.898,-1.84,0.35,0.00,0.00,1.84,-0.35,0.00,6.44,-1.22,6.57,-1.59,0.00,0.36,-0.21,-0.64,1100,1100,1100,1100,1033,1500,1508,11911,819
242626,9,0.21,0.06,-0.19,0.010,-0.052,0.885,-1.83,0.31,0.00,0.00,1.83,-0.31,0.00,6.39,-1.10,6.19,-1.16,0.00,0.20,-0.03,4.04,1100,1100,1100,1100,1033,1500,1508,11903,819
242639,9,0.04,-0.62,0.03,0.010,-0.044,0.887,-1.82,0.38,0.00,0.00,1.82,-0.38,0.00,6.37,-1.31,6.33,-0.69,0.00,0.28,0.21,31.49,1100,1100,1100,1100,1033,1500,1508,11878,819
242651,9,0.03,-0.11,0.27,0.015,-0.054,0.888,-1.81,0.40,0.00,0.00,1.81,-0.40,0.00,6.33,-1.40,6.30,-1.29,0.00,0.29,-0.03,-4.37,1100,1100,1100,1100,1033,1500,1508,11878,820
242662,9,-0.02,0.05,0.12,0.021,-0.052,0.892,-1.79,0.49,0.00,0.00,1.79,-0.49,0.00,6.27,-1.72,6.28,-1.77,0.00,0.30,-0.14,-0.20,1100,1100,1100,1100,1033,1500,1508,11861,820
242674,9,-0.14,-0.17,0.01,0.020,-0.047,0.873,-1.79,0.60,0.00,0.00,1.79,-0.60,0.00,6.26,-2.11,6.40,-1.94,0.00,0.34,-0.12,1.29,1100,1100,1100,1100,1033,1500,1508,11853,820
242687,9,0.11,-0.41,-0.10,0.022,-0.056,0.882,-1.79,0.67,0.00,0.00,1.79,-0.67,0.00,6.27,-2.35,6.16,-1.94,0.00,0.22,0.00,2.55,1100,1100,1100,1100,1033,1500,1508,11841,820
242699,9,0.15,0.18,0.01,0.013,-0.053,0.907,-1.85,0.71,0.00,0.00,1.85,-0.71,0.00,6.48,-2.49,6.34,-2.67,0.00,0.23,-0.25,91.11,1100,1100,1100,1100,1033,1500,1508,11811,820
242711,9,-0.01,0.39,0.06,-0.005,-0.046,0.892,-1.82,0.49,0.00,0.00,1.82,-0.49,0.00,6.38,-1.73,6.39,-2.11,0.00,0.28,-0.20,-0.44,1100,1100,1100,1100,1033,1500,1508,11807,820
242722,9,-0.10,-0.05,0.06,-0.004,-0.061,0.894,-1.86,0.22,0.00,0.00,1.86,-0.22,0.00,6.53,-0.76,6.62,-0.70,0.00,0.33,0.05,0.09,1100,1100,1100,1100,1033,1500,1508,11795,820
242734,9,-0.19,0.19,-0.07,0.014,-0.064,0.886,-2.02,0.18,0.00,0.00,2.02,-0.18,0.00,7.08,-0.62,7.27,-0.81,0.00,0.40,-0.06,2.09,1100,1100,1100,1100,1034,1500,1508,11791,820
242746,9,-0.13,0.73,-0.13,-0.002,-0.046,0.883,-1.97,0.12,0.00,0.00,1.97,-0.12,0.00,6.90,-0.41,7.03,-1.14,0.00,0.35,-0.34,1.83,1100,1100,1100,1100,1034,1500,1508,11774,820
242759,9,0.02,0.36,-0.21,0.003,-0.057,0.905,-1.90,0.11,0.00,0.00,1.90,-0.11,0.00,6.64,-0.40,6.63,-0.76,0.00,0.28,-0.12,32.73,1100,1100,1100,1100,1034,1500,1508,11766,820
242771,9,-0.16,-0.20,-0.12,0.000,-0.044,0.887,-1.91,0.08,0.00,0.00,1.91,-0.08,0.00,6.67,-0.29,6.83,-0.09,0.00,0.34,0.11,-0.29,1100,1100,1100,1100,1033,1500,1508,11761,820
242783,9,0.12,-0.02,0.20,-0.010,-0.038,0.890,-1.68,-0.11,0.00,0.00,1.68,0.11,0.00,5.87,0.39,5.75,0.41,0.00,0.19,0.05,-5.70,1100,1100,1100,1100,1033,1500,1508,11770,820
242794,9,0.31,0.21,0.77,0.036,-0.080,0.885,-1.78,0.31,0.00,0.00,1.78,-0.31,0.00,6.23,-1.10,5.92,-1.31,0.00,0.20,-0.09,-11.33,1100,1100,1100,1100,1034,1501,1507,11774,820
242806,9,-0.81,-0.82,-0.06,0.013,-0.055,0.875,-2.04,0.65,0.00,0.00,2.04,-0.65,0.00,7.14,-2.28,7.95,-1.47,0.00,0.71,0.16,7.19,1100,1100,1100,1100,1033,1500,1508,11786,820
242819,9,0.85,-0.36,-1.19,0.010,-0.042,0.910,-1.69,0.52,0.00,0.00,1.69,-0.52,0.00,5.92,-1.81,5.07,-1.44,0.00,-0.15,-0.06,52.66,1100,1100,1100,1100,1033,1500,1508,11799,820
242831,9,-0.46,-0.08,0.46,0.034,-0.084,0.849,-1.86,0.96,0.00,0.00,1.86,-0.96,0.00,6.51,-3.36,6.97,-3.28,0.00,0.60,-0.33,-15.38,1100,1100,1100,1100,1033,1500,1508,11795,820
242842,9,-0.16,-0.74,1.62,0.008,-0.065,0.888,-2.22,0.86,0.00,0.00,2.22,-0.86,0.00,7.76,-3.00,7.93,-2.27,0.00,0.45,0.02,-23.51,1100,1100,1100,1100,1033,1500,1508,11791,820
242854,9,0.20,0.22,-0.53,0.005,-0.038,0.932,-1.89,0.67,0.00,0.00,1.89,-0.67,0.00,6.61,-2.34,6.41,-2.56,0.00,0.16,-0.40,19.46,1100,1100,1100,1100,1034,1500,1508,11795,820
242866,9,-0.02,1.81,-0.99,-0.020,-0.053,0.867,-1.77,0.46,0.00,0.00,1.77,-0.46,0.00,6.19,-1.61,6.21,-3.42,0.00,0.30,-0.92,15.41,1100,1100,1100,1100,1034,1500,1508,11799,820
242879,9,0.65,-1.92,-0.01,0.015,-0.094,0.896,-2.24,0.51,0.00,0.00,2.24,-0.51,0.00,7.83,-1.79,7.18,0.13,0.00,0.04,0.96,25.08,1100,1100,1100,1100,1034,1500,1508,11807,820
242891,9,-0.80,0.33,0.45,0.015,-0.030,0.866,-1.77,0.70,0.00,0.00,1.77,-0.70,0.00,6.21,-2.43,7.01,-2.76,0.00,0.54,-0.37,34.67,1100,1100,1100,1100,1032,1500,1509,11803,820
242902,9,-1.77,1.46,0.59,0.047,-0.070,0.857,-2.14,0.75,0.00,0.00,2.14,-0.75,0.00,7.49,-2.62,9.26,-4.08,0.00,1.13,-0.85,37.94,1100,1100,1100,1100,1032,1500,1509,11816,820
242914,9,-1.16,0.38,-0.57,0.035,-0.004,0.862,-1.84,0.99,0.00,0.00,1.84,-0.99,0.00,6.45,-3.47,7.61,-3.84,0.00,0.74,-0.40,13.67,1100,1100,1100,1100,1033,1500,1508,11807,820
242926,9,0.62,-0.00,-0.53,0.033,-0.048,0.937,-2.00,0.92,0.00,0.00,2.00,-0.92,0.00,6.99,-3.20,6.37,-3.20,0.00,-0.18,0.02,6.14,1100,1100,1100,1100,1033,1500,1508,11824,820
242939,9,-1.12,1.40,0.31,0.025,0.001,0.823,-1.51,0.52,0.00,0.00,1.51,-0.52,0.00,5.27,-1.83,6.39,-3.23,0.00,0.76,-0.77,-10.11,1100,1100,1100,1100,1033,1500,1508,11845,820
242951,9,-0.38,2.27,0.60,0.052,-0.011,0.933,-1.75,-0.03,0.00,0.00,1.75,0.03,0.00,6.12,0.10,6.50,-2.16,0.00,0.45,-0.71,-9.37,1100,1100,1100,1100,1033,1500,1508,11836,820
242962,9,1.49,-1.83,0.86,0.022,0.022,0.870,-1.84,-0.44,0.00,0.00,1.84,0.44,0.00,6.42,1.53,4.93,3.36,0.00,-0.48,1.34,-9.62,1100,1100,1100,1100,1033,1500,1508,11836,820
242974,9,1.93,-1.90,-0.43,0.028,-0.047,0.879,-2.13,-0.48,0.00,0.00,2.13,0.48,0.00,7.44,1.69,5.51,3.59,0.00,-0.53,1.15,15.01,1100,1100,1100,1100,1033,1500,1508,11828,820
242987,9,2.03,-1.93,0.10,0.019,-0.042,0.808,-2.05,-0.49,0.00,0.00,2.05,0.49,0.00,7.18,1.71,5.15,3.64,0.00,-0.61,1.11,-2.60,1100,1100,1100,1100,1033,1500,1508,11824,820
242999,9,1.86,-2.10,-0.59,0.011,-0.082,0.995,-1.72,0.25,0.00,0.00,1.72,-0.25,0.00,6.03,-0.89,4.17,1.21,0.00,-0.32,0.59,9.03,1100,1100,1100,1100,1033,1500,1508,11807,820
243011,9,-0.77,1.32,1.29,-0.064,-0.098,0.815,-1.72,0.57,0.00,0.00,1.72,-0.57,0.00,6.02,-2.00,6.79,-3.32,0.00,0.68,-0.92,-26.88,1100,1100,1100,1100,1033,1500,1508,11807,820
243022,9,-1.60,3.36,-1.05,-0.029,-0.045,0.995,-1.05,0.75,0.00,0.00,1.05,-0.75,0.00,3.68,-2.63,5.28,-5.99,0.00,0.60,-1.22,21.11,1100,1100,1100,1100,1033,1500,1508,11803,820
243034,9,1.94,-0.71,1.18,-0.016,-0.078,0.846,-1.29,1.08,0.00,0.00,1.29,-1.08,0.00,4.53,-3.78,2.59,-3.06,0.00,-0.91,0.42,-22.76,1100,1100,1100,1100,1033,1500,1508,11807,820
243046,9,-0.66,0.68,-0.53,-0.055,-0.061,0.915,-1.68,0.65,0.00,0.00,1.68,-0.65,0.00,5.89,-2.29,6.55,-2.96,0.00,0.54,-0.27,11.98,1100,1100,1100,1100,1034,1500,1508,11803,820
243059,9,2.88,-4.17,0.85,0.020,-0.010,0.925,-2.18,-0.08,0.00,0.00,2.18,0.08,0.00,7.64,0.28,4.77,4.45,0.00,-0.81,1.90,13.92,1100,1100,1100,1100,1034,1500,1508,11803,820
243071,9,-0.57,-0.79,-0.71,0.091,-0.031,0.792,-1.99,0.31,0.00,0.00,1.99,-0.31,0.00,6.97,-1.09,7.54,-0.30,0.00,0.85,0.11,13.61,1100,1100,1100,1100,1033,1500,1508,11803,820
243082,9,-1.65,0.01,-0.14,0.122,0.017,0.887,-1.94,0.73,0.00,0.00,1.94,-0.73,0.00,6.80,-2.55,8.45,-2.55,0.00,1.26,-0.14,1.68,1100,1100,1100,1100,1033,1500,1508,11803,820
243095,9,-0.84,3.37,-0.07,0.017,-0.041,0.929,-1.53,0.66,0.00,0.00,1.53,-0.66,0.00,5.37,-2.30,6.21,-5.68,0.00,0.17,-1.24,-3.00,1100,1100,1100,1100,1033,1500,1508,11799,820
243106,9,-1.64,2.68,-0.07,-0.031,0.025,0.907,-0.98,0.42,0.00,0.00,0.98,-0.42,0.00,3.41,-1.48,5.06,-4.15,0.00,0.87,-0.85,4.01,1100,1100,1100,1100,1034,1500,1508,11807,820
243119,9,1.44,-0.85,0.34,0.036,-0.099,0.830,-1.62,0.62,0.00,0.00,1.62,-0.62,0.00,5.66,-2.18,4.22,-1.33,0.00,-0.77,1.15,26.56,1100,1100,1100,1100,1034,1500,1508,11824,820
243131,9,-2.48,2.71,0.34,-0.106,-0.088,1.006,-1.44,0.42,0.00,0.00,1.44,-0.42,0.00,5.02,-1.49,7.50,-4.20,0.00,0.98,-0.98,-3.13,1100,1100,1100,1100,1033,1500,1508,11828,820
243142,9,1.30,-1.34,0.55,0.086,-0.079,0.813,-2.18,0.87,0.00,0.00,2.18,-0.87,0.00,7.62,-3.06,6.32,-1.71,0.00,-0.26,0.99,-9.38,1100,1100,1100,1100,1033,1500,1508,11828,820
243154,9,-0.12,-0.57,0.70,0.069,-0.150,0.831,-2.67,1.64,0.00,0.00,2.67,-1.64,0.00,9.36,-5.75,9.48,-5.18,0.00,0.36,-0.03,-9.63,1100,1100,1100,1100,1034,1500,1508,11820,819
243166,9,0.31,-4.40,0.73,0.055,0.087,0.880,-2.02,2.16,0.00,0.00,2.02,-2.16,0.00,7.06,-7.55,6.74,-3.15,0.00,0.45,1.05,-7.96,1100,1100,1100,1100,1034,1500,1508,11811,819
243179,9,4.59,-1.66,-0.44,-0.001,-0.003,0.953,-1.62,1.20,0.00,0.00,1.62,-1.20,0.00,5.67,-4.20,1.07,-2.54,0.00,-1.74,0.19,41.57,1100,1100,1100,1100,1034,1500,1508,11816,819
243191,9,-4.44,1.35,-0.50,0.089,-0.098,0.785,-1.33,2.02,0.00,0.00,1.33,-2.02,0.00,4.67,-7.08,9.11,-8.44,0.00,2.62,-1.34,7.48,1100,1100,1100,1100,1034,1500,1508,11816,819
243202,9,-0.91,1.31,-0.40,0.067,-0.151,0.935,-2.23,1.57,0.00,0.00,2.23,-1.57,0.00,7.80,-5.48,8.71,-6.79,0.00,0.65,-0.42,6.61,1100,1100,1100,1100,1034,1500,1508,11820,819
243214,9,-0.55,6.82,1.41,-0.213,-0.148,0.978,-2.29,0.12,0.00,0.00,2.29,-0.12,0.00,8.00,-0.42,8.55,-7.24,0.00,-0.03,-2.74,-22.40,1100,1100,1100,1100,1034,1500,1508,11807,819
243226,9,1.88,-1.09,0.64,-0.071,0.000,0.892,-2.12,-0.36,0.00,0.00,2.12,0.36,0.00,7.42,1.26,5.54,2.35,0.00,-0.93,1.16,-4.72,1100,1100,1100,1100,1033,1501,1508,11824,819
243239,9,1.57,-1.43,0.23,0.009,0.031,0.899,-1.99,-0.41,0.00,0.00,1.99,0.41,0.00,6.95,1.42,5.38,2.86,0.00,-0.60,1.21,33.62,1100,1100,1100,1100,1033,1501,1508,11832,819
243251,9,-0.05,-6.55,0.13,0.130,-0.019,0.767,-1.79,1.34,0.00,0.00,1.79,-1.34,0.00,6.27,-4.68,6.32,1.87,0.00,0.46,2.53,-1.79,1100,1100,1100,1100,1033,1500,1508,11832,820
243262,9,1.83,-4.49,-0.56,0.068,-0.046,0.923,-2.18,0.99,0.00,0.00,2.18,-0.99,0.00,7.61,-3.46,5.78,1.03,0.00,-0.39,1.19,8.72,1100,1100,1100,1100,1033,1500,1508,11836,820
243274,9,-0.52,0.93,0.44,0.040,-0.116,0.824,-2.27,0.76,0.00,0.00,2.27,-0.76,0.00,7.93,-2.67,8.46,-3.60,0.00,0.80,-1.16,66.54,1100,1100,1100,1100,1034,1500,1508,11841,820
243286,9,-2.78,3.20,0.72,-0.034,-0.143,0.905,-2.52,0.31,0.00,0.00,2.52,-0.31,0.00,8.82,-1.09,11.59,-4.29,0.00,1.58,-1.69,66.90,1100,1100,1100,1100,1034,1500,1508,11824,820
243299,9,-0.31,1.10,0.11,-0.012,-0.055,0.874,-2.35,0.55,0.00,0.00,2.35,-0.55,0.00,8.22,-1.93,8.52,-3.03,0.00,0.28,-0.58,35.62,1100,1100,1100,1100,1034,1500,1508,11807,820
243311,9,3.45,-0.41,0.19,-0.038,-0.036,0.951,-2.23,0.33,0.00,0.00,2.23,-0.33,0.00,7.80,-1.16,4.35,-0.75,0.00,-1.44,0.27,35.81,1100,1100,1100,1100,1034,1500,1508,11807,820
243322,9,-1.47,-0.55,-0.34,-0.058,-0.032,0.979,-2.19,-0.26,0.00,0.00,2.19,0.26,0.00,7.66,0.91,9.14,1.46,0.00,1.05,0.21,40.63,1100,1100,1100,1100,1034,1500,1508,11824,820
243334,9,-1.71,-2.36,0.15,0.135,-0.001,0.840,-2.33,0.42,0.00,0.00,2.33,-0.42,0.00,8.16,-1.46,9.86,0.90,0.00,1.37,1.00,-2.56,1100,1100,1100,1100,1034,1500,1508,11824,820
243347,9,0.87,5.57,0.80,0.006,-0.077,0.916,-2.44,-0.48,0.00,0.00,2.44,0.48,0.00,8.52,1.66,7.65,-3.91,0.00,-0.22,-1.98,-10.13,1100,1100,1100,1100,1034,1500,1508,11832,820
243359,9,-1.95,4.25,0.07,-0.097,0.029,0.908,-1.52,-0.56,0.00,0.00,1.52,0.56,0.00,5.32,1.94,7.26,-2.31,0.00,0.96,-1.06,5.75,1100,1100,1100,1100,1034,1500,1508,11824,826
243371,9,1.97,1.96,-0.19,-0.019,0.028,0.924,-1.63,-0.94,0.00,0.00,1.63,0.94,0.00,5.71,3.28,3.74,1.32,0.00,-0.72,0.45,38.10,1100,1100,1100,1100,1034,1502,1506,11820,826
243382,9,-1.04,-0.09,-0.97,0.008,-0.117,0.901,-1.51,-0.00,0.00,0.00,1.51,0.00,0.00,5.28,0.02,6.32,0.10,0.00,0.43,0.77,44.77,1100,1100,1100,1100,1034,1502,1506,11820,826
243394,9,-2.19,-5.84,-0.46,0.194,0.072,0.737,-0.93,1.80,0.00,0.00,0.93,-1.80,0.00,3.24,-6.30,5.43,-0.46,0.00,1.45,2.07,0.04,1100,1100,1100,1100,1034,1500,1508,11824,826
243406,9,4.15,0.43,1.39,0.056,-0.138,0.834,-2.49,0.93,0.00,0.00,2.49,-0.93,0.00,8.72,-3.26,4.57,-3.70,0.00,-1.53,-0.40,-24.38,1100,1100,1100,1100,1033,1500,1508,11811,826
243419,9,0.06,3.30,1.37,-0.046,-0.181,0.930,-2.33,0.96,0.00,0.00,2.33,-0.96,0.00,8.16,-3.36,8.10,-6.66,0.00,0.28,-1.82,-13.95,1100,1100,1100,1100,1033,1500,1508,11820,826
243431,9,2.38,-3.07,-0.34,0.046,0.074,0.831,-2.06,1.44,0.00,0.00,2.06,-1.44,0.00,7.20,-5.05,4.82,-1.98,0.00,-0.57,1.10,16.34,1100,1100,1100,1100,1033,1500,1508,11807,826
243442,9,2.08,-2.93,-1.26,0.053,-0.044,0.952,-1.78,2.42,0.00,0.00,1.78,-2.42,0.00,6.24,-8.47,4.17,-5.54,0.00,-0.62,0.74,22.92,1100,1100,1100,1100,1033,1500,1508,11807,826
243454,9,-3.78,-5.97,-0.31,0.204,0.053,0.689,-0.93,3.96,0.00,0.00,0.93,-3.96,0.00,3.25,-13.87,7.03,-7.90,0.00,2.27,1.41,-0.63,1100,1100,1100,1100,1034,1500,1508,11799,822
243466,9,2.25,-5.88,0.19,0.097,-0.102,0.888,-1.85,3.24,0.00,0.00,1.85,-3.24,0.00,6.46,-11.35,4.21,-5.47,0.00,-0.38,1.30,-3.76,1100,1100,1100,1100,1034,1500,1508,11791,822
243479,9,1.47,0.79,0.57,0.001,-0.202,0.888,-2.03,3.15,0.00,0.00,2.03,-3.15,0.00,7.12,-11.01,5.66,-11.80,0.00,-0.45,-1.79,23.28,1100,1100,1100,1100,1034,1500,1508,11799,822
243491,9,-1.07,1.38,0.08,-0.023,-0.107,0.910,-2.23,2.89,0.00,0.00,2.23,-2.89,0.00,7.79,-10.10,8.86,-11.48,0.00,0.77,-1.91,0.99,1100,1100,1100,1100,1034,1500,1508,11791,822
243503,9,1.13,-2.34,-0.39,0.056,-0.054,0.913,-1.93,3.00,0.00,0.00,1.93,-3.00,0.00,6.76,-10.52,5.64,-8.18,0.00,-0.23,0.22,8.79,1100,1100,1100,1100,1034,1500,1508,11791,822
243514,9,0.89,-4.67,1.39,-0.049,-0.027,0.887,-1.92,2.72,0.00,0.00,1.92,-2.72,0.00,6.72,-9.52,5.83,-4.85,0.00,-0.08,0.98,33.33,1100,1100,1100,1100,1034,1511,1497,11811,822
243526,9,-0.40,-2.82,0.41,-0.005,-0.086,0.990,-2.13,1.60,0.00,0.00,2.13,-1.60,0.00,7.44,-5.62,7.83,-2.80,0.00,0.59,0.54,58.30,1100,1100,1100,1100,1034,1500,1508,11807,822
243539,9,1.51,0.25,0.15,0.003,-0.124,0.979,-2.69,1.26,0.00,0.00,2.69,-1.26,0.00,9.41,-4.42,7.91,-4.68,0.00,0.24,-1.30,32.18,1100,1100,1100,1100,1034,1500,1508,11820,822
243551,9,2.95,1.94,-0.75,0.005,-0.167,0.772,-3.01,1.51,0.00,0.00,3.01,-1.51,0.00,10.54,-5.30,7.59,-7.24,0.00,-0.45,-1.87,13.53,1100,1100,1100,1100,1034,1500,1508,11824,823
243562,9,-5.77,3.69,-0.91,0.086,0.078,0.888,-1.42,2.58,0.00,0.00,1.42,-2.58,0.00,4.97,-9.01,10.74,-12.71,0.00,3.21,-2.51,10.47,1100,1100,1100,1100,1034,1500,1508,11832,823
243574,9,-2.68,-2.62,0.73,0.139,0.039,0.937,-1.84,3.32,0.00,0.00,1.84,-3.32,0.00,6.44,-11.63,9.12,-9.01,0.00,1.56,0.43,-19.55,1100,1100,1100,1100,1034,1500,1508,11828,823
243586,9,0.14,4.14,1.28,0.075,0.003,0.755,-1.25,3.69,0.00,0.00,1.25,-3.69,0.00,4.38,-12.93,4.24,-17.07,0.00,-0.32,-2.60,-23.88,1100,1100,1100,1100,1034,1500,1508,11824,823
243599,9,-4.02,7.69,0.13,-0.052,0.001,0.889,-0.73,3.01,0.00,0.00,0.73,-3.01,0.00,2.54,-10.55,6.56,-18.24,0.00,1.45,-3.65,27.73,1100,1100,1100,1100,1034,1500,1508,11816,823
243611,9,2.66,-0.06,0.27,-0.022,-0.123,0.998,-1.87,1.85,0.00,0.00,1.87,-1.85,0.00,6.56,-6.48,3.90,-6.42,0.00,-1.48,1.01,38.84,1100,1100,1100,1100,1035,1500,1508,11820,823
243622,9,-0.75,4.42,-0.08,-0.082,-0.094,0.863,-2.28,0.87,0.00,0.00,2.28,-0.87,0.00,7.98,-3.06,8.73,-7.47,0.00,0.03,-1.41,43.31,1100,1100,1100,1100,1035,1500,1508,11820,823
243634,9,-2.34,-6.32,-0.94,0.155,0.074,0.753,-1.89,2.53,0.00,0.00,1.89,-2.53,0.00,6.61,-8.85,8.95,-2.53,0.00,1.40,2.47,14.16,1100,1100,1100,1100,1034,1500,1508,11807,823
243646,9,3.95,-1.91,1.05,0.104,-0.058,0.883,-2.62,2.02,0.00,0.00,2.62,-2.02,0.00,9.18,-7.07,5.23,-5.15,0.00,-1.36,0.25,-16.65,1100,1100,1100,1100,1034,1500,1508,11820,823
243659,9,0.53,0.09,0.68,0.041,-0.124,0.792,-2.30,3.31,0.00,0.00,2.30,-3.31,0.00,8.06,-11.60,7.52,-11.68,0.00,0.20,-1.40,20.77,1100,1100,1100,1100,1034,1500,1508,11824,823
243671,9,2.84,-2.74,-0.38,0.108,0.111,0.853,-1.16,3.52,0.00,0.00,1.16,-3.52,0.00,4.05,-12.34,1.21,-9.59,0.00,-0.54,0.02,10.85,1100,1100,1100,1100,1034,1500,1508,11811,823
243682,9,2.46,0.48,-0.71,0.041,0.002,0.873,-1.00,3.23,0.00,0.00,1.00,-3.23,0.00,3.52,-11.30,1.05,-11.78,0.00,-0.73,-0.60,9.57,1100,1100,1100,1100,1034,1500,1508,11807,823
243694,9,-4.46,2.32,0.77,0.014,-0.092,0.866,-0.85,2.62,0.00,0.00,0.85,-2.62,0.00,2.98,-9.18,7.44,-11.50,0.00,2.27,-1.07,-15.23,1100,1100,1100,1100,1034,1500,1508,11811,823
243707,9,-1.36,1.98,0.81,0.027,0.019,0.785,-1.39,1.68,0.00,0.00,1.39,-1.68,0.00,4.85,-5.89,6.21,-7.87,0.00,0.66,-0.44,-8.22,1100,1100,1100,1100,1034,1501,1507,11803,823
243719,9,2.71,-0.58,-0.09,-0.023,-0.085,0.806,-2.15,0.84,0.00,0.00,2.15,-0.84,0.00,7.52,-2.95,4.80,-2.37,0.00,-1.41,0.99,66.35,1100,1100,1100,1100,1034,1501,1507,11803,823
243731,9,2.61,-0.63,0.22,-0.111,-0.114,0.957,-2.65,-0.11,0.00,0.00,2.65,0.11,0.00,9.29,0.38,6.67,1.02,0.00,-0.99,0.55,-6.58,1100,1100,1100,1100,1034,1500,1508,11799,823
243742,9,1.40,-3.85,-1.41,-0.013,-0.037,0.911,-2.53,-0.07,0.00,0.00,2.53,0.07,0.00,8.85,0.24,7.45,4.10,0.00,0.20,1.60,20.62,1100,1100,1100,1100,1034,1500,1508,11799,823
243754,9,0.32,-1.64,0.02,0.141,0.026,0.791,-1.60,0.60,0.00,0.00,1.60,-0.60,0.00,5.61,-2.10,5.29,-0.46,0.00,0.65,0.54,-2.26,1100,1100,1100,1100,1034,1500,1508,11807,824
243766,9,-0.81,2.30,0.70,-0.032,-0.107,0.894,-1.32,0.79,0.00,0.00,1.32,-0.79,0.00,4.62,-2.78,5.43,-5.08,0.00,0.75,-1.43,-12.19,1100,1100,1100,1100,1034,1500,1509,11811,824
243779,9,-0.43,1.56,-0.15,0.047,-0.050,0.869,-0.89,1.02,0.00,0.00,0.89,-1.02,0.00,3.11,-3.56,3.54,-5.12,0.00,0.27,-0.37,9.71,1100,1100,1100,1100,1034,1500,1509,11824,824
243791,9,3.08,1.70,-0.17,-0.068,-0.021,0.921,-1.29,0.07,0.00,0.00,1.29,-0.07,0.00,4.51,-0.25,1.42,-1.95,0.00,-1.67,0.24,3.72,1100,1100,1100,1100,1034,1500,1508,11824,824
243802,9,-0.89,-0.14,-1.13,-0.007,-0.084,0.752,-1.31,0.20,0.00,0.00,1.31,-0.20,0.00,4.58,-0.69,5.46,-0.55,0.00,0.05,1.06,17.40,1100,1100,1100,1100,1034,1500,1508,11820,824
243814,9,-0.73,-4.81,0.16,0.075,-0.034,0.794,-1.88,0.28,0.00,0.00,1.88,-0.28,0.00,6.58,-0.98,7.31,3.82,0.00,0.78,2.35,22.27,1100,1100,1100,1100,1034,1500,1508,11811,824
243826,9,6.69,-6.72,-0.46,0.143,-0.137,0.812,-2.95,0.64,0.00,0.00,2.95,-0.64,0.00,10.31,-2.25,3.62,4.48,0.00,-2.65,2.97,40.65,1100,1100,1100,1100,1034,1500,1508,11811,824
243839,9,-2.93,3.64,0.01,-0.054,-0.122,0.923,-1.79,1.41,0.00,0.00,1.79,-1.41,0.00,6.27,-4.94,9.19,-8.58,0.00,1.73,-2.65,27.20,1100,1100,1100,1100,1034,1500,1508,11807,824
243851,9,1.65,-1.48,-0.90,0.094,-0.025,0.919,-1.33,1.96,0.00,0.00,1.33,-1.96,0.00,4.64,-6.85,2.99,-5.37,0.00,-0.15,0.35,10.92,1100,1100,1100,1100,1034,1500,1508,11807,824
243862,9,1.39,0.92,-0.28,0.002,-0.174,0.948,-1.28,2.56,0.00,0.00,1.28,-2.56,0.00,4.48,-8.98,3.09,-9.89,0.00,-0.75,-0.75,-1.58,1100,1100,1100,1100,1034,1500,1508,11811,824
243874,9,-6.35,1.96,1.20,0.010,-0.092,0.824,-1.18,3.09,0.00,0.00,1.18,-3.09,0.00,4.14,-10.81,10.49,-12.78,0.00,2.95,-1.51,-25.26,1100,1100,1100,1100,1034,1500,1508,11811,824
243886,9,1.02,-0.38,0.24,-0.020,-0.130,0.979,-2.05,1.87,0.00,0.00,2.05,-1.87,0.00,7.16,-6.55,6.14,-6.16,0.00,-0.47,0.58,3.84,1100,1100,1100,1100,1034,1500,1508,11811,824
243899,9,1.71,1.50,-0.16,-0.080,-0.229,0.960,-2.53,1.10,0.00,0.00,2.53,-1.10,0.00,8.87,-3.84,7.16,-5.34,0.00,-0.66,-0.66,10.39,1100,1100,1100,1100,1034,1500,1508,11807,824
243911,9,0.60,-1.43,-0.82,-0.032,-0.079,0.829,-2.55,1.13,0.00,0.00,2.55,-1.13,0.00,8.93,-3.97,8.34,-2.54,0.00,0.31,0.04,15.85,1100,1100,1100,1100,1034,1500,1508,11811,824
243922,9,2.24,-0.95,-0.53,-0.067,-0.052,1.024,-2.32,-0.01,0.00,0.00,2.32,0.01,0.00,8.12,0.05,5.88,1.00,0.00,-0.16,0.14,8.63,1100,1100,1100,1100,1034,1500,1508,11803,824
243934,9,2.23,-3.63,0.76,-0.045,0.011,0.925,-2.14,0.04,0.00,0.00,2.14,-0.04,0.00,7.49,-0.15,5.26,3.48,0.00,-0.34,1.37,-13.62,1100,1100,1100,1100,1034,1500,1508,11816,824
243946,9,-1.69,-0.83,0.22,0.022,-0.113,0.978,-1.65,0.30,0.00,0.00,1.65,-0.30,0.00,5.79,-1.06,7.48,-0.23,0.00,1.26,0.23,-1.22,1100,1100,1100,1100,1034,1500,1508,11816,824
243959,9,0.10,-1.30,-0.28,0.038,-0.227,0.971,-1.81,0.79,0.00,0.00,1.81,-0.79,0.00,6.35,-2.75,6.25,-1.45,0.00,0.70,0.21,8.75,1100,1100,1100,1100,1034,1500,1508,11811,824
243971,9,0.84,2.63,-0.48,0.010,-0.197,0.867,-2.09,1.21,0.00,0.00,2.09,-1.21,0.00,7.32,-4.23,6.48,-6.85,0.00,-0.03,-1.72,10.21,1100,1100,1100,1100,1034,1500,1508,11807,824
243982,9,-3.84,-0.04,0.09,-0.043,0.041,0.916,-1.55,1.27,0.00,0.00,1.55,-1.27,0.00,5.44,-4.43,9.28,-4.39,0.00,1.71,-0.70,-2.30,1100,1100,1100,1100,1034,1500,1508,11811,824
243994,9,0.54,-1.66,0.85,0.005,0.037,0.981,-2.19,0.76,0.00,0.00,2.19,-0.76,0.00,7.67,-2.67,7.13,-1.00,0.00,0.02,0.35,-10.51,1100,1100,1100,1100,1034,1500,1508,11807,824
244006,9,2.24,0.58,0.46,-0.062,-0.234,0.902,-3.15,0.22,0.00,0.00,3.15,-0.22,0.00,11.04,-0.78,8.80,-1.36,0.00,-1.00,-0.23,-3.29,1100,1100,1100,1100,1034,1500,1508,11807,824
244019,9,-6.18,2.64,-0.92,0.035,-0.102,0.879,-2.47,1.04,0.00,0.00,2.47,-1.04,0.00,8.63,-3.62,14.81,-6.26,0.00,3.23,-1.64,19.89,1100,1100,1100,1100,1034,1500,1508,11807,824
244031,9,0.30,-2.17,-0.48,0.115,-0.031,0.956,-2.34,1.50,0.00,0.00,2.34,-1.50,0.00,8.20,-5.24,7.91,-3.07,0.00,0.37,0.33,6.96,1100,1100,1100,1100,1034,1500,1508,11807,824
244042,9,1.05,3.30,0.65,-0.123,-0.085,0.940,-2.10,0.44,0.00,0.00,2.10,-0.44,0.00,7.34,-1.52,6.29,-4.83,0.00,-0.31,-2.01,-15.73,1100,1100,1100,1100,1034,1500,1508,11807,824
244054,9,-1.20,1.50,1.50,-0.095,0.021,0.975,-1.62,-0.57,0.00,0.00,1.62,0.57,0.00,5.66,2.01,6.86,0.51,0.00,1.00,-0.79,-25.40,1100,1100,1100,1100,1034,1500,1508,11803,823
244066,9,1.62,-0.94,0.72,-0.008,-0.066,1.002,-2.39,-0.85,0.00,0.00,2.39,0.85,0.00,8.38,2.96,6.76,3.90,0.00,-0.36,0.75,-5.32,1100,1100,1100,1100,1034,1500,1508,11791,823
244079,9,-3.39,3.17,-0.32,-0.043,-0.113,0.855,-2.49,-0.42,0.00,0.00,2.49,0.42,0.00,8.72,1.48,12.11,-1.70,0.00,1.73,-1.29,11.45,1100,1100,1100,1100,1034,1500,1508,11791,823
244091,9,-1.60,2.71,-0.84,-0.035,0.085,0.932,-1.69,-1.39,0.00,0.00,1.69,1.39,0.00,5.92,4.87,7.52,2.16,0.00,0.97,-0.50,11.05,1100,1100,1100,1100,1034,1500,1508,11799,823
244102,9,3.41,-1.36,0.79,0.054,0.015,0.878,-1.68,-0.92,0.00,0.00,1.68,0.92,0.00,5.88,3.21,2.46,4.57,0.00,-1.16,1.24,-17.73,1100,1100,1100,1100,1034,1500,1508,11807,823
244115,9,2.30,-0.10,1.47,0.054,-0.121,0.791,-1.84,0.34,0.00,0.00,1.84,-0.34,0.00,6.43,-1.17,4.12,-1.08,0.00,-0.59,-0.06,-25.68,1100,1100,1100,1100,1034,1500,1508,11807,823
244126,9,-3.42,1.88,-0.85,-0.016,0.008,0.899,-1.43,0.98,0.00,0.00,1.43,-0.98,0.00,5.02,-3.42,8.44,-5.30,0.00,2.03,-1.55,21.30,1100,1100,1100,1100,1034,1500,1508,11803,823
244139,9,-0.94,-1.94,-0.43,0.124,0.087,0.856,-1.29,1.12,0.00,0.00,1.29,-1.12,0.00,4.51,-3.92,5.45,-1.98,0.00,0.66,0.85,43.40,1100,1100,1100,1100,1034,1500,1508,11803,823
244151,9,0.37,2.23,0.72,0.044,-0.111,0.864,-1.87,0.89,0.00,0.00,1.87,-0.89,0.00,6.53,-3.12,6.16,-5.35,0.00,-0.24,-0.97,-21.28,1100,1100,1100,1100,1035,1500,1508,11799,824
244162,9,-2.26,0.83,0.67,0.083,0.025,0.736,-1.29,1.71,0.00,0.00,1.29,-1.71,0.00,4.52,-6.00,6.79,-6.83,0.00,1.24,-0.61,-7.77,1100,1100,1100,1100,1035,1500,1508,11807,824
244174,9,2.58,-0.62,0.67,0.015,-0.023,0.914,-2.15,1.00,0.00,0.00,2.15,-1.00,0.00,7.52,-3.51,4.94,-2.90,0.00,-1.07,0.46,-4.80,1100,1100,1100,1100,1035,1500,1508,11799,824
244186,9,0.02,0.72,-1.08,-0.021,-0.091,0.817,-1.96,0.75,0.00,0.00,1.96,-0.75,0.00,6.85,-2.63,6.83,-3.35,0.00,0.08,-0.27,21.80,1100,1100,1100,1100,1035,1500,1508,11791,824
244199,9,1.72,-4.10,0.27,0.053,0.131,0.787,-1.27,0.98,0.00,0.00,1.27,-0.98,0.00,4.43,-3.44,2.71,0.66,0.00,-0.12,1.27,23.87,1100,1100,1100,1100,1035,1500,1508,11786,824
244211,9,2.61,-2.05,0.52,0.005,-0.061,0.918,-2.06,0.85,0.00,0.00,2.06,-0.85,0.00,7.21,-2.98,4.60,-0.94,0.00,-1.02,0.81,-10.50,1100,1100,1100,1100,1035,1500,1508,11791,824
244223,9,-3.60,0.27,0.79,-0.004,-0.069,0.836,-1.46,0.80,0.00,0.00,1.46,-0.80,0.00,5.10,-2.79,8.70,-3.06,0.00,1.62,-0.39,-8.12,1100,1100,1100,1100,1035,1500,1508,11795,824
244234,9,1.28,-0.97,-0.60,0.071,-0.046,0.819,-1.70,0.25,0.00,0.00,1.70,-0.25,0.00,5.94,-0.87,4.65,0.10,0.00,-0.29,0.64,18.82,1100,1100,1100,1100,1037,1500,1508,11807,824
244246,9,3.30,-2.14,-0.83,-0.001,-0.208,0.967,-2.42,0.34,0.00,0.00,2.42,-0.34,0.00,8.48,-1.18,5.18,0.95,0.00,-1.19,0.97,18.73,1100,1100,1100,1100,1037,1500,1508,11803,824
244259,9,-2.60,5.10,-0.32,-0.133,-0.092,0.832,-2.44,-0.21,0.00,0.00,2.44,0.21,0.00,8.53,0.73,11.13,-4.37,0.00,1.75,-2.64,0.66,1100,1100,1100,1100,1037,1500,1508,11791,824
244271,9,-0.13,2.37,-1.03,-0.177,-0.113,1.093,-2.46,-1.42,0.00,0.00,2.46,1.42,0.00,8.62,4.98,8.75,2.61,0.00,0.32,-0.48,59.46,1100,1100,1100,1100,1047,1500,1508,11799,824
244282,9,3.33,-2.49,1.70,-0.041,0.002,1.015,-1.81,-1.88,0.00,0.00,1.81,1.88,0.00,6.34,6.57,3.00,9.06,0.00,-1.17,1.93,10.33,1100,1100,1100,1100,1047,1500,1508,11791,824
244294,9,-1.24,-2.55,0.34,0.042,-0.047,0.710,-1.57,-0.80,0.00,0.00,1.57,0.80,0.00,5.51,2.79,6.74,5.34,0.00,1.33,1.05,34.04,1100,1100,1100,1100,1048,1500,1508,11791,824
244306,9,-2.86,2.29,0.00,0.002,-0.095,1.023,-1.49,-0.60,0.00,0.00,1.49,0.60,0.00,5.22,2.10,8.08,-0.19,0.00,1.98,-1.43,41.66,1100,1100,1100,1100,1049,1500,1508,11791,824
244319,9,2.43,2.44,-0.67,-0.049,-0.163,1.008,-1.91,-1.24,0.00,0.00,1.91,1.24,0.00,6.70,4.34,4.26,1.90,0.00,-0.83,-0.81,9.82,1100,1100,1100,1100,1049,1500,1508,11791,824
244331,9,-2.59,1.25,-0.64,-0.031,0.022,0.815,-0.99,-1.33,0.00,0.00,0.99,1.33,0.00,3.47,4.64,6.06,3.39,0.00,1.58,-0.75,47.75,1100,1100,1100,1100,1049,1500,1508,11795,824
244342,9,1.29,-0.73,1.45,-0.029,0.075,0.898,-1.54,-1.75,0.00,0.00,1.54,1.75,0.00,5.38,6.11,4.09,6.84,0.00,-0.11,0.27,9.73,1100,1100,1100,1100,1049,1500,1508,11791,824
244354,9,-2.13,4.28,1.43,-0.051,-0.179,1.033,-2.12,-1.46,0.00,0.00,2.12,1.46,0.00,7.41,5.12,9.54,0.84,0.00,0.87,-1.41,10.48,1100,1100,1100,1100,1049,1500,1508,11791,823
244366,9,-6.38,-1.66,-0.05,0.161,0.170,0.743,-1.02,0.49,0.00,0.00,1.02,-0.49,0.00,3.58,-1.73,9.97,-0.07,0.00,2.98,0.71,43.20,1100,1100,1100,1100,1049,1500,1508,11791,823
244379,9,2.24,1.65,-0.66,0.043,0.048,0.849,-1.67,-0.33,0.00,0.00,1.67,0.33,0.00,5.85,1.14,3.61,-0.51,0.00,-1.34,-0.06,16.92,1100,1100,1100,1100,1049,1500,1508,11791,823
244391,9,-2.15,1.02,0.07,0.035,-0.200,0.809,-1.81,0.69,0.00,0.00,1.81,-0.69,0.00,6.33,-2.42,8.47,-3.44,0.00,0.69,-0.15,28.26,1100,1100,1100,1100,1050,1500,1508,11786,823
244402,9,2.03,-1.06,-0.45,-0.025,-0.076,0.853,-2.22,0.29,0.00,0.00,2.22,-0.29,0.00,7.77,-1.03,5.74,0.03,0.00,-0.69,0.51,36.95,1100,1100,1100,1100,1050,1500,1508,11782,823
244414,9,4.97,-1.03,0.58,-0.102,-0.086,0.981,-2.48,-0.61,0.00,0.00,2.48,0.61,0.00,8.67,2.13,3.70,3.16,0.00,-1.93,0.54,21.64,1100,1100,1100,1100,1050,1500,1508,11782,823
244427,9,-0.90,-0.25,1.10,-0.057,0.045,0.753,-1.72,-0.84,0.00,0.00,1.72,0.84,0.00,6.04,2.96,6.94,3.20,0.00,1.15,-0.19,13.63,1100,1100,1100,1100,1050,1500,1508,11786,823
244439,9,1.98,-5.28,-0.78,0.073,-0.021,0.970,-1.88,-0.54,0.00,0.00,1.88,0.54,0.00,6.57,1.91,4.59,7.18,0.00,-0.38,2.62,18.06,1100,1100,1100,1100,1050,1500,1508,11791,823
244451,9,0.60,-0.55,-1.35,0.014,-0.101,0.989,-1.61,-0.47,0.00,0.00,1.61,0.47,0.00,5.64,1.63,5.04,2.18,0.00,0.17,0.15,55.60,1100,1100,1100,1100,1050,1500,1508,11807,824
244462,9,-3.76,2.84,-0.96,0.037,-0.130,0.727,-1.61,-0.14,0.00,0.00,1.61,0.14,0.00,5.63,0.49,9.38,-2.35,0.00,2.38,-1.52,44.14,1100,1100,1100,1100,1050,1500,1508,11795,824
244474,9,-0.91,0.28,0.23,0.018,-0.064,0.905,-1.66,0.26,0.00,0.00,1.66,-0.26,0.00,5.82,-0.91,6.73,-1.20,0.00,0.54,0.07,23.62,1100,1100,1100,1100,1050,1500,1509,11807,824
244486,9,5.51,-0.37,1.89,-0.132,-0.050,1.039,-2.14,-0.89,0.00,0.00,2.14,0.89,0.00,7.47,3.13,1.97,3.50,0.00,-2.60,0.41,-5.63,1100,1100,1100,1100,1057,1500,1508,11807,824
244499,9,-2.66,0.29,-0.37,0.009,-0.112,0.778,-2.22,-0.18,0.00,0.00,2.22,0.18,0.00,7.76,0.63,10.42,0.34,0.00,1.42,0.38,10.71,1100,1100,1100,1100,1057,1500,1508,11799,824
244511,9,-3.35,0.16,-1.06,0.021,-0.127,0.978,-2.32,0.18,0.00,0.00,2.32,-0.18,0.00,8.11,-0.61,11.46,-0.77,0.00,1.92,0.05,18.61,1100,1100,1100,1100,1057,1500,1508,11811,824
244522,9,5.22,-1.61,-0.07,0.028,-0.134,0.957,-2.48,-0.20,0.00,0.00,2.48,0.20,0.00,8.69,0.70,3.47,2.32,0.00,-2.01,0.86,-0.77,1100,1100,1100,1100,1057,1500,1508,11807,824
244534,9,-3.02,-0.38,0.44,0.060,-0.002,0.721,-1.82,0.41,0.00,0.00,1.82,-0.41,0.00,6.35,-1.42,9.37,-1.04,0.00,2.23,-0.73,-4.15,1100,1100,1100,1100,1065,1500,1508,11803,824
244546,9,0.98,-3.30,0.56,0.088,-0.042,0.914,-2.61,1.57,0.00,0.00,2.61,-1.57,0.00,9.12,-5.50,8.14,-2.21,0.00,0.50,0.27,-8.28,1100,1100,1100,1100,1065,1500,1508,11795,824
244559,9,3.30,1.75,0.20,-0.081,-0.149,1.091,-2.37,1.35,0.00,0.00,2.37,-1.35,0.00,8.31,-4.72,5.01,-6.47,0.00,-1.36,-1.53,31.60,1100,1100,1100,1100,1065,1500,1508,11807,823
244571,9,-5.08,1.17,-0.80,0.062,0.129,0.751,-1.06,2.12,0.00,0.00,1.06,-2.12,0.00,3.70,-7.42,8.78,-8.58,0.00,2.91,-1.49,11.74,1100,1100,1100,1100,1067,1500,1508,11807,823
244582,9,-1.39,1.14,0.08,0.088,0.022,0.886,-1.31,1.37,0.00,0.00,1.31,-1.37,0.00,4.59,-4.80,5.97,-5.94,0.00,0.73,-0.33,-3.91,1100,1100,1100,1100,1067,1500,1508,11803,823
244594,9,-0.67,2.73,1.10,0.010,-0.164,0.895,-1.57,1.61,0.00,0.00,1.57,-1.61,0.00,5.50,-5.63,6.16,-8.36,0.00,0.00,-1.15,-20.47,1100,1100,1100,1100,1067,1500,1508,11791,823
244606,9,0.41,2.02,0.23,-0.062,0.008,0.876,-1.45,0.92,0.00,0.00,1.45,-0.92,0.00,5.09,-3.24,4.68,-5.26,0.00,-0.01,-0.82,1.55,1100,1100,1100,1100,1080,1500,1508,11791,823
244619,9,3.33,-2.31,-0.17,-0.045,0.003,0.979,-1.93,-0.09,0.00,0.00,1.93,0.09,0.00,6.74,0.33,3.41,2.64,0.00,-1.17,1.29,5.85,1100,1100,1100,1100,1080,1500,1508,11791,823
244631,9,-3.34,0.59,0.02,0.025,-0.048,0.719,-1.97,0.05,0.00,0.00,1.97,-0.05,0.00,6.89,-0.18,10.23,-0.77,0.00,2.06,-0.42,40.89,1100,1100,1100,1100,1086,1500,1508,11774,823
244642,9,1.58,-3.11,0.14,0.125,0.008,0.917,-2.09,0.39,0.00,0.00,2.09,-0.39,0.00,7.33,-1.37,5.75,1.74,0.00,-0.28,1.25,40.22,1100,1100,1100,1100,1086,1500,1508,11778,823
244654,9,2.92,0.91,0.53,-0.012,-0.021,0.911,-2.11,0.14,0.00,0.00,2.11,-0.14,0.00,7.39,-0.49,4.47,-1.40,0.00,-0.97,-0.30,32.45,1100,1100,1100,1100,1088,1500,1508,11782,824
244666,9,-1.92,5.16,-0.24,-0.074,-0.137,0.730,-1.55,0.12,0.00,0.00,1.55,-0.12,0.00,5.44,-0.42,7.35,-5.58,0.00,1.04,-1.85,42.83,1100,1100,1100,1100,1089,1500,1508,11782,824
244679,9,-0.80,3.58,-1.83,-0.010,-0.030,1.025,-1.19,-0.32,0.00,0.00,1.19,0.32,0.00,4.18,1.12,4.98,-2.46,0.00,0.29,-0.52,29.27,1100,1100,1100,1100,1089,1500,1508,11791,824
244691,9,6.05,-5.41,0.35,0.023,-0.039,0.860,-1.49,0.08,0.00,0.00,1.49,-0.08,0.00,5.20,-0.27,-0.86,5.14,0.00,-2.58,3.17,23.53,1100,1100,1100,1100,1090,1500,1508,11791,824
244702,9,-0.67,0.69,1.11,-0.053,-0.134,0.756,-1.91,-0.23,0.00,0.00,1.91,0.23,0.00,6.68,0.81,7.34,0.12,0.00,0.92,-0.33,17.80,1100,1100,1100,1100,1090,1500,1508,11791,824
244714,9,-1.94,-0.79,0.23,-0.041,-0.092,0.971,-2.24,-0.65,0.00,0.00,2.24,0.65,0.00,7.84,2.26,9.78,3.06,0.00,1.70,0.34,33.68,1100,1100,1100,1100,1094,1500,1508,11791,824
244726,9,4.89,-2.76,-0.68,0.066,-0.062,0.992,-2.15,-0.96,0.00,0.00,2.15,0.96,0.00,7.51,3.35,2.62,6.12,0.00,-1.94,1.75,47.96,1100,1100,1100,1100,1095,1500,1508,11799,824
244739,9,-3.62,1.51,-1.22,0.011,-0.050,0.799,-1.18,0.29,0.00,0.00,1.18,-0.29,0.00,4.12,-1.01,7.74,-2.52,0.00,2.07,-1.28,20.45,1100,1100,1100,1100,1095,1500,1508,11803,824
244751,9,0.22,-1.76,0.13,0.116,-0.068,0.865,-0.94,1.72,0.00,0.00,0.94,-1.72,0.00,3.30,-6.02,3.08,-4.26,0.00,0.36,0.28,-11.11,1100,1100,1100,1100,1098,1500,1508,11803,823
244762,9,-0.12,5.66,0.43,-0.100,-0.200,1.055,-1.32,1.04,0.00,0.00,1.32,-1.04,0.00,4.61,-3.63,4.74,-9.29,0.00,-0.25,-2.43,-13.95,1100,1100,1100,1100,1098,1500,1508,11807,823
244774,9,-5.81,-0.51,0.52,0.086,0.063,0.840,-0.77,2.01,0.00,0.00,0.77,-2.01,0.00,2.70,-7.03,8.51,-6.52,0.00,2.56,0.24,-5.25,1100,1100,1100,1100,1098,1500,1508,11816,823
244786,9,1.15,-2.77,0.51,0.069,-0.056,0.866,-2.04,2.29,0.00,0.00,2.04,-2.29,0.00,7.16,-8.01,6.00,-5.24,0.00,-0.60,1.02,-4.74,1100,1100,1100,1100,1106,1500,1508,11807,823
244799,9,-1.42,2.56,-0.29,0.009,-0.164,0.826,-2.65,2.47,0.00,0.00,2.65,-2.47,0.00,9.26,-8.66,10.68,-11.22,0.00,0.58,-1.77,45.20,1100,1100,1100,1100,1106,1500,1508,11799,823
244811,9,-0.21,-1.51,-0.33,0.090,0.014,0.829,-2.67,2.33,0.00,0.00,2.67,-2.33,0.00,9.35,-8.16,9.55,-6.65,0.00,0.49,-0.09,2.98,1100,1100,1100,1100,1106,1500,1508,11799,823
244822,9,3.57,-5.50,0.82,0.007,0.022,0.864,-2.66,1.55,0.00,0.00,2.66,-1.55,0.00,9.32,-5.41,5.75,0.09,0.00,-1.05,1.64,-15.53,1100,1100,1100,1100,1106,1500,1508,11795,823
244835,9,2.77,-2.69,1.82,-0.024,0.010,0.797,-1.91,1.16,0.00,0.00,1.91,-1.16,0.00,6.70,-4.07,3.92,-1.39,0.00,-0.42,-0.19,-29.58,1100,1100,1100,1100,1114,1500,1508,11803,823
244846,9,2.08,-2.12,-0.42,-0.019,-0.014,0.981,-1.78,0.82,0.00,0.00,1.78,-0.82,0.00,6.23,-2.88,4.15,-0.75,0.00,-0.07,-0.29,14.02,1100,1100,1100,1100,1114,1500,1508,11807,823
244859,9,0.02,-2.58,-1.36,0.160,-0.036,0.791,-1.57,1.82,0.00,0.00,1.57,-1.82,0.00,5.50,-6.37,5.48,-3.80,0.00,0.52,0.40,56.34,1100,1100,1100,1100,1114,1500,1508,11803,824
244871,9,-4.33,5.32,-0.36,-0.035,-0.094,0.825,-1.31,1.12,0.00,0.00,1.31,-1.12,0.00,4.60,-3.93,8.93,-9.24,0.00,2.03,-2.55,3.17,1100,1100,1100,1100,1121,1500,1508,11799,824
244882,9,-1.01,2.54,0.25,-0.083,-0.074,1.043,-1.47,0.01,0.00,0.00,1.47,-0.01,0.00,5.13,-0.03,6.14,-2.57,0.00,0.15,-0.17,-3.74,1100,1100,1100,1100,1121,1500,1508,11795,824
244894,9,4.27,1.49,1.49,-0.069,-0.105,0.932,-1.95,-0.95,0.00,0.00,1.95,0.95,0.00,6.84,3.34,2.57,1.85,0.00,-2.16,0.56,11.28,1100,1100,1100,1100,1131,1500,1508,11795,824
244906,9,-3.20,0.68,-1.07,0.039,-0.084,0.751,-1.86,-0.09,0.00,0.00,1.86,0.09,0.00,6.51,0.31,9.71,-0.37,0.00,1.67,0.21,61.09,1100,1100,1100,1100,1131,1500,1508,11791,824
244919,9,-0.69,-2.68,-0.69,0.069,-0.059,1.002,-2.31,0.64,0.00,0.00,2.31,-0.64,0.00,8.10,-2.23,8.79,0.45,0.00,0.94,1.16,11.25,1100,1100,1100,1100,1131,1500,1508,11786,824
244931,9,3.70,2.33,-0.41,-0.103,-0.124,0.974,-2.15,-0.45,0.00,0.00,2.15,0.45,0.00,7.54,1.58,3.84,-0.75,0.00,-1.30,-0.83,-3.59,1100,1100,1100,1100,1136,1500,1508,11782,824
244942,9,-4.73,4.77,0.14,-0.022,0.003,0.898,-1.11,-0.10,0.00,0.00,1.11,0.10,0.00,3.87,0.36,8.60,-4.41,0.00,2.76,-2.13,-4.53,1100,1100,1100,1100,1136,1500,1508,11786,824
244954,9,-0.63,-0.55,1.11,0.109,-0.022,0.926,-1.52,0.50,0.00,0.00,1.52,-0.50,0.00,5.31,-1.74,5.94,-1.19,0.00,0.65,0.38,12.07,1100,1100,1100,1100,1136,1500,1508,11786,823
244966,9,0.12,1.80,-0.18,-0.019,-0.089,0.818,-1.62,0.69,0.00,0.00,1.62,-0.69,0.00,5.66,-2.42,5.54,-4.23,0.00,-0.24,-0.68,38.21,1100,1100,1100,1100,1137,1500,1508,11791,823
244979,9,-0.81,0.92,-0.05,-0.030,0.080,0.860,-1.43,0.10,0.00,0.00,1.43,-0.10,0.00,5.00,-0.34,5.80,-1.26,0.00,0.67,-0.35,-0.70,1100,1100,1100,1100,1137,1500,1508,11791,823
244991,9,1.91,-1.78,-0.12,0.010,-0.054,0.914,-2.44,-0.79,0.00,0.00,2.44,0.79,0.00,8.52,2.75,6.62,4.53,0.00,-0.63,1.50,23.40,1100,1100,1100,1100,1137,1500,1508,11795,823
245002,9,-2.15,1.52,1.17,0.000,-0.110,0.850,-2.50,-0.95,0.00,0.00,2.50,0.95,0.00,8.76,3.32,10.91,1.80,0.00,1.36,-0.59,5.61,1100,1100,1100,1100,1137,1500,1508,11791,823
245014,9,4.48,-5.08,0.43,0.106,0.049,0.785,-2.30,-0.65,0.00,0.00,2.30,0.65,0.00,8.06,2.26,3.57,7.34,0.00,-1.15,2.00,26.22,1100,1100,1100,1100,1137,1500,1508,11786,823
245026,9,4.32,-1.53,-0.83,0.040,-0.083,0.827,-2.46,0.12,0.00,0.00,2.46,-0.12,0.00,8.61,-0.43,4.29,1.10,0.00,-1.14,0.28,50.40,1100,1100,1100,1100,1138,1500,1508,11782,823
245039,9,-2.12,3.34,-0.76,-0.047,-0.123,0.943,-2.05,0.34,0.00,0.00,2.05,-0.34,0.00,7.17,-1.18,9.29,-4.52,0.00,1.73,-1.76,7.00,1100,1100,1100,1100,1138,1500,1508,11791,823
245051,9,-0.54,4.11,-0.72,-0.012,-0.026,1.031,-1.50,0.07,0.00,0.00,1.50,-0.07,0.00,5.23,-0.26,5.78,-4.37,0.00,0.44,-1.27,7.02,1100,1100,1100,1100,1139,1500,1508,11791,861
245062,9,-0.04,-1.79,1.29,0.048,0.037,0.874,-0.78,0.75,0.00,0.00,0.78,-0.75,0.00,2.72,-2.63,2.76,-0.84,0.00,-0.36,1.64,-26.39,1100,1100,1100,1100,1139,1500,1508,11774,861
245074,9,-3.20,-0.51,-0.12,0.085,-0.091,0.828,-0.95,1.26,0.00,0.00,0.95,-1.26,0.00,3.32,-4.40,6.52,-3.89,0.00,0.92,1.02,7.27,1100,1100,1100,1100,1139,1500,1508,11782,861
245086,9,0.07,-3.85,-0.34,0.005,-0.194,0.903,-2.14,1.95,0.00,0.00,2.14,-1.95,0.00,7.50,-6.83,7.43,-2.98,0.00,0.32,1.01,12.19,1100,1100,1100,1100,1144,1500,1508,11786,861
245099,9,3.10,1.72,-0.50,-0.051,-0.146,0.759,-3.10,0.42,0.00,0.00,3.10,-0.42,0.00,10.84,-1.46,7.74,-3.17,0.00,-0.90,-1.32,3.17,1100,1100,1100,1100,1144,1500,1508,11774,861
245111,9,-0.92,-1.49,-0.70,0.029,0.013,1.087,-2.57,0.64,0.00,0.00,2.57,-0.64,0.00,9.01,-2.23,9.93,-0.74,0.00,1.16,-0.30,6.56,1100,1100,1100,1100,1150,1500,1508,11774,861
245122,9,2.13,-6.97,1.84,0.179,0.072,0.837,-2.45,1.63,0.00,0.00,2.45,-1.63,0.00,8.56,-5.70,6.43,1.27,0.00,0.04,1.84,-37.98,1100,1100,1100,1100,1150,1500,1508,11774,861
245134,9,-0.62,1.46,0.66,0.028,-0.076,0.804,-2.05,2.55,0.00,0.00,2.05,-2.55,0.00,7.17,-8.91,7.78,-10.37,0.00,0.51,-1.89,-5.99,1100,1100,1100,1100,1150,1500,1508,11778,861
245146,9,-6.11,4.07,-0.47,0.110,0.074,0.965,-0.76,3.69,0.00,0.00,0.76,-3.69,0.00,2.67,-12.90,8.79,-16.98,0.00,2.89,-2.86,12.59,1100,1100,1100,1100,1160,1494,1508,11766,861
245159,9,3.96,-3.15,-1.28,0.158,-0.011,0.776,-1.51,3.61,0.00,0.00,1.51,-3.61,0.00,5.27,-12.62,1.31,-9.47,0.00,-1.73,1.15,19.45,1143,1173,1171,1147,1160,1494,1508,11757,871
245171,9,-2.61,1.44,0.20,-0.020,-0.140,0.725,-1.61,4.19,0.00,0.00,1.61,-4.19,0.00,5.64,-14.66,8.25,-16.10,0.00,1.08,-1.74,-10.79,1143,1173,1171,1147,1160,1500,1508,11753,871
245182,9,-1.22,0.07,1.44,0.022,0.030,0.974,-1.67,3.01,0.00,0.00,1.67,-3.01,0.00,5.84,-10.54,7.07,-10.61,0.00,0.63,-0.63,-29.50,1143,1173,1171,1147,1160,1500,1508,11749,871
245194,9,2.30,-2.65,0.58,0.106,-0.060,0.912,-2.46,2.95,0.00,0.00,2.46,-2.95,0.00,8.61,-10.34,6.31,-7.69,0.00,-1.15,1.07,-3.97,1143,1173,1171,1147,1161,1500,1508,11728,871
245206,9,-0.77,0.40,0.28,0.038,-0.115,0.775,-2.48,3.46,0.00,0.00,2.48,-3.46,0.00,8.68,-12.12,9.45,-12.52,0.00,0.36,-1.05,2.40,1143,1173,1171,1147,1163,1500,1508,11724,871
245219,9,-1.24,-1.20,-1.07,0.064,0.012,0.770,-2.04,3.71,0.00,0.00,2.04,-3.71,0.00,7.14,-12.97,8.38,-11.77,0.00,1.20,-0.75,17.62,1143,1173,1171,1147,1163,1500,1508,11707,871
245231,9,2.87,-0.42,-1.03,-0.004,-0.036,1.018,-1.75,3.24,0.00,0.00,1.75,-3.24,0.00,6.13,-11.33,3.25,-10.91,0.00,-0.90,-0.42,11.96,1143,1173,1171,1147,1164,1500,1508,11716,871
245243,9,1.89,-0.92,0.79,0.078,-0.050,1.005,-1.37,3.06,0.00,0.00,1.37,-3.06,0.00,4.81,-10.71,2.92,-9.78,0.00,-0.53,-0.21,-14.48,1143,1173,1171,1147,1164,1500,1508,11699,871
245254,9,-4.40,0.09,0.77,-0.022,-0.068,0.639,-0.97,2.51,0.00,0.00,0.97,-2.51,0.00,3.38,-8.78,7.79,-8.87,0.00,2.17,-0.97,31.13,1166,1178,1180,1167,1174,1505,1503,11707,870
245266,9,-4.24,5.49,-0.54,0.078,0.031,0.826,-0.63,1.98,0.00,0.00,0.63,-1.98,0.00,2.20,-6.94,6.44,-12.43,0.00,1.69,-2.54,55.27,1166,1178,1180,1167,1175,1500,1508,11707,870
245279,9,-1.28,1.19,-0.99,0.146,0.017,1.057,-1.40,2.49,0.00,0.00,1.40,-2.49,0.00,4.90,-8.71,6.18,-9.91,0.00,0.63,0.02,47.80,1166,1178,1180,1167,1175,1500,1508,11699,870
245291,9,8.95,-0.26,0.41,0.011,-0.103,0.923,-2.58,2.91,0.00,0.00,2.58,-2.91,0.00,9.02,-10.20,0.07,-9.94,0.00,-4.23,0.37,20.95,1166,1178,1180,1167,1176,1500,1508,11678,870
245302,9,-1.26,3.73,0.92,-0.034,-0.172,0.719,-2.23,2.70,0.00,0.00,2.23,-2.70,0.00,7.81,-9.44,9.08,-13.16,0.00,0.42,-2.05,14.38,1166,1178,1180,1167,1176,1500,1508,11670,870
245314,9,-9.36,-3.86,1.03,-0.057,-0.011,0.887,-1.67,4.30,0.00,0.00,1.67,-4.30,0.00,5.86,-15.04,15.22,-11.18,0.00,4.56,0.70,12.24,1166,1178,1180,1167,1176,1500,1508,11670,870
245326,9,7.12,-9.22,-0.58,0.169,0.033,1.014,-2.26,4.85,0.00,0.00,2.26,-4.85,0.00,7.91,-16.96,0.79,-7.74,0.00,-2.54,3.11,36.16,1166,1178,1180,1167,1176,1500,1508,11666,870
245339,9,11.69,-1.57,-3.34,0.176,-0.269,0.691,-3.84,4.75,0.00,0.00,3.84,-4.75,0.00,13.44,-16.62,1.76,-15.04,0.00,-5.26,-0.10,48.23,1166,1178,1180,1167,1176,1500,1508,11653,870
245351,9,-7.45,5.58,-4.25,0.206,-0.222,0.653,-2.61,5.53,0.00,0.00,2.61,-5.53,0.00,9.14,-19.35,16.58,-24.93,0.00,3.60,-3.80,48.69,1127,1220,1222,1137,1177,1504,1504,11657,952
245362,9,-10.80,-0.97,-2.46,-0.099,0.119,1.059,-1.68,4.87,0.00,0.00,1.68,-4.87,0.00,5.89,-17.03,16.69,-16.07,0.00,5.45,-1.48,-0.74,1127,1220,1222,1137,1177,1504,1504,11666,952
245374,9,2.20,-7.65,-2.70,0.059,0.063,0.815,-2.16,3.95,0.00,0.00,2.16,-3.95,0.00,7.55,-13.83,5.36,-6.17,0.00,-0.69,2.92,4.46,1127,1220,1222,1137,1187,1500,1508,11670,952
245386,9,11.41,4.79,-3.47,0.079,-0.193,0.811,-2.63,2.21,0.00,0.00,2.63,-2.21,0.00,9.21,-7.73,-2.20,-12.51,0.00,-5.21,-2.91,22.54,1127,1220,1222,1137,1189,1500,1508,11687,952
245399,9,-5.45,6.75,-4.71,0.048,-0.198,0.789,-1.45,1.33,0.00,0.00,1.45,-1.33,0.00,5.08,-4.64,10.53,-11.40,0.00,2.67,-4.05,86.91,1127,1220,1222,1137,1189,1500,1508,11703,952
245411,9,-2.38,-10.93,-3.75,0.115,-0.044,0.844,-0.71,2.96,0.00,0.00,0.71,-2.96,0.00,2.48,-10.37,4.86,0.56,0.00,1.46,3.65,15.48,1127,1220,1222,1137,1199,1500,1508,11682,952
245422,9,-0.97,1.98,-4.00,-0.104,0.011,0.993,-0.61,0.58,0.00,0.00,0.61,-0.58,0.00,2.14,-2.04,3.11,-4.02,0.00,1.01,-2.08,15.04,1127,1220,1222,1137,1199,1500,1508,11682,952
245434,9,4.99,-2.67,-2.37,-0.141,-0.063,0.887,-1.67,-0.71,0.00,0.00,1.67,0.71,0.00,5.86,2.48,0.87,5.15,0.00,-1.82,0.54,14.50,1127,1220,1222,1137,1199,1500,1508,11678,952
245447,1,7.01,-5.95,-0.03,-0.086,-0.080,1.006,-2.04,-1.16,0.00,0.00,2.04,1.16,0.00,7.14,4.05,0.12,10.00,0.00,-3.04,2.67,-9.29,1127,1220,1222,1137,1202,1500,1508,11670,952
245459,1,1.12,5.53,-2.15,-0.048,-0.336,0.966,-2.74,-1.39,0.00,0.00,2.74,1.39,0.00,9.60,4.87,8.47,-0.66,0.00,-0.53,-2.49,12.19,1197,1205,1206,1197,1202,1500,1508,11637,907
245471,1,-10.28,-2.69,-5.14,0.161,-0.104,0.579,-0.95,0.49,0.00,0.00,0.95,-0.49,0.00,3.37,-1.68,13.65,1.01,0.00,5.10,0.68,55.69,1197,1205,1206,1197,1202,1500,1508,11645,907
245482,1,-9.49,1.41,-7.56,0.054,0.224,0.788,-0.11,-0.76,0.00,0.00,0.11,0.76,0.00,0.41,2.67,9.90,1.27,0.00,5.29,-0.28,81.28,1197,1205,1206,1197,1202,1500,1508,11641,907
245494,1,7.73,-5.02,-7.56,-0.030,0.137,1.087,-0.84,-0.01,0.00,0.00,0.84,0.01,0.00,3.01,0.07,-4.73,5.09,0.00,-3.70,3.17,90.30,1197,1205,1206,1197,1205,1500,1508,11649,907
245506,1,8.99,6.21,-8.23,0.123,-0.330,0.921,-2.03,-0.08,0.00,0.00,2.03,0.08,0.00,7.16,0.31,-1.84,-5.90,0.00,-4.68,-2.55,89.90,1197,1205,1206,1197,1208,1500,1508,11649,907
245519,1,-6.94,-4.44,-9.14,-0.297,-0.281,0.891,-0.82,-1.69,0.00,0.00,0.82,1.69,0.00,2.92,5.95,9.86,10.39,0.00,3.34,1.84,58.39,1197,1205,1206,1197,1208,1500,1508,11620,907
245531,1,-10.90,-14.76,-9.68,0.239,0.035,0.505,1.90,3.43,0.00,0.00,-1.90,-3.43,0.00,-6.60,-11.99,4.30,2.77,0.00,5.69,6.60,53.98,1197,1205,1206,1197,1208,1500,1508,11624,907
245542,1,0.43,3.19,-6.88,0.016,0.087,0.900,0.41,3.40,0.00,0.00,-0.41,-3.40,0.00,-1.40,-11.93,-1.83,-15.12,0.00,0.20,-2.61,-0.46,1197,1205,1206,1197,1208,1500,1508,11641,907
245555,1,2.09,3.16,-9.37,0.427,0.074,0.812,0.20,4.81,0.00,0.00,-0.20,-4.81,0.00,-0.63,-16.87,-2.72,-20.04,0.00,-0.36,-3.16,83.78,1141,1277,1275,1136,1208,1500,1508,11632,1174
245566,1,0.36,-4.66,-9.39,0.204,-0.006,0.804,-1.36,5.01,0.00,0.00,1.36,-5.01,0.00,4.81,-17.63,4.46,-12.97,0.00,0.48,0.55,82.79,1141,1277,1275,1136,1208,1500,1508,11620,1174
245579,1,-0.26,-3.78,-9.94,-0.010,-0.017,0.974,-1.86,3.68,0.00,0.00,1.86,-3.68,0.00,6.60,-13.02,6.85,-9.24,0.00,0.39,1.68,45.76,1141,1277,1275,1136,1208,1500,1508,11620,1174
245591,1,2.16,2.81,-9.21,-0.190,-0.133,1.094,-2.52,2.39,0.00,0.00,2.52,-2.39,0.00,8.91,-8.54,6.76,-11.35,0.00,-1.16,-0.43,60.84,1141,1277,1275,1136,1209,1500,1508,11620,1174
245602,1,-3.41,4.09,-10.28,-0.047,-0.020,0.823,-2.27,2.71,0.00,0.00,2.27,-2.71,0.00,8.08,-9.67,11.49,-13.76,0.00,1.74,-1.56,73.93,1141,1277,1275,1136,1209,1500,1508,11624,1174
245614,1,4.01,7.46,-11.64,-0.280,0.090,1.035,-2.42,1.85,0.00,0.00,2.42,-1.85,0.00,8.62,-6.68,4.61,-14.14,0.00,-1.63,-2.38,92.46,1141,1277,1275,1136,1210,1500,1508,11632,1174
245626,1,12.03,9.17,-10.40,-0.194,-0.099,1.220,-2.23,1.06,0.00,0.00,2.23,-1.06,0.00,7.97,-3.96,-4.06,-13.12,0.00,-5.44,-2.80,61.37,1141,1277,1275,1136,1210,1500,1508,11628,1174
245639,1,5.84,12.53,-8.93,-0.233,-0.443,0.951,-3.33,0.49,0.00,0.00,3.33,-0.49,0.00,11.85,-1.98,6.01,-14.51,0.00,-2.58,-5.89,6.25,1141,1277,1275,1136,1210,1500,1508,11607,1174
245651,1,-9.27,-6.81,-10.50,0.231,-0.107,0.568,-1.44,1.17,0.00,0.00,1.44,-1.17,0.00,5.24,-4.35,14.51,2.46,0.00,5.11,3.04,89.51,1139,1274,1287,1141,1211,1500,1508,11603,914
245662,1,-5.77,-9.41,-9.32,0.064,0.084,0.841,-0.90,1.73,0.00,0.00,0.90,-1.73,0.00,3.38,-6.33,9.15,3.08,0.00,4.30,3.87,68.42,1139,1274,1287,1141,1211,1500,1508,11612,914
245674,1,7.58,1.76,-10.60,-0.090,0.135,1.151,-2.03,0.41,0.00,0.00,2.03,-0.41,0.00,7.36,-1.71,-0.22,-3.47,0.00,-2.40,-1.85,97.24,1139,1274,1287,1141,1216,1500,1508,11603,914
245686,1,1.88,10.84,-12.69,0.343,-0.303,0.800,-2.15,0.14,0.00,0.00,2.15,-0.14,0.00,7.80,-0.76,5.92,-11.60,0.00,-0.03,-4.98,126.57,1139,1274,1287,1141,1218,1500,1508,11620,914
245699,1,-12.10,-8.27,-12.10,0.096,-0.219,0.832,-1.39,0.79,0.00,0.00,1.39,-0.79,0.00,5.14,-3.02,17.25,5.25,0.00,6.19,3.53,60.77,1139,1274,1287,1141,1218,1500,1508,11591,914
245711,1,-8.90,-0.66,-11.51,-0.113,-0.005,0.952,-1.28,-1.05,0.00,0.00,1.28,1.05,0.00,4.79,3.39,13.68,4.04,0.00,4.09,2.43,39.92,1139,1274,1287,1141,1223,1501,1508,11607,914
245722,1,1.25,-3.97,-10.97,0.169,-0.019,0.842,-1.61,2.02,0.00,0.00,1.61,-2.02,0.00,5.95,-7.34,4.71,-3.37,0.00,-0.70,3.22,22.96,1139,1274,1287,1141,1223,1501,1508,11632,914
245734,1,-0.44,-6.20,-11.24,-0.039,0.151,0.952,-1.57,2.86,0.00,0.00,1.57,-2.86,0.00,5.83,-10.33,6.28,-4.13,0.00,0.64,2.35,37.70,1139,1274,1287,1141,1223,1500,1508,11616,914
245746,1,2.27,-5.03,-11.40,-0.107,0.069,0.821,-1.30,0.71,0.00,0.00,1.30,-0.71,0.00,4.91,-2.80,2.64,2.23,0.00,-0.24,2.70,50.13,1139,1274,1287,1141,1233,1500,1508,11616,914
245759,1,3.30,-4.93,-10.16,-0.021,-0.080,0.923,-1.47,1.62,0.00,0.00,1.47,-1.62,0.00,5.49,-6.01,2.19,-1.08,0.00,-0.85,2.25,61.28,1170,1294,1294,1169,1233,1500,1508,11599,818
245771,1,-3.80,2.07,-12.39,-0.174,-0.075,1.139,-1.24,1.81,0.00,0.00,1.24,-1.81,0.00,4.71,-6.69,8.51,-8.76,0.00,2.51,-1.66,66.31,1170,1294,1294,1169,1239,1500,1508,11587,818
245782,1,-1.47,-3.88,-13.00,-0.265,0.284,1.040,-0.46,2.38,0.00,0.00,0.46,-2.38,0.00,2.01,-8.73,3.48,-4.85,0.00,1.92,0.32,66.03,1170,1294,1294,1169,1239,1500,1508,11599,818
245794,1,10.50,-2.35,-13.20,-0.167,0.382,0.937,-1.62,3.18,0.00,0.00,1.62,-3.18,0.00,6.08,-11.55,-4.43,-9.20,0.00,-3.33,0.16,59.14,1170,1294,1294,1169,1239,1500,1508,11591,818
245806,1,11.65,8.44,-14.66,0.067,0.071,0.987,-1.94,3.77,0.00,0.00,1.94,-3.77,0.00,7.21,-13.66,-4.44,-22.10,0.00,-4.96,-4.66,69.51,1170,1294,1294,1169,1240,1500,1508,11582,818
245819,1,-0.15,7.36,-13.87,0.389,-0.434,0.572,-4.01,8.42,0.00,0.00,4.01,-8.42,0.00,14.46,-29.99,14.61,-37.35,0.00,0.19,-5.32,73.56,1170,1294,1294,1169,1240,1500,1508,11562,818
245831,1,-6.89,-3.22,-13.67,-0.447,0.025,1.022,-2.36,6.37,0.00,0.00,2.36,-6.37,0.00,8.72,-22.88,15.62,-19.66,0.00,3.17,-0.59,39.85,1170,1294,1294,1169,1240,1500,1508,11562,818
245842,1,1.11,5.28,-12.83,-0.305,0.197,0.961,-1.21,2.88,0.00,0.00,1.21,-2.88,0.00,4.75,-10.72,3.63,-16.00,0.00,-0.05,-1.88,25.09,1170,1294,1294,1169,1240,1500,1508,11545,818
245855,1,7.81,9.24,-11.76,0.129,0.204,0.800,-0.23,3.40,0.00,0.00,0.23,-3.40,0.00,1.30,-12.56,-6.51,-21.80,0.00,-3.34,-3.30,57.56,1154,1328,1322,1161,1242,1500,1508,11549,820
245866,1,8.43,9.14,-10.81,0.058,-0.205,0.795,-3.65,5.57,0.00,0.00,3.65,-5.57,0.00,13.29,-20.20,4.86,-29.34,0.00,-3.91,-6.06,54.65,1154,1328,1322,1161,1249,1500,1508,11549,820
245879,1,4.21,-6.42,-10.51,-0.081,-0.277,0.855,-4.45,2.94,0.00,0.00,4.45,-2.94,0.00,16.15,-11.04,11.94,-4.62,0.00,-1.60,1.36,73.07,1154,1328,1322,1161,1249,1500,1508,11566,820
245891,1,-0.02,-3.10,-12.01,-0.051,-0.240,0.800,-3.93,0.39,0.00,0.00,3.93,-0.39,0.00,14.34,-2.10,14.36,1.00,0.00,1.01,1.33,91.55,1154,1328,1322,1161,1249,1500,1508,11578,820
245902,1,1.62,4.14,-11.11,-0.158,-0.128,0.911,-2.17,-0.03,0.00,0.00,2.17,0.03,0.00,8.22,-0.66,6.59,-4.81,0.00,0.58,-1.97,65.95,1154,1328,1322,1161,1249,1500,1508,11591,820
245914,1,-0.65,5.89,-11.11,0.079,-0.026,0.839,-2.44,2.15,0.00,0.00,2.44,-2.15,0.00,9.19,-8.30,9.84,-14.18,0.00,1.63,-3.38,67.27,1154,1328,1322,1161,1251,1500,1508,11578,820
245926,1,3.71,-6.70,-9.60,0.063,0.111,0.885,-3.00,2.95,0.00,0.00,3.00,-2.95,0.00,11.18,-11.10,7.47,-4.40,0.00,-0.70,1.38,49.62,1154,1328,1322,1161,1251,1500,1508,11553,820
245939,1,6.03,1.23,-9.05,-0.040,-0.055,0.909,-3.09,0.69,0.00,0.00,3.09,-0.69,0.00,11.50,-3.23,5.47,-4.45,0.00,-1.92,-1.23,77.97,1154,1328,1322,1161,1251,1500,1508,11570,820
245951,1,6.27,9.86,-6.63,-0.048,-0.257,0.870,-3.42,-0.78,0.00,0.00,3.42,0.78,0.00,12.69,1.92,6.42,-7.94,0.00,-2.53,-3.54,29.44,1214,1289,1282,1218,1251,1500,1508,11566,818
245962,1,-1.68,8.90,-5.20,-0.212,-0.481,0.845,-3.83,-2.44,0.00,0.00,3.83,2.44,0.00,14.16,7.76,15.83,-1.13,0.00,0.73,-2.74,24.59,1214,1289,1282,1218,1251,1500,1508,11566,818
245974,1,-8.10,-0.32,-7.32,-0.018,-0.174,0.785,-2.32,-4.18,0.00,0.00,2.32,4.18,0.00,8.90,13.90,16.99,14.22,0.00,3.79,2.38,102.67,1214,1289,1282,1218,1260,1500,1508,11557,818
245986,1,-6.63,1.02,-7.51,-0.385,-0.049,1.049,-0.76,-5.83,0.00,0.00,0.76,5.83,0.00,3.44,19.72,10.07,18.69,0.00,3.84,2.19,100.19,1214,1289,1282,1218,1266,1500,1509,11553,818
245999,1,0.45,6.71,-7.13,-0.034,0.194,0.890,0.38,-3.82,0.00,0.00,-0.38,3.82,0.00,-0.56,12.73,-1.00,6.02,0.00,0.43,-0.73,65.32,1214,1289,1282,1218,1266,1500,1509,11557,818
246011,1,9.74,-2.67,-5.93,0.380,-0.046,0.781,-2.48,1.54,0.00,0.00,2.48,-1.54,0.00,9.47,-6.03,-0.27,-3.36,0.00,-4.36,1.83,26.24,1214,1289,1282,1218,1270,1500,1509,11549,818
246022,1,10.25,-3.32,-5.07,0.263,-0.282,0.742,-4.92,2.85,0.00,0.00,4.92,-2.85,0.00,18.04,-10.62,7.79,-7.31,0.00,-4.57,-1.17,23.15,1214,1289,1282,1218,1270,1500,1509,11516,818
246034,1,6.12,-8.19,-4.38,-0.075,-0.329,0.646,-5.25,1.09,0.00,0.00,5.25,-1.09,0.00,19.22,-4.49,13.10,3.70,0.00,-2.53,1.42,22.83,1214,1289,1282,1218,1270,1500,1508,11503,818
246046,1,-2.72,-3.73,-4.03,-0.094,-0.411,0.808,-4.35,-1.45,0.00,0.00,4.35,1.45,0.00,16.12,4.43,18.84,8.16,0.00,1.78,1.15,28.12,1214,1289,1282,1218,1270,1500,1508,11499,818
246059,1,-0.81,-1.60,-3.06,-0.143,-0.192,1.008,-2.55,-1.68,0.00,0.00,2.55,1.68,0.00,9.86,5.23,10.67,6.83,0.00,0.93,0.26,38.27,1226,1316,1314,1221,1270,1500,1508,11503,815
246071,1,1.01,3.88,-2.44,0.062,0.003,0.816,-0.19,0.43,0.00,0.00,0.19,-0.43,0.00,1.58,-2.13,0.57,-6.02,0.00,0.19,-2.81,-21.10,1226,1316,1314,1221,1270,1500,1508,11508,815
246082,1,-2.55,8.21,-2.72,-0.028,-0.015,0.851,0.82,0.50,0.00,0.00,-0.82,-0.50,0.00,-1.95,-2.40,0.60,-10.61,0.00,1.58,-4.38,-12.00,1226,1316,1314,1221,1270,1500,1508,11528,815
246094,1,-5.61,-6.77,-2.90,-0.046,0.119,0.908,0.67,0.24,0.00,0.00,-0.67,-0.24,0.00,-1.42,-1.48,4.18,5.28,0.00,2.59,2.81,-5.95,1226,1316,1314,1221,1270,1500,1508,11520,815
246106,1,-3.63,4.75,-1.96,-0.338,0.281,1.079,0.52,-1.59,0.00,0.00,-0.52,1.59,0.00,-0.90,4.93,2.73,0.17,0.00,1.86,-1.52,-14.35,1226,1316,1314,1221,1270,1500,1508,11532,815
246119,1,-0.69,4.58,-2.42,-0.317,0.467,1.002,-0.14,-1.64,0.00,0.00,0.14,1.64,0.00,1.42,5.11,2.11,0.53,0.00,0.66,-1.18,45.52,1226,1316,1314,1221,1270,1500,1508,11503,815
246131,1,7.74,10.32,-1.96,-0.230,0.530,1.064,-0.20,-3.30,0.00,0.00,0.20,3.30,0.00,1.66,10.95,-6.08,0.63,0.00,-3.72,-3.22,-5.70,1226,1316,1314,1221,1271,1500,1508,11512,815
246142,1,14.92,8.89,-3.43,-0.085,0.279,1.056,-0.95,-3.70,0.00,0.00,0.95,3.70,0.00,4.30,12.37,-10.62,3.49,0.00,-7.43,-2.44,16.06,1226,1316,1314,1221,1271,1500,1508,11516,815
246154,1,16.66,9.94,-4.44,-0.076,0.098,1.079,-0.91,-5.22,0.00,0.00,0.91,5.22,0.00,4.14,17.76,-12.52,7.82,0.00,-7.96,-2.56,22.73,1228,1311,1317,1226,1271,1500,1508,11524,820
246167,1,10.80,3.07,-4.30,0.142,-0.113,0.830,-0.82,-4.72,0.00,0.00,0.82,4.72,0.00,3.84,16.03,-6.96,12.96,0.00,-5.15,1.61,14.45,1228,1311,1317,1226,1271,1500,1508,11532,820
246179,1,7.24,-3.29,-3.51,-0.002,-0.273,0.977,-0.57,-3.61,0.00,0.00,0.57,3.61,0.00,2.97,12.20,-4.27,15.49,0.00,-3.53,3.80,46.24,1228,1311,1317,1226,1271,1500,1508,11508,820
246191,1,-0.08,-1.17,-3.16,-0.188,-0.372,1.058,-0.31,-2.22,0.00,0.00,0.31,2.22,0.00,2.04,7.36,2.11,8.53,0.00,0.04,2.00,6.77,1228,1311,1317,1226,1271,1500,1508,11520,820
246202,1,0.53,-2.92,-2.46,-0.073,-0.246,0.938,-0.19,0.14,0.00,0.00,0.19,-0.14,0.00,1.62,-0.92,1.10,2.00,0.00,0.24,1.63,5.53,1228,1311,1317,1226,1271,1500,1508,11516,820
246214,1,-0.53,-3.53,-1.66,0.056,-0.037,0.864,0.69,2.68,0.00,0.00,-0.69,-2.68,0.00,-1.47,-9.83,-0.94,-6.30,0.00,1.19,-0.11,2.01,1228,1311,1317,1226,1271,1500,1508,11541,820
246226,1,0.10,-2.72,-0.68,0.089,-0.013,0.783,0.73,3.59,0.00,0.00,-0.73,-3.59,0.00,-1.62,-13.06,-1.71,-10.33,0.00,0.53,-1.55,-9.43,1228,1311,1317,1226,1271,1500,1508,11516,820
246239,1,4.98,1.41,0.12,-0.032,-0.210,1.108,-0.51,2.10,0.00,0.00,0.51,-2.10,0.00,2.72,-7.86,-2.26,-9.27,0.00,-1.92,-2.94,19.29,1228,1311,1317,1226,1271,1500,1508,11516,820
246251,1,1.99,0.17,0.05,-0.068,-0.345,1.126,-1.15,1.03,0.00,0.00,1.15,-1.03,0.00,4.97,-4.12,2.98,-4.29,0.00,-0.59,-1.37,-10.41,1269,1271,1271,1271,1271,1500,1508,11512,818
246262,1,-1.01,-3.11,-0.13,0.036,-0.390,0.912,-1.35,1.40,0.00,0.00,1.35,-1.40,0.00,5.67,-5.44,6.68,-2.33,0.00,0.65,0.79,-4.65,1269,1271,1271,1271,1271,1500,1508,11516,818
246274,1,-6.74,-3.69,-0.34,-0.211,-0.449,0.946,-1.06,1.87,0.00,0.00,1.06,-1.87,0.00,4.66,-7.12,11.40,-3.42,0.00,2.86,1.40,30.82,1269,1271,1271,1271,1274,1500,1508,11508,818
246286,1,-8.26,-1.12,-0.50,-0.402,-0.420,1.076,-1.85,0.69,0.00,0.00,1.85,-0.69,0.00,7.44,-3.00,15.69,-1.88,0.00,3.49,0.85,34.03,1269,1271,1271,1271,1282,1500,1508,11516,818
246299,1,-7.99,0.75,-1.68,-0.349,-0.265,1.052,-2.21,-0.42,0.00,0.00,2.21,0.42,0.00,8.70,0.86,16.69,0.11,0.00,3.49,0.25,55.21,1269,1271,1271,1271,1282,1500,1508,11491,818
246311,1,-8.66,3.54,-3.06,-0.344,-0.058,1.069,-1.68,0.14,0.00,0.00,1.68,-0.14,0.00,6.87,-1.12,15.53,-4.66,0.00,3.76,-1.81,40.80,1269,1271,1271,1271,1282,1500,1508,11491,818
246322,1,-6.27,3.08,-3.18,-0.245,-0.010,1.124,-1.05,0.14,0.00,0.00,1.05,-0.14,0.00,4.70,-1.10,10.97,-4.18,0.00,2.61,-1.92,33.11,1269,1271,1271,1271,1282,1500,1508,11495,818
246334,1,-5.56,4.74,-3.39,0.032,-0.002,0.851,-0.25,0.69,0.00,0.00,0.25,-0.69,0.00,1.90,-3.03,7.46,-7.77,0.00,2.24,-2.65,76.53,1269,1271,1271,1271,1285,1500,1508,11499,818
246346,1,-1.59,3.95,-2.83,0.002,0.048,0.875,0.11,-0.42,0.00,0.00,-0.11,0.42,0.00,0.64,0.83,2.23,-3.12,0.00,0.07,-2.13,59.68,1269,1271,1271,1271,1285,1500,1508,11491,818
246359,1,2.35,-0.80,-2.40,0.204,-0.073,0.777,0.06,0.29,0.00,0.00,-0.06,-0.29,0.00,0.80,-1.64,-1.54,-0.84,0.00,-2.03,-0.24,-0.12,1243,1326,1328,1241,1285,1500,1508,11474,815
246371,1,1.27,-1.54,-2.57,0.234,-0.208,0.737,-0.28,0.77,0.00,0.00,0.28,-0.77,0.00,1.99,-3.31,0.72,-1.77,0.00,-2.18,-0.07,33.14,1243,1326,1328,1241,1285,1500,1508,11478,815
246383,1,-0.02,-2.18,-2.91,0.319,-0.453,0.759,-1.17,1.81,0.00,0.00,1.17,-1.81,0.00,5.12,-6.97,5.15,-4.79,0.00,-2.32,-0.21,35.75,1243,1326,1328,1241,1285,1500,1508,11466,815
246395,1,-3.47,-4.97,-3.58,0.290,-0.672,0.792,-1.94,2.47,0.00,0.00,1.94,-2.47,0.00,7.80,-9.28,11.27,-4.31,0.00,-1.27,0.81,49.11,1243,1326,1328,1241,1285,1504,1504,11474,815
246406,1,-4.68,-14.27,-4.11,0.252,-0.680,0.644,-2.60,4.21,0.00,0.00,2.60,-4.21,0.00,10.12,-15.42,14.80,-1.15,0.00,-0.40,3.93,53.08,1243,1326,1328,1241,1285,1500,1508,11483,815
246419,1,-7.66,-9.61,-4.84,-0.007,-0.512,0.807,-1.51,4.08,0.00,0.00,1.51,-4.08,0.00,6.29,-15.03,13.94,-5.42,0.00,1.39,1.11,63.87,1243,1326,1328,1241,1285,1500,1508,11470,815
246431,1,-12.24,-4.09,-5.23,-0.135,-0.369,0.967,-0.98,3.33,0.00,0.00,0.98,-3.33,0.00,4.43,-12.43,16.67,-8.33,0.00,3.44,-0.62,24.99,1243,1326,1328,1241,1285,1500,1508,11474,815
246442,1,-15.23,2.74,-5.07,-0.109,-0.193,1.022,-0.72,3.27,0.00,0.00,0.72,-3.27,0.00,3.54,-12.26,18.77,-15.00,0.00,4.46,-2.47,19.85,1243,1326,1328,1241,1285,1500,1508,11462,815
246454,1,-14.90,3.10,-5.35,-0.018,-0.106,1.057,-1.12,5.06,0.00,0.00,1.12,-5.06,0.00,4.96,-18.59,19.86,-21.69,0.00,3.95,-2.20,29.00,1285,1288,1285,1288,1287,1500,1508,11466,815
246466,1,-10.93,-1.40,-5.59,0.148,0.022,0.966,-1.27,7.72,0.00,0.00,1.27,-7.72,0.00,5.50,-27.96,16.43,-26.56,0.00,2.23,-1.14,34.76,1285,1288,1285,1288,1289,1500,1508,11466,815
246479,1,-6.91,-0.86,-5.23,0.179,0.065,0.811,-1.33,8.90,0.00,0.00,1.33,-8.90,0.00,5.73,-32.16,12.63,-31.30,0.00,0.45,-2.17,23.73,1285,1288,1285,1288,1289,1500,1508,11466,815
246491,1,-5.62,2.69,-5.59,0.089,0.051,0.881,-1.15,8.18,0.00,0.00,1.15,-8.18,0.00,5.10,-29.74,10.71,-32.42,0.00,-0.21,-3.00,65.78,1285,1288,1285,1288,1290,1500,1508,11499,815
246502,1,-7.55,6.49,-6.50,0.019,-0.111,0.850,-1.15,5.90,0.00,0.00,1.15,-5.90,0.00,5.12,-21.81,12.67,-28.30,0.00,0.25,-2.69,74.40,1285,1288,1285,1288,1290,1500,1508,11483,815
246514,1,-9.30,9.85,-8.03,0.054,-0.300,0.870,-1.46,3.04,0.00,0.00,1.46,-3.04,0.00,6.21,-11.85,15.52,-21.70,0.00,0.43,-1.20,91.20,1285,1288,1285,1288,1290,1500,1508,11483,815
246526,1,-14.18,7.94,-9.08,0.012,-0.428,0.827,-1.57,1.22,0.00,0.00,1.57,-1.22,0.00,6.59,-5.48,20.77,-13.42,0.00,2.45,1.47,98.28,1285,1288,1285,1288,1291,1500,1508,11466,815
246539,1,-15.94,6.39,-8.66,-0.239,-0.309,0.843,-0.71,-1.39,0.00,0.00,0.71,1.39,0.00,3.59,3.66,19.53,-2.73,0.00,3.06,3.14,45.68,1285,1288,1285,1288,1291,1500,1508,11437,815
246551,1,-19.78,4.17,-7.81,-0.138,-0.361,0.843,-0.52,-3.17,0.00,0.00,0.52,3.17,0.00,2.90,9.89,22.68,5.72,0.00,4.86,5.15,69.56,1238,1337,1347,1240,1291,1500,1508,11428,815
246562,1,-18.87,6.14,-7.27,-0.173,-0.252,0.944,-0.57,-4.71,0.00,0.00,0.57,4.71,0.00,3.10,15.33,21.98,9.19,0.00,4.55,4.26,72.34,1238,1337,1347,1240,1291,1500,1508,11437,815
246575,1,-20.48,0.84,-7.69,0.279,-0.225,0.777,-1.07,-0.65,0.00,0.00,1.07,0.65,0.00,4.86,1.14,25.34,0.29,0.00,5.60,4.34,101.55,1238,1337,1347,1240,1293,1500,1508,11453,815
246586,1,-21.57,3.21,-8.42,0.443,-0.140,0.770,-1.43,6.27,0.00,0.00,1.43,-6.27,0.00,6.14,-23.12,27.70,-26.34,0.00,5.97,0.38,120.32,1238,1337,1347,1240,1295,1500,1508,11491,815
246599,1,-20.23,12.43,-8.08,0.320,-0.069,0.762,-1.05,10.71,0.00,0.00,1.05,-10.71,0.00,4.81,-38.76,25.04,-51.19,0.00,4.70,-4.59,65.72,1238,1337,1347,1240,1295,1500,1508,11470,815
246611,1,-16.67,17.15,-6.90,0.182,-0.136,0.731,-0.39,11.30,0.00,0.00,0.39,-11.30,0.00,2.51,-40.92,19.18,-58.07,0.00,2.21,-5.01,70.32,1238,1337,1347,1240,1295,1500,1508,11470,815
246622,1,-15.50,23.46,-5.76,0.130,-0.267,0.822,-0.77,9.08,0.00,0.00,0.77,-9.08,0.00,3.83,-33.26,19.32,-56.72,0.00,0.83,-5.37,46.60,1238,1337,1347,1240,1295,1500,1508,11449,815
246634,1,-16.89,20.73,-5.59,0.124,-0.520,0.835,-2.09,7.42,0.00,0.00,2.09,-7.42,0.00,8.46,-27.53,25.35,-48.27,0.00,1.00,-2.30,39.15,1238,1337,1347,1240,1296,1500,1508,11462,815
246647,1,-20.26,17.95,-6.01,0.034,-0.650,0.825,-3.14,5.88,0.00,0.00,3.14,-5.88,0.00,12.15,-22.19,32.42,-40.14,0.00,2.53,0.24,45.45,1238,1337,1347,1240,1296,1500,1508,11458,815
246659,1,-20.61,17.49,-7.21,-0.255,-0.573,1.000,-3.15,3.64,0.00,0.00,3.15,-3.64,0.00,12.22,-14.38,32.83,-31.88,0.00,2.65,1.02,69.17,1241,1354,1348,1239,1296,1500,1508,11449,814
246671,1,-24.89,21.70,-7.20,-0.338,-0.410,1.057,-2.59,1.74,0.00,0.00,2.59,-1.74,0.00,10.25,-7.77,35.15,-29.48,0.00,4.75,-0.54,70.04,1241,1354,1348,1239,1296,1500,1508,11433,814
246682,1,-33.02,22.71,-7.34,-0.210,-0.315,1.041,-2.02,3.30,0.00,0.00,2.02,-3.30,0.00,8.31,-13.27,41.33,-35.98,0.00,8.17,-0.82,74.10,1241,1354,1348,1239,1296,1500,1508,11420,814
246694,1,-34.69,23.35,-7.61,0.117,-0.097,0.864,-1.50,6.95,0.00,0.00,1.50,-6.95,0.00,6.49,-26.12,41.18,-49.47,0.00,7.91,-1.07,41.67,1241,1354,1348,1239,1297,1500,1508,11428,814
246706,1,-29.75,27.61,-6.77,-0.195,0.103,1.014,-1.13,6.81,0.00,0.00,1.13,-6.81,0.00,5.23,-25.70,34.97,-53.31,0.00,4.91,-3.39,28.63,1241,1354,1348,1239,1297,1500,1508,11424,814
246719,1,-29.55,23.01,-5.20,-0.216,0.148,0.944,-0.27,3.36,0.00,0.00,0.27,-3.36,0.00,2.20,-13.68,31.75,-36.69,0.00,4.44,-0.79,5.28,1241,1354,1348,1239,1297,1500,1508,11441,814
246731,1,-27.81,21.17,-4.53,-0.043,0.067,0.897,-0.31,-0.38,0.00,0.00,0.31,0.38,0.00,2.38,-0.58,30.19,-21.75,0.00,2.99,0.58,37.10,1241,1354,1348,1239,1297,1500,1508,11445,814
246742,1,-26.73,21.41,-4.85,0.220,-0.069,0.845,-1.32,-0.68,0.00,0.00,1.32,0.68,0.00,5.90,0.49,32.63,-20.92,0.00,1.74,0.18,56.94,1241,1354,1348,1239,1297,1500,1508,11453,814
246754,1,-31.52,26.19,-6.31,0.012,-0.246,0.920,-1.77,-0.88,0.00,0.00,1.77,0.88,0.00,7.49,1.18,39.01,-25.01,0.00,2.86,-1.43,86.91,1273,1314,1316,1287,1298,1500,1508,11462,815
246766,1,-35.45,19.43,-7.26,-0.100,-0.360,0.995,-2.10,-2.39,0.00,0.00,2.10,2.39,0.00,8.66,6.50,44.11,-12.93,0.00,3.82,3.18,97.29,1273,1314,1316,1287,1298,1500,1508,11470,815
246779,1,-38.17,10.20,-7.60,-0.116,-0.445,0.904,-2.23,-2.78,0.00,0.00,2.23,2.78,0.00,9.14,7.86,47.31,-2.34,0.00,4.97,6.51,61.49,1273,1314,1316,1287,1298,1500,1508,11458,815
246791,1,-39.48,13.57,-7.49,-0.147,-0.463,0.932,-2.16,-2.76,0.00,0.00,2.16,2.76,0.00,8.91,7.81,48.39,-5.75,0.00,5.31,3.56,90.70,1273,1314,1316,1287,1298,1500,1508,11449,815
246802,1,-43.73,10.89,-6.92,-0.011,-0.522,0.873,-2.05,1.05,0.00,0.00,2.05,-1.05,0.00,8.53,-5.53,52.26,-16.42,0.00,6.62,2.67,78.20,1273,1314,1316,1287,1298,1500,1508,11437,815
246814,1,-46.58,19.67,-6.30,-0.010,-0.455,0.873,-2.41,2.58,0.00,0.00,2.41,-2.58,0.00,9.79,-10.90,56.38,-30.57,0.00,7.10,-1.63,71.54,1273,1314,1316,1287,1298,1500,1508,11433,815
246826,1,-47.43,20.28,-5.56,-0.053,-0.355,0.956,-2.94,2.65,0.00,0.00,2.94,-2.65,0.00,11.69,-11.18,59.12,-31.45,0.00,6.72,-1.68,61.21,1273,1314,1316,1287,1298,1500,1508,11433,815
246839,1,-44.13,17.57,-5.34,0.084,-0.229,0.935,-3.02,2.33,0.00,0.00,3.02,-2.33,0.00,12.00,-10.07,56.13,-27.64,0.00,4.47,-0.64,22.98,1273,1314,1316,1287,1298,1500,1508,11433,815
246851,1,-39.20,10.88,-5.12,0.173,-0.064,0.936,-3.36,3.16,0.00,0.00,3.36,-3.16,0.00,13.20,-13.01,52.40,-23.88,0.00,1.98,0.58,46.70,1261,1331,1336,1262,1298,1500,1508,11445,815
246862,1,-39.32,13.41,-5.29,0.107,0.138,0.803,-2.51,2.79,0.00,0.00,2.51,-2.79,0.00,10.28,-11.74,49.59,-25.16,0.00,1.61,-1.46,49.33,1261,1331,1336,1262,1298,1500,1508,11441,815
246874,1,-35.93,10.99,-4.64,0.215,0.146,0.774,-2.60,1.73,0.00,0.00,2.60,-1.73,0.00,10.60,-8.03,46.53,-19.01,0.00,-0.53,-0.48,41.20,1261,1331,1336,1262,1298,1500,1508,11445,815
246886,1,-35.18,11.93,-4.57,0.302,0.095,0.765,-3.03,1.56,0.00,0.00,3.03,-1.56,0.00,12.12,-7.44,47.31,-19.37,0.00,-1.39,-0.98,44.41,1261,1331,1336,1262,1298,1500,1508,11458,815
246899,1,-34.38,11.47,-5.89,0.252,0.023,0.761,-3.60,0.73,0.00,0.00,3.60,-0.73,0.00,14.17,-4.55,48.55,-16.01,0.00,-2.15,-0.59,84.91,1261,1331,1336,1262,1298,1500,1508,11449,815
246911,1,-35.68,13.75,-6.62,0.085,-0.059,0.850,-3.61,-1.43,0.00,0.00,3.61,1.43,0.00,14.21,3.04,49.90,-10.71,0.00,-1.84,-0.88,74.20,1261,1331,1336,1262,1298,1500,1508,11453,815
246922,1,-40.50,5.89,-6.66,0.011,-0.152,0.773,-4.08,-3.43,0.00,0.00,4.08,3.43,0.00,15.89,10.06,56.39,4.17,0.00,0.10,2.99,68.64,1261,1331,1336,1262,1298,1500,1508,11462,815
246934,1,-45.25,0.00,-5.99,0.156,-0.248,0.690,-4.47,-3.87,0.00,0.00,4.47,3.87,0.00,17.29,11.66,62.55,11.65,0.00,1.83,4.66,23.28,1261,1331,1336,1262,1298,1500,1508,11466,815
246946,1,-47.41,-10.71,-5.97,0.289,-0.314,0.679,-5.83,0.69,0.00,0.00,5.83,-0.69,0.00,22.11,-4.29,69.52,6.42,0.00,2.51,5.79,21.41,1261,1331,1336,1262,1298,1500,1508,11445,815
246959,1,-48.54,-8.22,-5.15,0.272,-0.265,0.670,-6.04,7.05,0.00,0.00,6.04,-7.05,0.00,22.90,-26.61,71.44,-18.40,0.00,2.73,0.96,-0.61,1299,1293,1304,1294,1298,1500,1508,11428,815
246971,1,-52.29,-1.97,-4.75,0.060,-0.070,0.778,-5.06,10.20,0.00,0.00,5.06,-10.20,0.00,19.51,-37.72,71.80,-35.75,0.00,4.02,-3.41,38.04,1299,1293,1304,1294,1298,1500,1508,11428,815
246983,1,-56.64,2.33,-4.00,-0.263,0.107,0.977,-4.14,8.69,0.00,0.00,4.14,-8.69,0.00,16.32,-32.55,72.96,-34.88,0.00,5.54,-5.09,29.22,1299,1293,1304,1294,1298,1500,1508,11449,815
246994,1,-52.18,-8.61,-5.08,-0.025,0.321,0.937,-4.28,6.98,0.00,0.00,4.28,-6.98,0.00,16.87,-26.64,69.04,-18.03,0.00,3.56,-0.49,11.43,1299,1293,1304,1294,1298,1500,1508,11445,815
247006,1,-50.44,-12.19,-5.56,0.369,0.497,0.740,-4.40,10.05,0.00,0.00,4.40,-10.05,0.00,17.37,-37.45,67.80,-25.26,0.00,3.05,-1.43,21.05,1299,1293,1304,1294,1298,1500,1508,11441,815
247019,1,-51.52,-6.63,-5.61,0.278,0.553,0.802,-4.42,10.43,0.00,0.00,4.42,-10.43,0.00,17.50,-38.88,69.01,-32.26,0.00,3.56,-4.64,22.85,1299,1293,1304,1294,1298,1500,1508,11437,815
247031,1,-46.32,-11.07,-5.09,0.257,0.389,0.806,-4.56,8.98,0.00,0.00,4.56,-8.98,0.00,18.04,-33.88,64.35,-22.81,0.00,1.26,-1.63,55.26,1299,1293,1304,1294,1298,1500,1508,11428,815
247042,1,-40.38,-14.12,-4.65,0.214,0.281,0.773,-5.06,6.99,0.00,0.00,5.06,-6.99,0.00,19.84,-26.98,60.22,-12.86,0.00,-1.12,-0.44,48.50,1299,1293,1304,1294,1298,1500,1508,11441,815
247054,1,-40.27,-14.80,-4.45,0.146,0.177,0.728,-4.85,5.24,0.00,0.00,4.85,-5.24,0.00,19.14,-20.91,59.41,-6.11,0.00,-0.91,-0.56,36.88,1224,1365,1375,1226,1298,1500,1508,11437,820
247066,1,-41.28,-7.74,-4.13,-0.161,0.041,0.898,-4.39,0.97,0.00,0.00,4.39,-0.97,0.00,17.56,-5.99,58.85,1.75,0.00,-0.30,-2.84,27.14,1224,1365,1375,1226,1298,1500,1508,11416,820
247079,1,-43.80,-8.46,-3.26,-0.338,-0.070,0.918,-3.98,-3.68,0.00,0.00,3.98,3.68,0.00,16.19,10.29,59.99,18.75,0.00,0.83,-0.93,30.87,1224,1365,1375,1226,1298,1500,1508,11416,820
247091,1,-48.39,-7.20,-2.30,-0.542,-0.530,1.117,-5.36,-7.56,0.00,0.00,5.36,7.56,0.00,21.05,23.94,69.45,31.14,0.00,2.87,-0.36,24.74,1224,1365,1375,1226,1298,1500,1508,11412,820
247102,1,-45.55,-13.36,-5.23,-0.566,-0.549,1.199,-7.34,-9.58,0.00,0.00,7.34,9.58,0.00,28.03,31.10,73.58,44.46,0.00,2.48,1.02,81.33,1224,1365,1375,1226,1298,1500,1508,11412,820
247114,1,-44.37,-24.84,-6.85,-0.121,-0.131,0.775,-6.84,-8.22,0.00,0.00,6.84,8.22,0.00,26.35,26.42,70.73,51.26,0.00,3.43,4.65,70.77,1224,1365,1375,1226,1298,1500,1508,11408,820
247126,1,-47.10,-21.09,-7.45,-0.327,0.083,0.982,-5.42,-7.54,0.00,0.00,5.42,7.54,0.00,21.45,24.13,68.55,45.23,0.00,5.58,1.54,67.37,1224,1365,1375,1226,1298,1500,1508,11395,820
247139,1,-51.19,-23.68,-7.15,-0.190,0.255,0.897,-3.81,-6.10,0.00,0.00,3.81,6.10,0.00,15.85,19.14,67.04,42.83,0.00,7.89,1.87,73.89,1224,1365,1375,1226,1298,1500,1508,11395,820
247151,1,-53.39,-27.12,-5.62,0.056,0.386,0.843,-2.95,-2.58,0.00,0.00,2.95,2.58,0.00,12.89,6.86,66.28,33.99,0.00,8.79,1.60,54.12,1243,1341,1354,1251,1298,1500,1508,11366,820
247162,1,-54.57,-21.69,-4.33,0.171,0.454,0.807,-2.71,2.65,0.00,0.00,2.71,-2.65,0.00,12.09,-11.45,66.66,10.23,0.00,8.89,-2.35,47.47,1243,1341,1354,1251,1298,1500,1508,11378,820
247174,1,-50.67,-12.03,-3.17,0.002,0.270,0.838,-3.03,3.61,0.00,0.00,3.03,-3.61,0.00,13.27,-14.87,63.94,-2.84,0.00,6.58,-5.09,83.53,1243,1341,1354,1251,1298,1500,1508,11387,820
247187,1,-38.85,-10.11,-4.24,-0.051,0.139,1.034,-4.55,0.92,0.00,0.00,4.55,-0.92,0.00,18.65,-5.47,57.50,4.64,0.00,1.43,-4.27,113.63,1243,1341,1354,1251,1298,1500,1508,11399,820
247199,1,-29.30,-18.30,-6.78,-0.023,0.123,0.875,-6.00,0.53,0.00,0.00,6.00,-0.53,0.00,23.77,-4.11,53.07,14.19,0.00,-1.95,-1.29,140.47,1243,1341,1354,1251,1298,1500,1508,11408,820
247211,1,-26.40,-21.53,-7.71,-0.135,0.060,0.851,-6.46,-1.53,0.00,0.00,6.46,1.53,0.00,25.46,3.14,51.86,24.66,0.00,-2.34,-0.16,133.97,1243,1341,1354,1251,1298,1500,1508,11420,820
247222,1,-28.42,-25.22,-6.86,0.148,-0.015,0.780,-7.13,-0.55,0.00,0.00,7.13,0.55,0.00,27.85,-0.28,56.27,24.94,0.00,-0.75,1.13,100.22,1243,1341,1354,1251,1298,1500,1508,11387,820
247234,1,-32.35,-12.64,-6.84,-0.246,0.140,1.026,-5.99,-1.63,0.00,0.00,5.99,1.63,0.00,23.94,3.50,56.28,16.15,0.00,1.06,-3.40,149.67,1243,1341,1354,1251,1297,1500,1508,11362,820
247246,1,-37.99,-18.42,-6.35,-0.333,0.013,1.192,-5.41,-3.91,0.00,0.00,5.41,3.91,0.00,21.96,11.50,59.95,29.92,0.00,3.45,1.35,152.68,1243,1341,1354,1251,1297,1500,1508,11354,820
247259,1,-34.35,-41.18,-8.76,-0.028,-0.221,1.024,-8.43,-2.03,0.00,0.00,8.43,2.03,0.00,32.59,4.96,66.94,46.15,0.00,2.67,8.63,219.22,1123,1462,1478,1122,1297,1500,1508,11345,815
247271,1,-24.79,-29.72,-11.31,0.085,0.071,1.000,-7.57,-3.93,0.00,0.00,7.57,3.93,0.00,29.67,11.63,54.47,41.36,0.00,-0.67,0.19,257.83,1123,1462,1478,1122,1297,1500,1508,11333,815
247282,1,-22.42,-37.81,-8.12,0.089,0.066,0.946,-7.41,-3.96,0.00,0.00,7.41,3.96,0.00,29.19,11.77,51.60,49.58,0.00,-1.58,1.70,184.15,1123,1462,1478,1122,1297,1500,1508,11312,815
247294,1,-25.09,-42.37,-5.72,0.316,-0.128,0.859,-6.52,-3.51,0.00,0.00,6.52,3.51,0.00,26.13,10.26,51.22,52.62,0.00,-0.89,3.31,187.44,1123,1462,1478,1122,1297,1500,1508,11304,815
247307,1,-40.20,-56.38,-0.55,0.197,-0.531,0.759,-7.36,-2.51,0.00,0.00,7.36,2.51,0.00,29.13,6.79,69.33,63.18,0.00,5.45,8.83,126.31,1123,1462,1478,1122,1295,1500,1508,11258,815
247319,1,-48.93,-37.53,1.68,-0.276,-0.447,1.204,-5.54,-3.65,0.00,0.00,5.54,3.65,0.00,22.78,10.81,71.71,48.34,0.00,8.81,0.29,81.90,1123,1462,1478,1122,1295,1500,1508,11254,815
247331,1,-51.17,-42.68,6.51,-0.362,0.046,1.155,-3.66,-1.62,0.00,0.00,3.66,1.62,0.00,16.24,3.69,67.41,46.37,0.00,9.36,3.09,90.97,1123,1462,1478,1122,1290,1500,1508,11304,815
247342,1,-38.89,-42.56,10.81,0.317,0.149,0.718,-4.51,1.34,0.00,0.00,4.51,-1.34,0.00,19.29,-6.67,58.18,35.90,0.00,3.18,1.46,69.29,1123,1462,1478,1122,1290,1500,1508,11308,815
247354,1,-26.52,-0.99,20.76,-0.128,-0.374,1.353,-7.70,-1.12,0.00,0.00,7.70,1.12,0.00,30.51,1.94,57.03,2.93,0.00,-2.50,-15.84,-76.56,1297,1276,1283,1303,1290,1500,1509,11354,823
247366,1,-20.49,-11.26,34.77,-0.136,-0.203,0.992,-8.46,-3.14,0.00,0.00,8.46,3.14,0.00,33.25,9.04,53.74,20.30,0.00,-2.84,-4.37,-200.47,1297,1276,1283,1303,1286,1500,1508,11362,823
247379,1,-21.83,-15.88,38.63,0.039,-0.192,0.862,-9.62,-2.80,0.00,0.00,9.62,2.80,0.00,37.40,7.90,59.23,23.79,0.00,1.02,1.75,-112.12,1297,1276,1283,1303,1286,1500,1508,11391,823
247391,1,-15.54,6.71,35.91,-0.190,-0.283,1.277,-9.86,-3.60,0.00,0.00,9.86,3.60,0.00,38.33,10.72,53.87,4.01,0.00,0.96,-5.53,25.17,1297,1276,1283,1303,1285,1500,1508,11399,823
247402,1,-5.07,-1.83,28.14,-0.199,-0.410,0.919,-11.20,-4.92,0.00,0.00,11.20,4.92,0.00,43.12,15.40,48.19,17.23,0.00,-1.18,-1.05,168.31,1297,1276,1283,1303,1285,1500,1508,11416,823
247414,1,3.93,-17.21,22.92,-0.024,-0.140,0.716,-11.90,-4.40,0.00,0.00,11.90,4.40,0.00,45.69,13.62,41.76,30.83,0.00,-2.16,3.87,222.11,1297,1276,1283,1303,1285,1500,1508,11408,823
247426,1,8.06,-17.79,17.78,-0.117,0.136,1.001,-10.08,-3.82,0.00,0.00,10.08,3.82,0.00,39.44,11.62,31.38,29.41,0.00,-1.94,3.19,257.77,1297,1276,1283,1303,1265,1502,1506,11412,823
247439,1,7.52,-9.57,15.21,-0.177,0.230,1.042,-8.45,-2.39,0.00,0.00,8.45,2.39,0.00,33.83,6.65,26.31,16.21,0.00,-0.18,-1.32,237.98,1297,1276,1283,1303,1265,1502,1506,11428,823
247451,1,9.58,-1.73,15.75,-0.265,0.249,1.066,-6.95,-3.98,0.00,0.00,6.95,3.98,0.00,28.64,12.24,19.06,13.97,0.00,-0.33,-4.17,236.83,1100,1477,1471,1100,1253,1500,1508,11424,815
247462,1,14.78,-12.34,17.85,0.116,0.155,0.892,-6.22,-3.94,0.00,0.00,6.22,3.94,0.00,26.16,12.12,11.38,24.46,0.00,-2.09,1.74,183.52,1100,1477,1471,1100,1253,1500,1508,11374,815
247474,1,19.55,-7.35,21.00,0.401,-0.101,0.684,-6.22,-2.10,0.00,0.00,6.22,2.10,0.00,26.21,5.73,6.66,13.08,0.00,-3.77,-0.57,139.95,1100,1477,1471,1100,1245,1500,1508,11333,815
247487,9,24.36,-6.80,23.12,0.327,-0.566,0.701,-8.00,-0.66,0.00,0.00,8.00,0.66,0.00,32.50,0.71,8.14,7.50,0.00,-5.52,-1.21,123.60,1100,1477,1471,1100,1192,1500,1508,11333,815
247499,9,28.75,-19.08,18.81,-0.046,-0.772,0.992,-10.13,-1.89,0.00,0.00,10.13,1.89,0.00,35.47,6.62,6.72,25.71,0.00,-7.12,4.15,208.56,1100,1477,1471,1100,1192,1500,1508,11308,815
247511,9,25.66,-37.12,15.16,-0.111,-0.524,0.945,-9.19,-3.96,0.00,0.00,9.19,3.96,0.00,32.17,13.86,6.51,50.98,0.00,-2.38,10.93,260.10,1100,1477,1471,1100,1169,1500,1508,11324,815
247522,9,17.49,-36.84,15.37,-0.093,-0.362,0.960,-7.85,-2.39,0.00,0.00,7.85,2.39,0.00,27.47,8.35,9.97,45.19,0.00,4.07,7.78,234.65,1100,1477,1471,1100,1169,1500,1508,11366,815
247534,9,23.52,-19.35,18.31,-0.204,-0.108,0.988,-5.68,-2.35,0.00,0.00,5.68,2.35,0.00,19.89,8.21,-3.63,27.56,0.00,2.73,-0.99,224.83,1100,1477,1471,1100,1125,1500,1508,11374,815
247546,9,35.88,-28.56,21.93,-0.156,0.084,0.906,-4.89,-2.50,0.00,0.00,4.89,2.50,0.00,17.13,8.76,-18.75,37.32,0.00,-2.36,2.06,177.36,1100,1477,1471,1100,1102,1500,1508,11391,815
247559,9,44.73,-24.06,27.62,0.239,-0.172,0.787,-6.89,-1.27,0.00,0.00,6.89,1.27,0.00,24.10,4.44,-20.63,28.50,0.00,-5.58,-0.48,121.68,1100,1100,1100,1100,1102,1500,1508,11437,817
247571,9,53.02,-18.28,39.92,0.323,-0.271,0.874,-9.11,2.49,0.00,0.00,9.11,-2.49,0.00,31.89,-8.71,-21.13,9.57,0.00,-7.28,-2.28,-32.11,1100,1100,1100,1100,1037,1500,1508,11453,817
247582,9,54.00,-11.20,49.71,0.022,-0.265,0.597,-10.19,3.81,0.00,0.00,10.19,-3.81,0.00,35.65,-13.32,-18.35,-2.13,0.00,-4.43,-2.06,-78.94,1100,1100,1100,1100,1037,1500,1508,11495,817
247594,9,52.87,10.45,49.17,-0.174,-0.384,0.733,-9.11,-0.37,0.00,0.00,9.11,0.37,0.00,31.88,1.28,-20.99,-9.17,0.00,-1.85,-6.74,36.27,1100,1100,1100,1100,1038,1500,1508,11524,817
247606,9,68.42,-16.62,40.56,0.022,-0.426,0.895,-10.15,-1.55,0.00,0.00,10.15,1.55,0.00,35.54,5.43,-32.88,22.05,0.00,-5.57,5.69,226.39,1100,1100,1100,1100,1036,1500,1508,11549,817
247619,9,88.51,-30.58,32.95,-0.025,0.023,0.676,-9.60,-2.86,0.00,0.00,9.60,2.86,0.00,33.61,10.02,-54.89,40.60,0.00,-10.38,7.80,305.49,1100,1100,1100,1100,1036,1500,1508,11599,817
247631,9,95.35,-37.79,31.03,0.095,-0.398,0.515,-10.89,-1.58,0.00,0.00,10.89,1.58,0.00,38.10,5.53,-57.25,43.32,0.00,-10.50,7.43,263.58,1100,1100,1100,1100,1034,1500,1508,11612,817
247642,9,83.86,-31.71,29.93,-0.087,-0.241,0.557,-8.57,-3.67,0.00,0.00,8.57,3.67,0.00,29.98,12.84,-53.88,44.55,0.00,-3.26,1.71,240.55,1100,1100,1100,1100,1034,1500,1508,11637,817
247654,9,90.24,-34.56,36.35,0.182,-0.149,0.555,-10.03,-1.52,0.00,0.00,10.03,1.52,0.00,35.11,5.33,-55.13,39.89,0.00,-3.61,2.87,78.83,1100,1100,1100,1100,1034,1500,1508,11657,820
247666,9,116.30,-23.08,40.91,-0.044,0.031,0.678,-12.51,2.08,0.00,0.00,12.51,-2.08,0.00,43.78,-7.29,-72.52,15.79,0.00,-12.70,-1.47,34.08,1100,1100,1100,1100,1036,1500,1509,11678,820
247679,9,116.57,2.55,45.26,-0.336,-0.534,0.783,-14.18,4.09,0.00,0.00,14.18,-4.09,0.00,49.64,-14.33,-66.93,-16.88,0.00,-10.82,-12.38,-307.06,1100,1100,1100,1100,1036,1500,1509,11703,820
247691,9,119.79,12.02,51.28,0.127,-0.263,0.492,-12.75,5.40,0.00,0.00,12.75,-5.40,0.00,44.62,-18.92,-75.16,-30.94,0.00,-8.30,-12.21,-350.00,1100,1100,1100,1100,1036,1500,1508,11699,820
247703,9,134.30,2.90,52.51,-0.077,-0.547,0.643,-16.11,5.20,0.00,0.00,16.11,-5.20,0.00,56.38,-18.21,-77.92,-21.10,0.00,-10.87,-3.18,-317.89,1100,1100,1100,1100,1036,1500,1508,11716,820
247714,9,153.08,13.92,48.74,-0.096,-0.565,0.809,-15.61,-0.41,0.00,0.00,15.61,0.41,0.00,54.65,1.45,-98.43,-12.47,0.00,-15.30,-4.33,-79.59,1100,1100,1100,1100,1035,1500,1508,11724,820
247726,9,156.15,-4.74,44.79,-0.244,-0.378,0.888,-13.69,-3.50,0.00,0.00,13.69,3.50,0.00,47.93,12.27,-108.22,17.01,0.00,-11.44,3.67,-16.64,1100,1100,1100,1100,1035,1500,1508,11720,820
247739,9,179.54,-37.91,40.57,0.053,0.008,0.285,-12.77,-3.48,0.00,0.00,12.77,3.48,0.00,44.70,12.17,-134.84,50.08,0.00,-15.12,15.84,1.05,1100,1100,1100,1100,1035,1500,1508,11720,820
247751,9,199.30,-40.27,39.70,0.013,-0.183,0.082,-13.93,-2.18,0.00,0.00,13.93,2.18,0.00,48.76,7.64,-150.55,47.91,0.00,-19.13,11.91,-110.38,1100,1100,1100,1100,1034,1500,1508,11724,835
247762,9,195.83,-11.13,37.97,-0.157,-0.121,0.454,-9.97,-3.40,0.00,0.00,9.97,3.40,0.00,34.91,11.91,-160.92,23.04,0.00,-13.22,-4.85,-101.30,1100,1100,1100,1100,1034,1500,1508,11711,835
247774,9,199.53,1.31,41.23,0.039,0.105,0.387,-6.12,-4.94,0.00,0.00,6.12,4.94,0.00,21.43,17.30,-178.10,15.99,0.00,-10.70,-7.67,-123.43,1100,1100,1100,1100,1035,1500,1508,11716,835
247786,9,208.71,8.47,46.13,-0.991,-0.845,0.120,-12.63,-9.03,0.00,0.00,12.63,9.03,0.00,44.21,31.59,-164.50,23.12,0.00,-9.59,-6.08,-188.24,1100,1100,1100,1100,1035,1500,1508,11711,835
247799,9,-56.97,86.16,21.59,-0.362,-2.926,3.892,-8.18,-8.12,0.00,0.00,8.18,8.12,0.00,28.64,28.43,85.60,-57.73,0.00,89.80,-29.83,191.99,1100,1100,1100,1100,1035,1500,1508,11703,835
247811,9,42.97,-30.35,35.82,0.447,-1.614,2.226,-9.19,-5.43,0.00,0.00,9.19,5.43,0.00,32.17,18.99,-10.81,49.33,0.00,16.19,30.28,-40.21,1100,1100,1100,1100,1035,1500,1508,11707,835
