time_ms,flags,gyro_x,gyro_y,gyro_z,accel_x,accel_y,accel_z,roll,pitch,angle_sp_roll,angle_sp_pitch,angle_err_roll,angle_err_pitch,angle_i_roll,rate_sp_roll,rate_sp_pitch,rate_err_roll,rate_err_pitch,rate_i_roll,pid_roll,pid_pitch,pid_yaw,m1,m2,m3,m4,rc_thr,rc_roll,rc_pitch,battery_mv,loop_us
283499,9,0.08,-0.03,0.01,0.015,-0.066,0.887,-2.86,0.78,0.00,0.00,2.86,-0.78,0.00,10.00,-2.74,9.93,-2.71,0.00,0.39,-0.11,0.23,1000,1000,1000,1000,1034,1500,1506,11915,823
283511,9,0.12,-0.03,-0.03,0.015,-0.068,0.888,-2.85,0.77,0.00,0.00,2.85,-0.77,0.00,9.99,-2.70,9.87,-2.67,0.00,0.38,-0.11,0.52,1000,1000,1000,1000,1034,1500,1506,11915,823
283522,9,0.12,-0.04,0.02,0.016,-0.067,0.889,-2.84,0.77,0.00,0.00,2.84,-0.77,0.00,9.95,-2.68,9.83,-2.63,0.00,0.38,-0.10,-0.50,1000,1000,1000,1000,1034,1500,1506,11915,823
283534,9,0.11,-0.03,0.04,0.017,-0.068,0.889,-2.84,0.78,0.00,0.00,2.84,-0.78,0.00,9.96,-2.72,9.85,-2.69,0.00,0.39,-0.11,-0.49,1000,1000,1000,1000,1034,1500,1506,11915,823
283546,9,0.09,-0.04,0.01,0.014,-0.068,0.888,-2.86,0.76,0.00,0.00,2.86,-0.76,0.00,10.00,-2.64,9.91,-2.61,0.00,0.40,-0.11,0.22,1000,1000,1000,1000,1034,1500,1506,11911,823
283559,9,0.11,-0.01,0.04,0.013,-0.069,0.889,-2.87,0.72,0.00,0.00,2.87,-0.72,0.00,10.05,-2.51,9.94,-2.50,0.00,0.39,-0.11,36.25,1100,1100,1100,1100,1034,1500,1506,11911,867
283571,9,0.12,-0.03,0.04,0.015,-0.068,0.889,-2.88,0.71,0.00,0.00,2.88,-0.71,0.00,10.07,-2.47,9.95,-2.44,0.00,0.39,-0.10,-0.26,1100,1100,1100,1100,1034,1500,1506,11911,867
283582,9,0.12,0.00,0.04,0.015,-0.069,0.887,-2.87,0.71,0.00,0.00,2.87,-0.71,0.00,10.06,-2.47,9.94,-2.47,0.00,0.39,-0.11,-0.21,1100,1100,1100,1100,1034,1500,1506,11911,867
283594,9,0.12,-0.03,-0.08,0.016,-0.068,0.890,-2.89,0.72,0.00,0.00,2.89,-0.72,0.00,10.11,-2.53,9.99,-2.50,0.00,0.40,-0.10,1.57,1100,1100,1100,1100,1034,1500,1506,11911,867
283606,9,0.12,0.00,0.04,0.016,-0.066,0.889,-2.87,0.73,0.00,0.00,2.87,-0.73,0.00,10.03,-2.56,9.91,-2.56,0.00,0.40,-0.11,-1.13,1100,1100,1100,1100,1034,1500,1506,11911,867
283619,9,0.09,-0.06,0.18,0.015,-0.067,0.890,-2.85,0.73,0.00,0.00,2.85,-0.73,0.00,9.97,-2.55,9.88,-2.49,0.00,0.41,-0.08,32.52,1100,1100,1100,1100,1034,1500,1506,11911,867
283631,9,0.11,-0.04,0.06,0.015,-0.067,0.889,-2.84,0.72,0.00,0.00,2.84,-0.72,0.00,9.94,-2.52,9.83,-2.48,0.00,0.39,-0.10,0.36,1100,1100,1100,1100,1034,1500,1506,11899,867
283643,9,0.12,-0.08,-0.07,0.015,-0.067,0.890,-2.84,0.72,0.00,0.00,2.84,-0.72,0.00,9.94,-2.51,9.82,-2.43,0.00,0.39,-0.08,1.86,1100,1100,1100,1100,1034,1500,1506,11895,867
283654,9,0.13,-0.06,-0.03,0.015,-0.068,0.888,-2.83,0.71,0.00,0.00,2.83,-0.71,0.00,9.92,-2.49,9.78,-2.44,0.00,0.39,-0.10,0.51,1100,1100,1100,1100,1034,1500,1506,11890,863
283666,9,0.12,-0.05,0.05,0.015,-0.068,0.887,-2.84,0.71,0.00,0.00,2.84,-0.71,0.00,9.94,-2.49,9.82,-2.44,0.00,0.40,-0.10,-0.73,1100,1100,1100,1100,1034,1500,1506,11895,863
283679,9,0.09,-0.05,0.09,0.015,-0.068,0.887,-2.86,0.71,0.00,0.00,2.86,-0.71,0.00,10.00,-2.49,9.91,-2.45,0.00,0.41,-0.10,32.88,1100,1100,1100,1100,1034,1500,1506,11878,863
283691,9,0.11,-0.10,0.10,0.016,-0.068,0.885,-2.86,0.73,0.00,0.00,2.86,-0.73,0.00,10.01,-2.56,9.90,-2.46,0.00,0.40,-0.07,-0.83,1100,1100,1100,1100,1034,1500,1506,11878,863
283702,9,0.12,-0.08,0.09,0.016,-0.072,0.890,-2.88,0.72,0.00,0.00,2.88,-0.72,0.00,10.06,-2.53,9.94,-2.46,0.00,0.39,-0.08,-0.25,1100,1100,1100,1100,1034,1500,1506,11865,863
283714,9,0.13,0.03,-0.05,0.016,-0.066,0.891,-2.87,0.70,0.00,0.00,2.87,-0.70,0.00,10.04,-2.45,9.91,-2.47,0.00,0.38,-0.12,1.59,1100,1100,1100,1100,1034,1500,1506,11861,863
283726,9,0.19,0.12,-0.01,0.009,-0.064,0.887,-2.83,0.63,0.00,0.00,2.83,-0.63,0.00,9.91,-2.22,9.72,-2.34,0.00,0.34,-0.16,0.50,1100,1100,1100,1100,1034,1500,1506,11865,863
283739,9,-0.05,-0.13,-0.07,0.016,-0.071,0.887,-2.87,0.63,0.00,0.00,2.87,-0.63,0.00,10.05,-2.22,10.10,-2.08,0.00,0.48,-0.03,36.62,1100,1100,1100,1100,1034,1500,1506,11857,863
283751,9,0.19,0.14,0.03,0.013,-0.071,0.896,-2.83,0.60,0.00,0.00,2.83,-0.60,0.00,9.90,-2.11,9.71,-2.25,0.00,0.36,-0.13,-0.99,1100,1100,1100,1100,1034,1498,1506,11849,870
283762,9,0.28,-0.02,0.21,0.005,-0.063,0.892,-2.81,0.48,0.00,0.00,2.81,-0.48,0.00,9.84,-1.66,9.56,-1.64,0.00,0.30,-0.05,-3.62,1100,1100,1100,1100,1034,1498,1506,11841,870
283774,9,-0.11,0.34,0.18,-0.006,-0.074,0.898,-2.86,0.31,0.00,0.00,2.86,-0.31,0.00,10.01,-1.09,10.12,-1.43,0.00,0.48,-0.17,-1.93,1100,1100,1100,1100,1034,1500,1506,11824,870
283786,9,-0.07,0.03,0.00,-0.002,-0.082,0.900,-3.00,0.19,0.00,0.00,3.00,-0.19,0.00,10.51,-0.67,10.58,-0.70,0.00,0.48,0.02,1.45,1100,1100,1100,1100,1034,1500,1506,11824,870
283799,9,0.18,0.35,0.10,0.010,-0.063,0.903,-2.99,0.09,0.00,0.00,2.99,-0.09,0.00,10.46,-0.31,10.28,-0.66,0.00,0.37,-0.09,33.18,1100,1100,1100,1100,1034,1500,1506,11807,870
283811,9,0.25,0.05,0.08,0.026,-0.063,0.880,-2.93,0.27,0.00,0.00,2.93,-0.27,0.00,10.25,-0.93,10.00,-0.98,0.00,0.34,0.06,-0.13,1100,1100,1100,1100,1034,1500,1506,11795,870
283822,9,-0.07,-0.97,-0.04,0.041,-0.079,0.879,-3.03,0.71,0.00,0.00,3.03,-0.71,0.00,10.61,-2.48,10.68,-1.51,0.00,0.52,0.31,1.85,1100,1100,1100,1100,1034,1500,1506,11786,870
283834,9,0.05,-0.56,-0.13,0.032,-0.065,0.878,-3.03,1.03,0.00,0.00,3.03,-1.03,0.00,10.59,-3.60,10.54,-3.04,0.00,0.44,-0.06,1.84,1100,1100,1100,1100,1034,1500,1506,11766,870
283847,9,0.37,0.24,-0.05,0.009,-0.068,0.902,-3.00,0.94,0.00,0.00,3.00,-0.94,0.00,10.48,-3.30,10.11,-3.54,0.00,0.29,-0.39,0.11,1100,1100,1100,1100,1034,1500,1506,11741,870
283859,9,0.17,-0.16,-0.04,0.017,-0.073,0.887,-2.99,0.86,0.00,0.00,2.99,-0.86,0.00,10.48,-3.01,10.31,-2.86,0.00,0.42,-0.07,-0.03,1100,1100,1100,1100,1034,1500,1506,11749,871
283871,9,0.12,-0.51,-0.02,0.013,-0.069,0.889,-2.97,0.82,0.00,0.00,2.97,-0.82,0.00,10.41,-2.88,10.30,-2.37,0.00,0.43,0.08,-0.72,1100,1100,1100,1100,1034,1500,1506,11757,871
283882,9,0.31,0.15,0.07,-0.003,-0.053,0.892,-2.79,0.59,0.00,0.00,2.79,-0.59,0.00,9.78,-2.08,9.47,-2.23,0.00,0.30,-0.24,-1.31,1100,1100,1100,1100,1034,1500,1506,11757,871
283894,9,0.26,0.53,0.03,0.030,-0.087,0.893,-2.87,0.64,0.00,0.00,2.87,-0.64,0.00,10.04,-2.26,9.78,-2.79,0.00,0.38,-0.29,-0.39,1100,1100,1100,1100,1034,1500,1506,11753,871
283906,9,-0.45,-0.55,0.10,0.020,-0.070,0.883,-3.09,0.86,0.00,0.00,3.09,-0.86,0.00,10.81,-3.02,11.25,-2.46,0.00,0.66,0.21,-0.53,1100,1100,1100,1100,1034,1500,1506,11761,871
283919,9,0.36,0.10,-0.38,0.010,-0.030,0.896,-2.65,0.81,0.00,0.00,2.65,-0.81,0.00,9.28,-2.82,8.92,-2.92,0.00,0.18,-0.10,39.44,1100,1100,1100,1100,1034,1500,1506,11770,871
283931,9,0.74,0.22,-0.34,0.041,-0.086,0.859,-2.75,0.82,0.00,0.00,2.75,-0.82,0.00,9.63,-2.87,8.89,-3.09,0.00,0.22,-0.14,2.02,1100,1100,1100,1100,1034,1500,1506,11774,871
283942,9,-0.50,1.18,1.40,0.020,-0.077,0.902,-3.06,0.81,0.00,0.00,3.06,-0.81,0.00,10.69,-2.84,11.19,-4.02,0.00,0.74,-0.46,-24.69,1100,1100,1100,1100,1034,1500,1506,11774,871
283954,9,-0.12,-0.64,-0.50,0.018,-0.007,0.893,-2.50,0.90,0.00,0.00,2.50,-0.90,0.00,8.74,-3.14,8.86,-2.50,0.00,0.33,0.32,83.45,1100,1100,1100,1100,1034,1500,1506,11770,937
283966,9,0.95,-0.26,-1.46,-0.001,-0.101,0.886,-2.44,0.63,0.00,0.00,2.44,-0.63,0.00,8.56,-2.20,7.61,-1.94,0.00,0.07,-0.06,87.51,1100,1100,1100,1100,1034,1500,1506,11774,937
283979,9,-0.44,0.66,1.83,0.046,-0.113,0.876,-3.22,0.90,0.00,0.00,3.22,-0.90,0.00,11.26,-3.13,11.70,-3.79,0.00,0.80,-0.45,-3.24,1100,1100,1100,1100,1034,1500,1506,11778,937
283991,9,-0.24,-1.99,-0.36,0.013,-0.016,0.868,-2.73,1.13,0.00,0.00,2.73,-1.13,0.00,9.56,-3.95,9.80,-1.96,0.00,0.37,0.66,16.31,1100,1100,1100,1100,1034,1500,1506,11774,937
284002,9,0.61,0.12,-0.87,-0.023,-0.097,0.895,-2.68,0.54,0.00,0.00,2.68,-0.54,0.00,9.38,-1.88,8.78,-2.00,0.00,0.19,-0.24,13.34,1100,1100,1100,1100,1034,1500,1506,11774,937
284014,9,-0.60,0.04,0.16,0.036,-0.096,0.909,-3.13,0.59,0.00,0.00,3.13,-0.59,0.00,10.95,-2.05,11.55,-2.10,0.00,0.86,0.03,-5.73,1100,1100,1100,1100,1034,1500,1506,11774,937
284026,9,0.03,-0.13,0.85,-0.007,-0.044,0.879,-2.91,0.68,0.00,0.00,2.91,-0.68,0.00,10.17,-2.38,10.14,-2.25,0.00,0.36,-0.19,-16.06,1100,1100,1100,1100,1034,1500,1506,11782,937
284039,9,0.53,1.00,0.35,0.004,-0.072,0.911,-2.81,0.37,0.00,0.00,2.81,-0.37,0.00,9.84,-1.30,9.30,-2.30,0.00,0.16,-0.55,33.92,1100,1100,1100,1100,1034,1500,1506,11778,937
284051,9,0.66,-0.48,-1.38,0.067,-0.090,0.852,-3.09,0.93,0.00,0.00,3.09,-0.93,0.00,10.80,-3.26,10.14,-2.78,0.00,0.25,0.13,22.33,1100,1100,1100,1100,1034,1500,1506,11778,945
284062,9,-0.66,-0.50,1.23,0.032,-0.019,0.890,-2.97,1.39,0.00,0.00,2.97,-1.39,0.00,10.39,-4.85,11.05,-4.35,0.00,0.76,-0.09,-25.81,1100,1100,1100,1100,1034,1500,1506,11795,945
284074,9,1.14,-0.45,0.15,0.016,-0.075,0.883,-2.60,1.21,0.00,0.00,2.60,-1.21,0.00,9.10,-4.24,7.96,-3.80,0.00,-0.17,-0.23,0.41,1100,1100,1100,1100,1034,1500,1506,11791,945
284086,9,0.27,-0.14,-0.02,0.049,-0.094,0.880,-3.19,1.51,0.00,0.00,3.19,-1.51,0.00,11.17,-5.28,10.91,-5.14,0.00,0.47,-0.35,4.85,1100,1100,1100,1100,1034,1500,1506,11791,945
284099,9,-0.41,-0.51,-0.82,-0.005,-0.051,0.904,-2.97,1.25,0.00,0.00,2.97,-1.25,0.00,10.41,-4.37,10.82,-3.86,0.00,0.60,-0.18,43.47,1100,1100,1100,1100,1034,1500,1506,11786,945
284111,9,0.34,0.65,1.17,0.004,-0.033,0.906,-2.72,0.79,0.00,0.00,2.72,-0.79,0.00,9.53,-2.78,9.19,-3.43,0.00,0.24,-0.48,-21.71,1100,1100,1100,1100,1034,1500,1506,11791,945
284122,9,0.17,1.21,0.20,-0.018,-0.122,0.913,-2.84,0.36,0.00,0.00,2.84,-0.36,0.00,9.93,-1.27,9.76,-2.49,0.00,0.37,-0.52,-0.26,1100,1100,1100,1100,1034,1500,1506,11791,945
284134,9,-0.27,-0.41,-0.27,-0.001,-0.029,0.879,-3.01,0.25,0.00,0.00,3.01,-0.25,0.00,10.52,-0.87,10.80,-0.47,0.00,0.60,0.28,8.84,1100,1100,1100,1100,1034,1500,1506,11795,945
284146,9,0.07,0.95,-0.04,0.011,-0.089,0.903,-2.69,-0.07,0.00,0.00,2.69,0.07,0.00,9.40,0.24,9.33,-0.71,0.00,0.30,-0.34,-3.16,1100,1100,1100,1100,1034,1500,1506,11807,945
284159,9,0.12,-0.94,0.74,0.035,-0.020,0.869,-2.71,0.45,0.00,0.00,2.71,-0.45,0.00,9.50,-1.59,9.38,-0.65,0.00,0.43,0.36,21.05,1100,1100,1100,1100,1034,1500,1506,11795,824
284171,9,0.32,1.84,0.05,0.009,-0.123,0.933,-2.93,0.11,0.00,0.00,2.93,-0.11,0.00,10.27,-0.39,9.95,-2.23,0.00,0.30,-0.79,2.36,1100,1100,1100,1100,1034,1500,1506,11799,824
284182,9,-0.60,-1.03,-0.43,-0.001,0.005,0.846,-2.63,0.28,0.00,0.00,2.63,-0.28,0.00,9.19,-0.98,9.79,0.06,0.00,0.65,0.39,9.91,1100,1100,1100,1100,1034,1500,1506,11807,824
284194,9,0.93,0.37,0.34,0.066,-0.082,0.920,-2.79,0.68,0.00,0.00,2.79,-0.68,0.00,9.76,-2.37,8.82,-2.74,0.00,0.00,-0.25,-8.25,1100,1100,1100,1100,1034,1500,1506,11791,824
284206,9,-1.34,0.59,0.27,-0.032,-0.055,0.849,-2.58,0.63,0.00,0.00,2.58,-0.63,0.00,9.04,-2.21,10.38,-2.80,0.00,1.05,-0.52,-2.27,1100,1100,1100,1100,1034,1500,1506,11786,824
284219,9,-0.19,-0.22,0.28,0.017,-0.089,0.942,-3.02,0.57,0.00,0.00,3.02,-0.57,0.00,10.58,-1.98,10.76,-1.76,0.00,0.53,0.15,29.47,1100,1100,1100,1100,1034,1500,1506,11782,824
284231,9,-0.35,2.58,-0.61,-0.029,-0.091,0.871,-2.61,0.06,0.00,0.00,2.61,-0.06,0.00,9.13,-0.21,9.48,-2.79,0.00,0.50,-1.19,11.45,1100,1100,1100,1100,1035,1500,1506,11774,824
284242,9,0.58,-1.39,0.48,0.003,-0.066,0.901,-2.73,0.66,0.00,0.00,2.73,-0.66,0.00,9.55,-2.32,8.98,-0.92,0.00,0.22,0.70,-10.43,1100,1100,1100,1100,1035,1500,1506,11778,824
284255,9,0.94,1.53,-0.10,-0.031,-0.135,0.922,-2.86,0.29,0.00,0.00,2.86,-0.29,0.00,10.01,-1.00,9.08,-2.53,0.00,-0.05,-0.66,4.23,1100,1100,1100,1100,1034,1500,1506,11782,822
284266,9,0.42,-3.03,-0.21,0.004,-0.018,0.830,-2.69,0.64,0.00,0.00,2.69,-0.64,0.00,9.43,-2.24,9.00,0.79,0.00,0.23,1.16,3.49,1100,1100,1100,1100,1034,1500,1506,11778,822
284279,9,0.93,0.24,-0.52,0.043,-0.051,0.952,-2.94,0.34,0.00,0.00,2.94,-0.34,0.00,10.30,-1.19,9.37,-1.43,0.00,0.03,-0.00,44.76,1100,1100,1100,1100,1034,1500,1506,11774,822
284291,9,-0.96,0.88,0.56,-0.011,-0.075,0.829,-2.99,0.31,0.00,0.00,2.99,-0.31,0.00,10.46,-1.08,11.42,-1.96,0.00,0.86,-0.51,-12.82,1100,1100,1100,1100,1035,1500,1506,11786,822
284302,9,0.15,-0.20,-0.02,0.063,-0.040,0.916,-3.00,0.23,0.00,0.00,3.00,-0.23,0.00,10.50,-0.81,10.35,-0.61,0.00,0.38,0.26,-0.27,1100,1100,1100,1100,1035,1500,1506,11786,822
284314,9,0.21,2.66,-0.21,0.012,-0.101,0.891,-3.24,0.16,0.00,0.00,3.24,-0.16,0.00,11.34,-0.55,11.13,-3.21,0.00,0.38,-1.10,4.82,1100,1100,1100,1100,1035,1500,1506,11791,822
284327,9,-0.74,0.20,0.41,0.027,-0.049,0.836,-2.93,0.68,0.00,0.00,2.93,-0.68,0.00,10.27,-2.36,11.01,-2.56,0.00,0.79,-0.11,-9.26,1100,1100,1100,1100,1035,1500,1506,11791,822
284339,9,-0.67,0.59,-0.52,0.001,-0.068,0.946,-3.08,0.51,0.00,0.00,3.08,-0.51,0.00,10.79,-1.77,11.45,-2.37,0.00,0.77,-0.29,46.34,1100,1100,1100,1100,1035,1500,1506,11786,822
284351,9,0.65,1.44,0.31,-0.045,-0.087,0.870,-2.88,0.21,0.00,0.00,2.88,-0.21,0.00,10.08,-0.72,9.43,-2.17,0.00,0.15,-0.61,-5.20,1100,1100,1100,1100,1034,1500,1506,11786,822
284362,9,0.07,-0.93,-0.35,0.026,-0.037,0.913,-2.89,0.16,0.00,0.00,2.89,-0.16,0.00,10.11,-0.57,10.04,0.36,0.00,0.38,0.69,5.48,1100,1100,1100,1100,1034,1500,1506,11778,822
284374,9,0.30,-0.55,0.20,0.010,-0.087,0.878,-3.07,0.19,0.00,0.00,3.07,-0.19,0.00,10.76,-0.66,10.46,-0.11,0.00,0.38,0.40,-1.91,1100,1100,1100,1100,1034,1500,1506,11782,822
284386,9,0.40,0.15,0.77,0.055,-0.047,0.865,-2.68,0.57,0.00,0.00,2.68,-0.57,0.00,9.38,-2.00,8.99,-2.15,0.00,0.19,-0.09,-14.08,1100,1100,1100,1100,1034,1500,1506,11782,822
284399,9,-0.25,-1.10,-0.48,0.059,-0.046,0.872,-2.86,0.98,0.00,0.00,2.86,-0.98,0.00,10.03,-3.43,10.28,-2.34,0.00,0.62,0.19,41.85,1100,1100,1100,1100,1034,1500,1506,11782,822
284411,9,1.30,-1.95,0.23,0.088,-0.085,0.838,-3.05,1.54,0.00,0.00,3.05,-1.54,0.00,10.67,-5.39,9.36,-3.45,0.00,-0.13,0.42,-4.47,1100,1100,1100,1100,1034,1500,1506,11778,822
284422,9,-0.54,1.66,-0.07,-0.015,-0.044,0.897,-2.77,1.29,0.00,0.00,2.77,-1.29,0.00,9.69,-4.51,10.22,-6.17,0.00,0.67,-1.41,-0.06,1100,1100,1100,1100,1034,1500,1506,11778,822
284434,9,0.10,-2.95,0.09,0.041,-0.005,0.897,-2.62,1.82,0.00,0.00,2.62,-1.82,0.00,9.17,-6.39,9.08,-3.43,0.00,0.58,0.69,-0.62,1100,1100,1100,1100,1034,1500,1506,11786,822
284446,9,0.12,0.58,0.81,-0.000,-0.128,0.904,-3.13,1.07,0.00,0.00,3.13,-1.07,0.00,10.97,-3.75,10.85,-4.33,0.00,0.45,-0.59,-12.01,1100,1100,1100,1100,1034,1500,1506,11782,822
284459,9,-1.92,0.95,-0.00,-0.025,-0.065,0.883,-2.48,0.86,0.00,0.00,2.48,-0.86,0.00,8.69,-2.99,10.60,-3.95,0.00,1.37,-0.83,38.48,1100,1100,1100,1100,1034,1500,1506,11782,823
284471,9,2.13,-0.68,0.07,0.022,-0.023,0.928,-2.66,0.55,0.00,0.00,2.66,-0.55,0.00,9.30,-1.92,7.17,-1.25,0.00,-0.46,0.28,3.49,1100,1100,1100,1100,1034,1500,1506,11786,823
284482,9,0.63,4.14,0.24,-0.106,-0.123,0.945,-2.74,-0.02,0.00,0.00,2.74,0.02,0.00,9.61,0.09,8.98,-4.06,0.00,-0.02,-1.68,-4.96,1100,1100,1100,1100,1034,1500,1506,11786,823
284494,9,-0.90,-1.38,0.40,0.040,0.022,0.861,-2.10,0.59,0.00,0.00,2.10,-0.59,0.00,7.34,-2.08,8.25,-0.70,0.00,0.79,0.69,-6.58,1100,1100,1100,1100,1034,1500,1506,11791,823
284506,9,1.03,-0.38,0.15,0.012,-0.038,0.963,-2.73,0.10,0.00,0.00,2.73,-0.10,0.00,9.54,-0.35,8.51,0.03,0.00,-0.05,0.53,0.31,1100,1100,1100,1100,1034,1500,1506,11786,823
284519,9,-0.97,-0.37,-0.18,0.071,-0.105,0.796,-2.64,0.79,0.00,0.00,2.64,-0.79,0.00,9.23,-2.78,10.20,-2.41,0.00,0.79,0.01,34.13,1100,1100,1100,1100,1034,1500,1506,11791,823
284531,9,-0.42,-1.52,0.19,0.063,-0.046,0.887,-2.93,0.83,0.00,0.00,2.93,-0.83,0.00,10.27,-2.89,10.69,-1.37,0.00,0.65,0.38,-5.93,1100,1100,1100,1100,1034,1500,1506,11791,823
284542,9,1.64,1.80,0.53,0.027,-0.141,0.909,-3.15,0.90,0.00,0.00,3.15,-0.90,0.00,11.03,-3.15,9.39,-4.95,0.00,-0.35,-1.06,-8.26,1100,1100,1100,1100,1034,1500,1506,11799,823
284554,9,-0.13,0.72,0.84,-0.012,-0.034,0.836,-2.66,0.75,0.00,0.00,2.66,-0.75,0.00,9.31,-2.64,9.44,-3.36,0.00,0.49,-0.59,-11.49,1100,1100,1100,1100,1034,1500,1506,11803,822
284567,9,0.30,-1.98,-0.57,0.008,-0.071,0.931,-3.02,0.56,0.00,0.00,3.02,-0.56,0.00,10.56,-1.96,10.26,0.01,0.00,0.39,1.07,15.58,1100,1100,1100,1100,1034,1500,1506,11803,822
284579,9,0.43,0.20,-0.44,0.014,-0.089,0.896,-2.85,0.29,0.00,0.00,2.85,-0.29,0.00,9.98,-1.00,9.55,-1.20,0.00,0.16,-0.10,9.39,1100,1100,1100,1100,1034,1500,1506,11791,822
284591,9,-0.73,-2.34,0.46,0.047,-0.065,0.836,-3.01,0.70,0.00,0.00,3.01,-0.70,0.00,10.53,-2.45,11.26,-0.11,0.00,0.81,0.68,-11.71,1100,1100,1100,1100,1034,1500,1506,11791,822
284602,9,-0.38,0.21,0.45,0.054,-0.069,0.925,-3.01,1.15,0.00,0.00,3.01,-1.15,0.00,10.52,-4.01,10.90,-4.22,0.00,0.70,-0.54,-2.25,1100,1100,1100,1100,1034,1500,1506,11786,822
284614,9,0.58,2.95,1.04,-0.050,-0.090,0.906,-3.08,0.12,0.00,0.00,3.08,-0.12,0.00,10.78,-0.42,10.20,-3.37,0.00,0.25,-1.38,-8.56,1100,1100,1100,1100,1034,1500,1506,11782,822
284626,9,-0.37,-0.75,-1.28,-0.068,-0.034,0.924,-2.66,-0.05,0.00,0.00,2.66,0.05,0.00,9.29,0.17,9.67,0.93,0.00,0.57,0.50,29.42,1100,1100,1100,1100,1034,1500,1506,11778,822
284639,9,0.66,-2.15,-1.05,0.002,0.038,0.915,-2.34,-0.11,0.00,0.00,2.34,0.11,0.00,8.18,0.40,7.51,2.55,0.00,0.12,1.02,14.77,1100,1100,1100,1100,1034,1500,1506,11778,822
284651,9,1.47,0.72,0.37,-0.078,-0.106,0.943,-2.66,-0.42,0.00,0.00,2.66,0.42,0.00,9.30,1.46,7.83,0.74,0.00,-0.39,-0.36,-18.86,1100,1100,1100,1100,1034,1500,1506,11774,822
284662,9,-0.95,3.39,1.02,-0.068,-0.079,0.910,-2.15,-1.08,0.00,0.00,2.15,1.08,0.00,7.53,3.79,8.48,0.40,0.00,0.80,-1.15,-19.35,1100,1100,1100,1100,1034,1500,1506,11774,822
284674,9,1.54,-1.06,0.73,0.052,0.010,0.902,-2.45,-0.87,0.00,0.00,2.45,0.87,0.00,8.58,3.06,7.04,4.11,0.00,-0.17,1.25,-4.86,1100,1100,1100,1100,1034,1504,1502,11786,822
284686,9,0.01,-0.52,-0.78,0.055,-0.093,0.833,-2.52,0.62,0.00,0.00,2.52,-0.62,0.00,8.83,-2.18,8.81,-1.66,0.00,0.31,0.11,16.51,1100,1100,1100,1100,1034,1500,1506,11782,822
284699,9,-1.22,-0.91,-0.97,0.044,0.001,0.828,-2.12,1.59,0.00,0.00,2.12,-1.59,0.00,7.41,-5.57,8.64,-4.66,0.00,0.96,-0.32,40.00,1100,1100,1100,1100,1034,1500,1506,11791,822
284711,9,2.54,0.07,0.63,0.004,-0.121,0.947,-2.76,1.23,0.00,0.00,2.76,-1.23,0.00,9.67,-4.31,7.13,-4.39,0.00,-0.81,-0.15,-18.38,1100,1100,1100,1100,1034,1500,1506,11786,822
284722,9,-1.13,2.77,1.61,-0.049,-0.077,0.855,-2.32,0.63,0.00,0.00,2.32,-0.63,0.00,8.11,-2.22,9.24,-4.99,0.00,0.85,-1.30,-27.88,1100,1100,1100,1100,1034,1500,1506,11791,822
284734,9,-0.47,-1.97,0.62,0.013,-0.117,0.896,-2.96,-0.02,0.00,0.00,2.96,0.02,0.00,10.37,0.08,10.84,2.05,0.00,0.73,1.50,-1.48,1100,1100,1100,1100,1034,1500,1506,11795,822
284746,9,1.45,2.85,-0.95,-0.001,-0.213,0.933,-3.36,-0.14,0.00,0.00,3.36,0.14,0.00,11.77,0.50,10.32,-2.35,0.00,-0.31,-0.82,23.84,1100,1100,1100,1100,1034,1500,1506,11795,822
284759,9,1.01,-0.40,-0.28,-0.122,-0.051,0.888,-2.83,-0.61,0.00,0.00,2.83,0.61,0.00,9.91,2.13,8.91,2.53,0.00,-0.07,0.29,29.01,1100,1100,1100,1100,1034,1500,1506,11786,823
284771,9,0.55,-1.18,0.24,-0.023,-0.007,0.944,-2.58,-1.07,0.00,0.00,2.58,1.07,0.00,9.04,3.75,8.48,4.93,0.00,0.22,1.43,-4.78,1100,1100,1100,1100,1034,1500,1506,11786,823
284782,9,-0.36,2.33,0.79,0.001,-0.141,0.897,-2.76,-1.11,0.00,0.00,2.76,1.11,0.00,9.64,3.89,10.00,1.56,0.00,0.74,-0.45,-7.45,1100,1100,1100,1100,1034,1500,1506,11791,823
284794,9,0.05,0.24,-0.26,0.046,-0.116,0.831,-2.70,-0.99,0.00,0.00,2.70,0.99,0.00,9.45,3.46,9.40,3.21,0.00,0.45,0.63,12.94,1100,1100,1100,1100,1034,1500,1506,11786,823
284806,9,-0.82,2.47,-1.52,-0.023,-0.007,0.976,-2.13,-0.85,0.00,0.00,2.13,0.85,0.00,7.45,2.96,8.28,0.49,0.00,0.73,-0.36,28.87,1100,1100,1100,1100,1034,1500,1506,11795,823
284819,9,1.02,0.78,0.56,-0.037,-0.056,0.883,-2.52,-0.87,0.00,0.00,2.52,0.87,0.00,8.81,3.04,7.79,2.27,0.00,0.01,0.11,14.26,1100,1100,1100,1100,1034,1500,1506,11791,823
284831,9,-0.39,-2.49,-0.31,0.105,-0.094,0.828,-2.67,0.19,0.00,0.00,2.67,-0.19,0.00,9.33,-0.66,9.72,1.83,0.00,0.49,1.58,4.50,1100,1100,1100,1100,1034,1500,1506,11778,823
284842,9,-0.77,0.01,-0.51,-0.043,-0.017,0.943,-2.66,0.53,0.00,0.00,2.66,-0.53,0.00,9.32,-1.84,10.09,-1.85,0.00,0.81,-0.16,8.76,1100,1100,1100,1100,1034,1500,1506,11774,823
284854,9,0.16,0.70,1.01,0.102,-0.079,0.878,-3.00,0.73,0.00,0.00,3.00,-0.73,0.00,10.50,-2.54,10.34,-3.24,0.00,0.45,-0.16,-19.06,1100,1100,1100,1100,1034,1500,1506,11778,822
284866,9,-0.91,0.75,-0.05,-0.004,-0.042,0.861,-2.75,0.34,0.00,0.00,2.75,-0.34,0.00,9.64,-1.18,10.55,-1.93,0.00,0.77,-0.23,3.37,1100,1100,1100,1100,1035,1500,1506,11778,822
284879,9,2.05,-1.81,0.22,-0.012,-0.014,0.931,-2.83,0.53,0.00,0.00,2.83,-0.53,0.00,9.91,-1.84,7.86,-0.03,0.00,-0.52,0.69,24.50,1100,1100,1100,1100,1035,1500,1506,11795,822
284891,9,1.08,-0.63,0.13,0.041,-0.035,0.905,-2.64,1.00,0.00,0.00,2.64,-1.00,0.00,9.23,-3.50,8.14,-2.87,0.00,-0.23,-0.12,-5.15,1100,1100,1100,1100,1035,1500,1506,11803,822
284902,9,-2.52,-1.93,-0.47,0.021,-0.095,0.803,-2.80,1.24,0.00,0.00,2.80,-1.24,0.00,9.79,-4.35,12.32,-2.43,0.00,1.69,0.22,5.66,1100,1100,1100,1100,1035,1500,1506,11795,822
284914,9,1.20,1.78,0.50,-0.012,-0.164,0.948,-3.24,0.85,0.00,0.00,3.24,-0.85,0.00,11.35,-2.97,10.15,-4.75,0.00,-0.11,-1.07,-10.29,1100,1100,1100,1100,1035,1500,1506,11795,822
284926,9,-0.63,3.22,-0.15,0.003,-0.111,0.855,-3.04,0.45,0.00,0.00,3.04,-0.45,0.00,10.63,-1.57,11.26,-4.79,0.00,0.50,-1.46,1.19,1100,1100,1100,1100,1035,1500,1506,11795,822
284939,9,-0.27,-3.38,-0.14,0.092,-0.026,0.833,-3.08,1.24,0.00,0.00,3.08,-1.24,0.00,10.77,-4.35,11.05,-0.97,0.00,0.61,1.43,2.79,1100,1100,1100,1100,1035,1500,1506,11799,822
284951,9,0.75,0.47,-0.09,0.056,-0.128,0.884,-3.53,1.74,0.00,0.00,3.53,-1.74,0.00,12.37,-6.10,11.62,-6.57,0.00,0.02,-0.55,1.14,1100,1100,1100,1100,1035,1500,1506,11791,823
284962,9,-0.49,-1.03,0.21,-0.021,-0.087,0.850,-3.26,1.55,0.00,0.00,3.26,-1.55,0.00,11.42,-5.44,11.91,-4.41,0.00,0.70,-0.16,-1.98,1100,1100,1100,1100,1035,1500,1506,11786,823
284975,9,-1.18,-4.50,-0.11,0.128,-0.015,0.889,-3.04,2.03,0.00,0.00,3.04,-2.03,0.00,10.66,-7.10,11.84,-2.61,0.00,1.03,1.77,6.82,1100,1100,1100,1100,1035,1500,1506,11786,823
284986,9,-0.16,1.55,-0.44,0.041,-0.168,0.867,-3.19,1.71,0.00,0.00,3.19,-1.71,0.00,11.17,-6.00,11.33,-7.56,0.00,0.60,-1.60,10.22,1100,1100,1100,1100,1034,1501,1506,11786,823
284999,9,1.17,-1.31,0.19,0.014,-0.016,0.851,-2.69,1.63,0.00,0.00,2.69,-1.63,0.00,9.41,-5.71,8.24,-4.40,0.00,-0.17,-0.08,24.87,1100,1100,1100,1100,1034,1501,1506,11786,823
285011,9,2.31,-0.30,0.84,-0.038,-0.015,1.029,-2.90,1.44,0.00,0.00,2.90,-1.44,0.00,10.15,-5.03,7.84,-4.73,0.00,-0.56,-0.20,-13.08,1100,1100,1100,1100,1034,1500,1506,11778,823
285022,9,-1.88,1.06,0.33,0.025,-0.052,0.834,-2.95,1.60,0.00,0.00,2.95,-1.60,0.00,10.32,-5.62,12.20,-6.68,0.00,1.33,-0.73,-0.32,1100,1100,1100,1100,1034,1500,1506,11778,823
285034,9,-1.48,-0.75,0.27,-0.030,-0.052,0.913,-2.84,0.99,0.00,0.00,2.84,-0.99,0.00,9.92,-3.48,11.41,-2.72,0.00,1.07,0.39,-5.27,1100,1100,1100,1100,1034,1500,1506,11782,823
285046,9,1.13,5.79,-0.41,-0.081,-0.120,0.979,-2.91,-0.18,0.00,0.00,2.91,0.18,0.00,10.18,0.62,9.06,-5.18,0.00,-0.19,-2.06,9.69,1100,1100,1100,1100,1034,1500,1506,11791,823
285059,9,0.20,1.00,0.68,-0.050,-0.065,0.856,-2.71,-0.28,0.00,0.00,2.71,0.28,0.00,9.47,0.98,9.27,-0.03,0.00,0.30,-0.04,13.95,1100,1100,1100,1100,1034,1500,1506,11786,823
285071,9,0.44,2.49,-0.03,-0.080,-0.020,0.968,-2.56,-1.03,0.00,0.00,2.56,1.03,0.00,8.97,3.60,8.53,1.11,0.00,0.21,-0.30,-1.22,1100,1100,1100,1100,1035,1500,1506,11778,823
285082,9,1.94,1.83,-0.28,-0.057,-0.058,0.928,-2.38,-1.41,0.00,0.00,2.38,1.41,0.00,8.35,4.95,6.41,3.11,0.00,-0.44,0.15,7.83,1100,1100,1100,1100,1035,1500,1506,11766,823
285094,9,-0.46,1.90,0.41,-0.016,-0.106,0.893,-2.37,-1.65,0.00,0.00,2.37,1.65,0.00,8.28,5.78,8.75,3.88,0.00,0.66,0.15,-10.75,1100,1100,1100,1100,1035,1500,1506,11770,823
285106,9,-1.90,0.91,-0.93,0.058,-0.100,0.860,-2.47,-0.88,0.00,0.00,2.47,0.88,0.00,8.63,3.07,10.53,2.16,0.00,1.36,0.44,16.83,1100,1100,1100,1100,1034,1500,1506,11766,823
285119,9,2.07,-0.64,0.67,0.033,-0.060,0.867,-2.34,-0.10,0.00,0.00,2.34,0.10,0.00,8.17,0.36,6.11,1.00,0.00,-0.59,0.65,13.10,1100,1100,1100,1100,1034,1500,1506,11770,823
285131,9,0.34,1.68,0.04,-0.020,-0.098,0.880,-2.46,0.02,0.00,0.00,2.46,-0.02,0.00,8.60,-0.08,8.26,-1.75,0.00,0.23,-0.58,-1.57,1100,1100,1100,1100,1034,1500,1506,11778,823
285142,9,-1.99,-0.14,-0.20,-0.000,-0.043,0.894,-2.42,0.43,0.00,0.00,2.42,-0.43,0.00,8.46,-1.49,10.45,-1.35,0.00,1.45,0.17,7.63,1100,1100,1100,1100,1034,1500,1506,11770,823
285154,9,0.44,-0.51,0.51,0.026,-0.118,0.907,-2.80,0.21,0.00,0.00,2.80,-0.21,0.00,9.81,-0.75,9.37,-0.24,0.00,0.18,0.47,-9.09,1100,1100,1100,1100,1034,1500,1506,11778,823
285166,9,-1.09,0.96,-0.84,-0.012,-0.066,0.852,-2.29,0.48,0.00,0.00,2.29,-0.48,0.00,8.01,-1.67,9.09,-2.63,0.00,0.80,-0.58,16.89,1100,1100,1100,1100,1034,1500,1506,11766,823
285179,9,0.93,-2.34,0.03,0.126,0.055,0.878,-2.17,1.36,0.00,0.00,2.17,-1.36,0.00,7.59,-4.77,6.67,-2.43,0.00,0.02,0.75,24.49,1100,1100,1100,1100,1034,1500,1506,11761,823
285191,9,0.49,1.44,-0.02,-0.024,-0.130,0.923,-2.77,1.66,0.00,0.00,2.77,-1.66,0.00,9.71,-5.81,9.22,-7.25,0.00,0.14,-1.23,-3.38,1100,1100,1100,1100,1034,1500,1506,11766,823
285202,9,-1.47,0.67,0.29,-0.050,-0.066,0.884,-2.49,1.06,0.00,0.00,2.49,-1.06,0.00,8.71,-3.71,10.18,-4.38,0.00,1.10,-0.66,-5.29,1100,1100,1100,1100,1034,1500,1506,11757,823
285214,9,1.79,-1.08,0.11,0.031,-0.025,0.939,-2.94,0.44,0.00,0.00,2.94,-0.44,0.00,10.29,-1.53,8.49,-0.45,0.00,-0.31,0.62,-0.48,1100,1100,1100,1100,1034,1500,1506,11757,823
285226,9,-0.04,-0.16,-0.23,0.061,-0.081,0.850,-2.67,1.07,0.00,0.00,2.67,-1.07,0.00,9.33,-3.75,9.37,-3.59,0.00,0.29,-0.32,6.04,1100,1100,1100,1100,1034,1500,1506,11757,823
285239,9,-0.96,-1.39,0.15,0.087,-0.030,0.815,-2.58,1.76,0.00,0.00,2.58,-1.76,0.00,9.03,-6.14,9.99,-4.76,0.00,0.95,-0.01,-2.77,1100,1100,1100,1100,1034,1500,1506,11757,823
285251,9,3.22,0.14,-0.29,0.039,-0.153,0.904,-3.20,1.95,0.00,0.00,3.20,-1.95,0.00,11.21,-6.82,7.99,-6.95,0.00,-1.01,-0.44,7.43,1100,1100,1100,1100,1035,1500,1506,11770,823
285262,9,-1.17,1.89,0.30,-0.044,-0.019,0.874,-2.37,1.33,0.00,0.00,2.37,-1.33,0.00,8.30,-4.66,9.47,-6.55,0.00,0.89,-1.02,-3.70,1100,1100,1100,1100,1035,1500,1506,11761,823
285274,9,-2.25,-2.23,-0.56,0.059,-0.088,0.877,-3.02,1.21,0.00,0.00,3.02,-1.21,0.00,10.56,-4.22,12.80,-1.99,0.00,1.60,1.25,46.82,1100,1100,1100,1100,1035,1500,1506,11774,823
285286,9,1.31,2.32,-0.66,0.036,-0.195,0.875,-3.03,0.90,0.00,0.00,3.03,-0.90,0.00,10.60,-3.14,9.28,-5.46,0.00,-0.24,-0.99,45.86,1100,1100,1100,1100,1035,1500,1506,11774,823
285299,9,0.57,-0.64,0.55,0.029,0.029,0.849,-2.55,1.18,0.00,0.00,2.55,-1.18,0.00,8.91,-4.13,8.34,-3.49,0.00,0.18,0.06,27.01,1100,1100,1100,1100,1035,1500,1506,11770,823
285311,9,0.59,-1.46,0.38,-0.003,-0.060,0.981,-3.14,1.34,0.00,0.00,3.14,-1.34,0.00,10.98,-4.71,10.39,-3.24,0.00,0.26,0.56,-3.56,1100,1100,1100,1100,1035,1500,1506,11766,823
285322,9,-0.90,1.96,0.71,-0.023,-0.064,0.851,-2.76,0.73,0.00,0.00,2.76,-0.73,0.00,9.64,-2.56,10.54,-4.53,0.00,0.83,-0.99,-7.74,1100,1100,1100,1100,1035,1500,1506,11778,823
285334,9,-0.78,-3.02,-0.37,0.051,-0.086,0.878,-3.05,1.07,0.00,0.00,3.05,-1.07,0.00,10.67,-3.73,11.45,-0.71,0.00,0.92,1.19,8.18,1100,1100,1100,1100,1035,1500,1506,11786,823
285347,9,0.82,1.36,-0.48,0.035,-0.054,0.919,-2.94,0.87,0.00,0.00,2.94,-0.87,0.00,10.30,-3.05,9.49,-4.41,0.00,-0.00,-0.78,7.43,1100,1100,1100,1100,1034,1500,1506,11791,823
285359,9,0.37,0.59,0.94,-0.011,-0.061,0.821,-2.94,0.85,0.00,0.00,2.94,-0.85,0.00,10.30,-2.96,9.93,-3.54,0.00,0.26,-0.66,-20.80,1100,1100,1100,1100,1034,1500,1506,11782,822
285371,9,0.01,1.27,0.17,-0.032,-0.103,0.946,-3.14,0.56,0.00,0.00,3.14,-0.56,0.00,10.98,-1.97,10.97,-3.24,0.00,0.45,-0.66,0.91,1100,1100,1100,1100,1035,1500,1506,11778,822
285383,9,1.70,-0.06,0.25,-0.010,-0.015,0.922,-3.04,0.47,0.00,0.00,3.04,-0.47,0.00,10.64,-1.65,8.93,-1.59,0.00,-0.32,0.04,2.70,1100,1100,1100,1100,1035,1500,1506,11774,822
285394,9,-0.17,-1.13,-0.47,0.012,-0.084,0.850,-3.14,0.03,0.00,0.00,3.14,-0.03,0.00,11.00,-0.10,11.17,1.03,0.00,0.47,0.82,9.84,1100,1100,1100,1100,1035,1500,1506,11774,822
285406,9,-2.66,0.07,-0.66,0.098,-0.124,0.860,-2.94,0.69,0.00,0.00,2.94,-0.69,0.00,10.29,-2.40,12.96,-2.47,0.00,1.76,-0.13,11.33,1100,1100,1100,1100,1035,1500,1506,11766,822
285419,9,2.74,0.34,0.74,0.001,-0.115,0.872,-3.33,0.75,0.00,0.00,3.33,-0.75,0.00,11.66,-2.64,8.92,-2.98,0.00,-0.70,-0.44,-13.59,1100,1100,1100,1100,1035,1500,1506,11766,822
285431,9,0.90,1.15,0.23,-0.041,-0.099,0.906,-2.99,0.17,0.00,0.00,2.99,-0.17,0.00,10.48,-0.61,9.58,-1.77,0.00,-0.12,-0.37,39.19,1100,1100,1100,1100,1035,1500,1506,11770,822
285443,9,-2.49,-1.25,-0.33,-0.023,-0.033,0.881,-2.85,-0.25,0.00,0.00,2.85,0.25,0.00,9.99,0.89,12.48,2.14,0.00,1.73,0.68,51.71,1100,1100,1100,1100,1035,1500,1506,11761,822
285454,9,1.55,0.02,-0.24,0.003,-0.125,0.942,-3.14,-0.90,0.00,0.00,3.14,0.90,0.00,11.00,3.15,9.45,3.14,0.00,-0.24,0.35,6.07,1100,1100,1100,1100,1035,1501,1505,11757,839
285466,9,-1.37,1.29,-0.46,0.033,-0.056,0.815,-2.65,-0.50,0.00,0.00,2.65,0.50,0.00,9.27,1.75,10.64,0.46,0.00,1.07,-0.55,6.02,1100,1100,1100,1100,1035,1500,1506,11770,839
285479,9,1.03,-1.19,-0.01,0.058,-0.007,0.910,-2.66,-0.06,0.00,0.00,2.66,0.06,0.00,9.31,0.20,8.27,1.39,0.00,0.04,0.73,-1.12,1100,1100,1100,1100,1035,1500,1506,11774,839
285491,9,0.83,2.90,0.80,-0.064,-0.144,0.954,-2.70,-0.33,0.00,0.00,2.70,0.33,0.00,9.46,1.14,8.64,-1.77,0.00,-0.04,-1.03,-12.43,1100,1100,1100,1100,1035,1500,1506,11774,839
285502,9,-0.87,-0.61,0.07,-0.046,-0.011,0.881,-2.12,-0.35,0.00,0.00,2.12,0.35,0.00,7.42,1.21,8.29,1.82,0.00,0.80,0.55,3.34,1100,1100,1100,1100,1035,1500,1506,11778,839
285514,9,0.58,-1.30,-0.73,0.044,-0.067,0.927,-2.80,-0.57,0.00,0.00,2.80,0.57,0.00,9.79,1.98,9.21,3.28,0.00,0.15,1.20,15.20,1100,1100,1100,1100,1035,1500,1506,11774,839
285527,9,-0.17,3.37,-0.19,-0.037,-0.096,0.874,-2.57,-0.83,0.00,0.00,2.57,0.83,0.00,9.00,2.89,9.17,-0.48,0.00,0.38,-1.25,-0.61,1100,1100,1100,1100,1035,1500,1506,11770,839
285539,9,0.25,-1.36,0.26,0.057,0.004,0.844,-2.43,-0.56,0.00,0.00,2.43,0.56,0.00,8.51,1.94,8.26,3.31,0.00,0.34,1.00,23.43,1100,1100,1100,1100,1035,1500,1506,11770,839
285551,9,1.54,2.25,0.38,-0.050,-0.055,0.989,-2.80,-0.96,0.00,0.00,2.80,0.96,0.00,9.81,3.34,8.27,1.09,0.00,-0.30,-0.48,-5.29,1100,1100,1100,1100,1037,1500,1506,11770,823
285563,9,-0.96,0.80,0.25,0.001,-0.050,0.824,-2.40,-0.31,0.00,0.00,2.40,0.31,0.00,8.41,1.08,9.37,0.28,0.00,0.79,-0.16,-4.12,1100,1100,1100,1100,1037,1500,1506,11786,823
285574,9,-0.57,0.37,-0.11,0.018,-0.034,0.902,-2.69,-0.55,0.00,0.00,2.69,0.55,0.00,9.41,1.91,9.97,1.54,0.00,0.74,0.34,1.46,1100,1100,1100,1100,1037,1500,1506,11791,823
285587,9,1.79,1.14,0.25,0.026,-0.143,0.898,-3.05,-0.30,0.00,0.00,3.05,0.30,0.00,10.66,1.05,8.87,-0.09,0.00,-0.42,0.09,-4.70,1100,1100,1100,1100,1037,1500,1506,11786,823
285599,9,0.22,1.60,0.58,-0.005,-0.052,0.849,-2.78,-0.71,0.00,0.00,2.78,0.71,0.00,9.73,2.47,9.52,0.87,0.00,0.29,-0.25,-8.03,1100,1100,1100,1100,1037,1500,1506,11761,823
285611,9,-0.18,-0.79,-0.44,0.058,-0.075,0.927,-2.96,-0.01,0.00,0.00,2.96,0.01,0.00,10.34,0.03,10.53,0.82,0.00,0.62,0.62,48.10,1100,1100,1100,1100,1048,1500,1506,11774,823
285622,9,0.78,-2.85,0.29,0.064,-0.080,0.840,-2.94,1.24,0.00,0.00,2.94,-1.24,0.00,10.28,-4.33,9.50,-1.48,0.00,0.09,0.91,34.36,1100,1100,1100,1100,1048,1500,1506,11778,823
285634,9,-1.06,-1.91,-0.26,0.081,-0.022,0.822,-2.68,1.67,0.00,0.00,2.68,-1.67,0.00,9.39,-5.84,10.45,-3.92,0.00,0.89,0.34,40.01,1100,1100,1100,1100,1048,1500,1506,11774,823
285646,9,-0.95,-0.42,-0.52,0.036,-0.068,0.906,-2.80,1.92,0.00,0.00,2.80,-1.92,0.00,9.79,-6.72,10.73,-6.30,0.00,0.99,-0.43,44.69,1100,1100,1100,1100,1049,1500,1506,11774,823
285659,9,1.86,1.76,0.74,0.020,-0.106,0.853,-2.99,1.42,0.00,0.00,2.99,-1.42,0.00,10.46,-4.97,8.61,-6.73,0.00,-0.42,-1.00,-17.55,1100,1100,1100,1100,1049,1500,1506,11770,818
285671,9,0.24,0.17,0.13,-0.035,-0.101,0.913,-3.06,1.31,0.00,0.00,3.06,-1.31,0.00,10.71,-4.57,10.47,-4.74,0.00,0.34,-0.36,29.75,1100,1100,1100,1100,1049,1500,1506,11774,818
285682,9,0.22,-1.36,0.27,0.030,0.070,0.909,-2.36,1.27,0.00,0.00,2.36,-1.27,0.00,8.26,-4.46,8.05,-3.10,0.00,0.37,0.40,31.95,1100,1100,1100,1100,1049,1500,1506,11770,818
285694,9,0.17,0.70,0.21,-0.004,-0.049,0.875,-2.62,1.01,0.00,0.00,2.62,-1.01,0.00,9.18,-3.53,9.02,-4.23,0.00,0.29,-0.41,-4.70,1100,1100,1100,1100,1049,1500,1506,11766,818
285706,9,-1.61,1.22,-0.66,-0.022,-0.086,0.899,-2.58,0.98,0.00,0.00,2.58,-0.98,0.00,9.05,-3.42,10.65,-4.64,0.00,1.20,-0.70,12.78,1100,1100,1100,1100,1055,1500,1506,11774,818
285719,9,2.26,0.27,0.42,0.001,-0.024,0.926,-2.52,0.19,0.00,0.00,2.52,-0.19,0.00,8.83,-0.65,6.58,-0.93,0.00,-0.68,0.33,-9.99,1100,1100,1100,1100,1055,1500,1506,11774,818
285731,9,-0.19,2.83,-0.19,-0.023,-0.142,0.865,-2.51,0.06,0.00,0.00,2.51,-0.06,0.00,8.77,-0.20,8.96,-3.03,0.00,0.38,-1.12,2.54,1100,1100,1100,1100,1056,1500,1506,11778,818
285742,9,-0.16,-2.09,0.37,0.059,-0.038,0.855,-2.31,1.02,0.00,0.00,2.31,-1.02,0.00,8.10,-3.57,8.26,-1.48,0.00,0.62,0.83,-5.71,1100,1100,1100,1100,1056,1500,1506,11774,818
285754,9,2.57,-0.61,0.06,0.042,-0.079,0.919,-2.93,1.14,0.00,0.00,2.93,-1.14,0.00,10.26,-3.99,7.69,-3.38,0.00,-0.74,0.27,0.39,1100,1100,1100,1100,1056,1500,1506,11778,818
285766,9,-1.45,1.41,-0.31,-0.055,-0.105,0.845,-2.78,0.65,0.00,0.00,2.78,-0.65,0.00,9.72,-2.28,11.17,-3.69,0.00,0.98,-0.78,9.07,1100,1100,1100,1100,1063,1500,1506,11774,818
285779,9,-1.37,-0.03,-0.05,0.029,-0.109,0.931,-3.01,-0.06,0.00,0.00,3.01,0.06,0.00,10.55,0.20,11.92,0.24,0.00,1.26,0.39,43.95,1100,1100,1100,1100,1063,1500,1506,11774,818
285791,9,0.47,4.12,-0.57,-0.042,-0.149,0.942,-3.12,-1.14,0.00,0.00,3.12,1.14,0.00,10.93,3.98,10.46,-0.14,0.00,0.14,-1.25,11.98,1100,1100,1100,1100,1063,1500,1506,11774,818
285802,9,-1.10,-1.45,0.06,0.002,0.054,0.837,-2.23,-0.63,0.00,0.00,2.23,0.63,0.00,7.81,2.19,8.92,3.64,0.00,0.87,0.85,-1.92,1100,1100,1100,1100,1063,1500,1506,11770,818
285814,9,0.30,-1.59,-0.06,0.029,-0.021,0.994,-2.65,-0.18,0.00,0.00,2.65,0.18,0.00,9.28,0.62,8.99,2.22,0.00,0.30,0.86,1.01,1100,1100,1100,1100,1063,1500,1506,11770,818
285826,9,-1.04,3.02,0.91,-0.000,-0.130,0.831,-2.73,-0.28,0.00,0.00,2.73,0.28,0.00,9.54,0.97,10.58,-2.05,0.00,0.91,-1.35,-14.67,1100,1100,1100,1100,1065,1500,1506,11766,818
285839,9,0.71,-1.77,0.58,-0.001,-0.086,0.928,-2.76,0.07,0.00,0.00,2.76,-0.07,0.00,9.67,-0.24,8.96,1.52,0.00,0.13,0.82,28.28,1100,1100,1100,1100,1065,1500,1506,11770,818
285851,9,1.33,3.74,-0.37,0.003,-0.048,0.941,-2.83,-0.56,0.00,0.00,2.83,0.56,0.00,9.92,1.95,8.59,-1.79,0.00,-0.23,-1.43,9.95,1100,1100,1100,1100,1067,1500,1506,11774,820
285862,9,-1.11,-0.40,0.61,0.006,-0.058,0.796,-2.82,0.16,0.00,0.00,2.82,-0.16,0.00,9.86,-0.56,10.97,-0.16,0.00,0.98,0.35,-11.67,1100,1100,1100,1100,1067,1500,1506,11782,820
285874,9,0.02,-0.81,-0.39,-0.008,-0.029,0.946,-2.79,-0.17,0.00,0.00,2.79,0.17,0.00,9.77,0.59,9.76,1.39,0.00,0.47,0.74,7.08,1100,1100,1100,1100,1067,1500,1506,11774,820
285886,9,0.99,0.21,-0.15,0.049,-0.042,0.871,-2.74,-0.17,0.00,0.00,2.74,0.17,0.00,9.60,0.59,8.61,0.38,0.00,-0.04,0.22,3.84,1100,1100,1100,1100,1091,1500,1506,11774,820
285899,9,0.31,0.83,0.40,-0.017,-0.072,0.837,-2.61,0.01,0.00,0.00,2.61,-0.01,0.00,9.13,-0.02,8.82,-0.85,0.00,0.25,-0.35,-8.16,1100,1100,1100,1100,1091,1500,1506,11770,820
285911,9,-0.43,0.67,-0.76,0.053,-0.082,0.897,-2.52,0.11,0.00,0.00,2.52,-0.11,0.00,8.81,-0.39,9.24,-1.07,0.00,0.61,-0.18,54.09,1100,1100,1100,1100,1091,1500,1506,11770,820
285922,9,2.04,0.75,0.21,-0.072,-0.101,0.919,-2.77,-0.23,0.00,0.00,2.77,0.23,0.00,9.69,0.81,7.66,0.06,0.00,-0.45,-0.29,34.27,1100,1100,1100,1100,1091,1500,1506,11774,820
285934,9,0.42,-0.32,-0.20,-0.028,-0.011,0.913,-2.30,-0.49,0.00,0.00,2.30,0.49,0.00,8.03,1.72,7.61,2.04,0.00,0.04,0.63,2.46,1100,1100,1100,1100,1093,1500,1506,11766,820
285946,9,-3.04,-0.36,-0.04,0.007,-0.037,0.908,-2.67,-0.78,0.00,0.00,2.67,0.78,0.00,9.34,2.74,12.38,3.09,0.00,1.94,0.43,3.43,1100,1100,1100,1100,1093,1500,1506,11766,820
285959,9,1.62,-1.35,0.27,0.071,-0.197,0.843,-3.23,-0.77,0.00,0.00,3.23,0.77,0.00,11.29,2.70,9.68,4.05,0.00,-0.28,1.03,-3.07,1100,1100,1100,1100,1093,1500,1506,11770,818
285971,9,-1.14,2.65,-0.47,-0.006,-0.058,0.886,-2.77,-0.25,0.00,0.00,2.77,0.25,0.00,9.70,0.86,10.84,-1.79,0.00,0.91,-1.41,39.54,1100,1100,1100,1100,1093,1500,1506,11774,818
285982,9,0.85,-2.07,0.15,0.053,0.061,0.846,-2.63,0.66,0.00,0.00,2.63,-0.66,0.00,9.21,-2.31,8.36,-0.23,0.00,0.10,0.66,25.85,1100,1100,1100,1100,1093,1500,1506,11774,818
285995,9,1.31,1.65,0.64,-0.003,-0.100,0.948,-2.76,0.69,0.00,0.00,2.76,-0.69,0.00,9.65,-2.41,8.34,-4.06,0.00,-0.32,-0.87,16.30,1100,1100,1100,1100,1093,1500,1506,11761,818
286006,9,-1.55,1.23,-0.15,-0.049,-0.024,0.890,-2.64,0.34,0.00,0.00,2.64,-0.34,0.00,9.25,-1.18,10.80,-2.41,0.00,1.17,-0.62,35.16,1100,1100,1100,1100,1093,1500,1506,11766,818
286019,9,0.88,-0.63,0.02,-0.007,-0.057,0.941,-3.03,-0.42,0.00,0.00,3.03,0.42,0.00,10.61,1.49,9.74,2.12,0.00,0.12,0.76,0.52,1100,1100,1100,1100,1093,1500,1506,11757,818
286031,9,-0.80,3.62,0.34,-0.003,-0.097,0.852,-2.87,-0.72,0.00,0.00,2.87,0.72,0.00,10.04,2.53,10.83,-1.09,0.00,0.69,-1.32,20.04,1100,1100,1100,1100,1095,1500,1506,11761,818
286042,9,0.43,-0.27,0.02,0.009,0.002,0.890,-2.43,-0.34,0.00,0.00,2.43,0.34,0.00,8.52,1.20,8.09,1.47,0.00,0.28,0.43,29.17,1100,1100,1100,1100,1095,1500,1506,11761,818
286054,9,2.97,0.82,0.41,-0.031,-0.089,0.971,-2.65,-0.48,0.00,0.00,2.65,0.48,0.00,9.27,1.67,6.30,0.85,0.00,-1.01,0.13,21.60,1100,1100,1100,1100,1095,1500,1506,11761,818
286066,9,-1.85,0.64,-0.69,-0.054,-0.060,0.847,-2.40,-0.57,0.00,0.00,2.40,0.57,0.00,8.41,2.01,10.26,1.37,0.00,1.22,-0.14,41.00,1100,1100,1100,1100,1106,1500,1506,11766,818
286079,9,-0.15,-3.89,-0.29,0.064,-0.072,0.897,-2.75,-0.31,0.00,0.00,2.75,0.31,0.00,9.61,1.07,9.77,4.97,0.00,0.57,2.02,42.77,1100,1100,1100,1100,1106,1500,1506,11766,818
286091,9,1.27,1.55,0.40,0.016,-0.154,0.889,-2.98,-0.13,0.00,0.00,2.98,0.13,0.00,10.43,0.45,9.16,-1.09,0.00,-0.23,-0.66,-6.43,1100,1100,1100,1100,1106,1500,1506,11757,818
286103,9,-0.35,1.97,0.35,-0.012,-0.015,0.861,-2.48,-0.29,0.00,0.00,2.48,0.29,0.00,8.68,1.02,9.03,-0.96,0.00,0.55,-0.90,-2.00,1100,1100,1100,1100,1106,1500,1506,11757,818
286114,9,-0.19,-0.84,-0.33,-0.014,-0.102,0.973,-2.93,-0.32,0.00,0.00,2.93,0.32,0.00,10.24,1.13,10.42,1.96,0.00,0.58,0.66,49.26,1100,1100,1100,1100,1116,1500,1506,11766,818
286126,9,-0.95,-0.81,-0.46,0.037,-0.124,0.837,-3.14,-0.22,0.00,0.00,3.14,0.22,0.00,11.00,0.77,11.95,1.58,0.00,0.86,0.39,47.69,1100,1100,1100,1100,1117,1500,1506,11766,818
286139,9,-0.84,-3.21,0.62,0.073,-0.024,0.849,-3.13,0.70,0.00,0.00,3.13,-0.70,0.00,10.96,-2.45,11.80,0.76,0.00,0.86,0.96,13.54,1100,1100,1100,1100,1117,1500,1506,11757,818
286151,9,0.32,-0.85,0.33,0.087,-0.044,0.879,-3.39,1.70,0.00,0.00,3.39,-1.70,0.00,11.85,-5.95,11.53,-5.11,0.00,0.41,-0.38,42.63,1100,1100,1100,1100,1126,1500,1506,11757,817
286162,9,1.26,1.04,0.50,0.026,-0.052,0.831,-3.23,1.63,0.00,0.00,3.23,-1.63,0.00,11.31,-5.70,10.05,-6.74,0.00,-0.13,-1.08,38.72,1100,1100,1100,1100,1126,1500,1506,11766,817
286174,9,0.94,0.23,-0.37,-0.011,-0.078,0.914,-3.03,1.59,0.00,0.00,3.03,-1.59,0.00,10.59,-5.57,9.65,-5.80,0.00,0.09,-0.50,44.54,1100,1100,1100,1100,1130,1500,1506,11774,817
286186,9,0.65,0.61,-0.45,0.040,-0.003,0.922,-2.64,1.68,0.00,0.00,2.64,-1.68,0.00,9.23,-5.89,8.58,-6.50,0.00,0.22,-0.42,45.68,1100,1100,1100,1100,1140,1500,1506,11774,817
286199,9,-0.75,0.04,0.46,-0.008,-0.086,0.846,-2.83,1.57,0.00,0.00,2.83,-1.57,0.00,9.91,-5.50,10.66,-5.54,0.00,0.84,-0.28,-12.92,1100,1100,1100,1100,1140,1500,1506,11774,817
286211,9,-0.88,-0.69,-0.60,0.053,-0.064,0.884,-2.64,1.41,0.00,0.00,2.64,-1.41,0.00,9.25,-4.95,10.13,-4.26,0.00,0.89,0.10,38.11,1100,1100,1100,1100,1142,1500,1506,11774,817
286222,9,1.42,-0.32,0.21,0.057,-0.120,0.889,-3.02,1.57,0.00,0.00,3.02,-1.57,0.00,10.57,-5.48,9.16,-5.17,0.00,-0.19,-0.10,21.56,1100,1100,1100,1100,1142,1500,1506,11770,817
286234,9,-0.78,2.06,-0.48,0.001,-0.098,0.846,-2.67,1.58,0.00,0.00,2.67,-1.58,0.00,9.35,-5.53,10.13,-7.59,0.00,0.78,-1.39,6.84,1100,1100,1100,1100,1147,1500,1506,11766,817
286246,9,0.00,-2.05,0.10,0.023,0.043,0.916,-2.35,1.67,0.00,0.00,2.35,-1.67,0.00,8.22,-5.83,8.21,-3.77,0.00,0.49,0.57,-3.05,1100,1100,1100,1100,1149,1500,1506,11757,817
286259,9,1.76,1.49,0.15,-0.062,-0.128,0.964,-2.90,0.66,0.00,0.00,2.90,-0.66,0.00,10.16,-2.32,8.41,-3.81,0.00,-0.46,-0.60,35.80,1100,1100,1100,1100,1149,1500,1506,11774,817
286271,9,-1.39,0.22,-0.42,0.034,-0.046,0.821,-2.43,0.73,0.00,0.00,2.43,-0.73,0.00,8.50,-2.56,9.89,-2.79,0.00,1.02,-0.06,52.84,1100,1100,1100,1100,1153,1500,1506,11766,817
286282,9,-0.35,-1.93,0.23,0.052,-0.066,0.929,-3.23,0.66,0.00,0.00,3.23,-0.66,0.00,11.29,-2.29,11.65,-0.37,0.00,0.74,0.88,39.46,1100,1100,1100,1100,1153,1500,1506,11757,817
286294,9,-0.12,1.88,0.19,0.029,-0.141,0.859,-3.34,0.74,0.00,0.00,3.34,-0.74,0.00,11.70,-2.59,11.82,-4.47,0.00,0.36,-1.01,-3.57,1100,1100,1100,1100,1154,1500,1506,11753,817
286307,9,-1.09,0.04,0.61,-0.010,0.032,0.852,-2.99,0.72,0.00,0.00,2.99,-0.72,0.00,10.45,-2.51,11.55,-2.55,0.00,0.95,-0.30,-11.47,1100,1100,1100,1100,1169,1500,1506,11741,817
286319,9,2.28,-1.07,0.35,0.028,-0.071,0.959,-3.45,0.75,0.00,0.00,3.45,-0.75,0.00,12.07,-2.62,9.79,-1.54,0.00,-0.63,0.40,25.61,1100,1100,1100,1100,1169,1500,1506,11724,817
286331,9,-0.89,0.28,0.25,0.009,-0.111,0.829,-3.16,0.96,0.00,0.00,3.16,-0.96,0.00,11.08,-3.34,11.96,-3.63,0.00,0.74,-0.61,40.75,1100,1100,1100,1100,1171,1500,1506,11711,817
286342,9,-0.38,-1.14,-0.73,0.024,-0.056,0.911,-3.37,0.74,0.00,0.00,3.37,-0.74,0.00,11.78,-2.59,12.16,-1.44,0.00,0.74,0.25,54.23,1100,1100,1100,1100,1171,1500,1506,11703,817
286354,9,1.66,2.44,-0.71,0.014,-0.140,0.918,-3.26,0.53,0.00,0.00,3.26,-0.53,0.00,11.40,-1.85,9.73,-4.29,0.00,-0.31,-1.09,50.51,1126,1215,1214,1127,1171,1500,1506,11691,818
286366,9,-1.39,1.20,1.46,-0.021,-0.039,0.846,-2.54,0.34,0.00,0.00,2.54,-0.34,0.00,8.89,-1.17,10.28,-2.38,0.00,1.05,-0.52,12.03,1126,1215,1214,1127,1178,1500,1506,11703,818
286379,9,2.12,-0.95,0.22,-0.005,-0.037,0.927,-2.77,-0.08,0.00,0.00,2.77,0.08,0.00,9.70,0.29,7.58,1.24,0.00,-0.42,0.84,1.38,1126,1215,1214,1127,1178,1500,1506,11678,818
286391,9,0.84,0.56,-0.78,-0.070,-0.117,0.943,-2.64,-0.82,0.00,0.00,2.64,0.82,0.00,9.26,2.88,8.42,2.31,0.00,-0.12,0.25,51.83,1126,1215,1214,1127,1178,1500,1506,11670,818
286402,9,-2.08,0.56,0.32,0.018,-0.094,0.817,-2.32,-0.75,0.00,0.00,2.32,0.75,0.00,8.13,2.62,10.21,2.06,0.00,1.37,0.13,25.45,1126,1215,1214,1127,1178,1500,1506,11674,818
286414,9,0.31,0.35,-0.41,0.076,-0.054,0.885,-2.42,-0.11,0.00,0.00,2.42,0.11,0.00,8.46,0.40,8.16,0.05,0.00,0.40,0.13,55.56,1126,1215,1214,1127,1193,1500,1506,11670,818
286426,9,2.16,-0.72,-0.57,0.054,-0.171,0.835,-3.12,0.78,0.00,0.00,3.12,-0.78,0.00,10.93,-2.73,8.77,-2.00,0.00,-0.56,0.05,62.38,1126,1215,1214,1127,1193,1500,1506,11653,818
286439,9,-0.95,-2.71,0.42,0.023,-0.081,0.819,-2.88,1.06,0.00,0.00,2.88,-1.06,0.00,10.09,-3.69,11.03,-0.98,0.00,0.81,0.75,-4.78,1126,1215,1214,1127,1193,1500,1506,11649,818
286451,9,-1.88,2.43,0.48,-0.094,-0.105,1.001,-3.02,0.74,0.00,0.00,3.02,-0.74,0.00,10.56,-2.60,12.44,-5.04,0.00,1.45,-1.55,-8.68,1196,1189,1189,1199,1194,1500,1506,11637,818
286462,9,1.54,4.73,-0.29,-0.078,-0.053,1.042,-3.22,-0.05,0.00,0.00,3.22,0.05,0.00,11.28,0.19,9.75,-4.54,0.00,-0.12,-1.98,4.47,1196,1189,1189,1199,1194,1500,1506,11653,818
286474,9,3.67,5.34,0.54,0.037,-0.201,0.885,-3.46,-0.43,0.00,0.00,3.46,0.43,0.00,12.12,1.49,8.45,-3.86,0.00,-1.41,-1.71,-14.69,1196,1189,1189,1199,1194,1500,1506,11649,818
286486,1,-4.10,-2.58,-0.74,-0.036,-0.008,0.940,-2.53,0.83,0.00,0.00,2.53,-0.83,0.00,8.86,-2.92,12.96,-0.33,0.00,2.14,1.34,10.41,1196,1189,1189,1199,1200,1500,1506,11645,818
286499,1,-3.06,-2.19,-0.22,-0.022,-0.041,0.867,-3.07,2.32,0.00,0.00,3.07,-2.32,0.00,10.78,-8.15,13.84,-5.95,0.00,2.01,-0.06,33.29,1196,1189,1189,1199,1200,1500,1506,11620,818
286511,1,4.58,-3.64,0.36,0.103,0.040,0.773,-3.57,0.65,0.00,0.00,3.57,-0.65,0.00,12.58,-2.30,7.99,1.34,0.00,-1.60,1.76,25.53,1196,1189,1189,1199,1200,1500,1506,11624,818
286522,1,7.16,7.86,0.69,-0.089,-0.261,1.004,-4.13,-0.19,0.00,0.00,4.13,0.19,0.00,14.54,0.64,7.38,-7.22,0.00,-3.27,-3.10,14.38,1196,1189,1189,1199,1200,1500,1506,11637,818
286534,1,-8.97,2.35,-0.90,-0.030,-0.061,0.938,-2.52,0.97,0.00,0.00,2.52,-0.97,0.00,8.96,-3.42,17.93,-5.77,0.00,4.50,-1.25,62.51,1196,1189,1189,1199,1202,1500,1506,11628,818
286546,1,-6.75,-2.71,-2.30,-0.019,0.158,0.931,-1.55,1.06,0.00,0.00,1.55,-1.06,0.00,5.56,-3.77,12.31,-1.06,0.00,3.95,1.17,84.53,1196,1189,1189,1199,1205,1500,1506,11612,818
286559,1,10.71,2.04,-0.34,0.027,0.143,0.970,-2.26,0.39,0.00,0.00,2.26,-0.39,0.00,8.08,-1.41,-2.63,-3.45,0.00,-4.30,-0.62,24.79,1158,1244,1251,1164,1205,1500,1506,11624,815
286571,1,14.81,5.98,0.30,-0.041,-0.191,0.934,-3.52,0.42,0.00,0.00,3.52,-0.42,0.00,12.52,-1.53,-2.29,-7.51,0.00,-6.86,-3.02,46.32,1158,1244,1251,1164,1206,1500,1506,11612,815
286583,1,-3.79,-4.10,0.67,0.345,-0.436,0.496,-4.55,2.25,0.00,0.00,4.55,-2.25,0.00,16.15,-7.93,19.94,-3.84,0.00,1.86,2.15,44.33,1158,1244,1251,1164,1206,1500,1506,11591,815
286594,1,-14.79,0.93,-0.17,-0.153,-0.174,1.180,-3.49,1.03,0.00,0.00,3.49,-1.03,0.00,12.47,-3.68,27.25,-4.60,0.00,7.82,-0.76,59.26,1158,1244,1251,1164,1210,1500,1506,11582,815
286606,1,-0.11,-4.59,-2.19,0.095,0.080,0.925,-3.25,4.46,0.00,0.00,3.25,-4.46,0.00,11.68,-15.73,11.79,-11.14,0.00,1.21,1.46,88.14,1158,1244,1251,1164,1210,1500,1506,11578,815
286619,1,4.58,4.52,-3.12,0.108,0.059,0.861,-3.35,2.89,0.00,0.00,3.35,-2.89,0.00,12.07,-10.25,7.48,-14.76,0.00,-1.78,-2.32,66.00,1158,1244,1251,1164,1210,1500,1506,11599,815
286631,1,-0.29,-1.47,-3.10,0.201,-0.394,0.739,-4.02,0.41,0.00,0.00,4.02,-0.41,0.00,14.43,-1.59,14.72,-0.13,0.00,0.11,0.94,67.75,1158,1244,1251,1164,1212,1500,1506,11607,815
286642,1,-7.51,-14.02,-2.02,0.014,-0.221,0.780,-3.29,0.07,0.00,0.00,3.29,-0.07,0.00,11.90,-0.38,19.41,13.64,0.00,3.91,6.34,48.94,1158,1244,1251,1164,1212,1500,1506,11620,815
286654,1,-7.78,-5.95,-2.17,-0.425,0.164,1.002,-0.91,-1.60,0.00,0.00,0.91,1.60,0.00,3.58,5.46,11.36,11.41,0.00,4.25,3.41,43.69,1168,1256,1245,1173,1211,1500,1506,11616,815
286666,1,5.94,3.35,-3.36,-0.105,0.064,0.908,-1.89,0.40,0.00,0.00,1.89,-0.40,0.00,7.04,-1.56,1.10,-4.91,0.00,-2.11,-0.34,65.25,1168,1256,1245,1173,1213,1500,1506,11624,815
286679,1,8.19,10.08,-2.02,-0.204,-0.188,1.014,-3.45,1.94,0.00,0.00,3.45,-1.94,0.00,12.51,-6.95,4.32,-17.03,0.00,-3.37,-6.34,-0.95,1168,1256,1245,1173,1213,1500,1506,11603,815
286691,1,-1.19,6.36,-0.72,-0.173,-0.451,0.992,-3.74,-2.34,0.00,0.00,3.74,2.34,0.00,13.58,8.02,14.77,1.67,0.00,0.75,-2.96,31.19,1168,1256,1245,1173,1213,1500,1506,11612,815
286702,1,-8.06,-3.86,0.10,0.152,-0.194,0.687,-2.78,-1.34,0.00,0.00,2.78,1.34,0.00,10.23,4.55,18.29,8.41,0.00,4.42,2.79,28.59,1168,1256,1245,1173,1213,1500,1506,11599,815
286715,1,-2.55,0.52,0.99,0.101,-0.085,0.687,-3.32,-0.60,0.00,0.00,3.32,0.60,0.00,12.17,1.97,14.72,1.45,0.00,2.18,-0.55,10.86,1168,1256,1245,1173,1214,1500,1506,11595,815
286726,1,-0.45,9.45,0.27,0.136,0.000,0.992,-3.64,-0.33,0.00,0.00,3.64,0.33,0.00,13.30,1.05,13.75,-8.40,0.00,0.81,-5.03,32.20,1168,1256,1245,1173,1214,1500,1506,11599,815
286739,1,3.54,-7.60,1.44,0.354,-0.077,0.879,-4.65,1.39,0.00,0.00,4.65,-1.39,0.00,16.90,-4.97,13.36,2.63,0.00,-0.72,2.76,-11.97,1168,1256,1245,1173,1214,1500,1506,11599,815
286751,1,-0.93,-3.14,1.19,0.150,-0.152,0.769,-4.66,1.05,0.00,0.00,4.66,-1.05,0.00,16.97,-3.80,17.90,-0.66,0.00,1.41,1.03,31.19,1200,1228,1230,1200,1215,1500,1506,11607,815
286762,1,1.87,-0.83,1.49,-0.002,-0.177,0.856,-5.23,0.25,0.00,0.00,5.23,-0.25,0.00,19.02,-1.02,17.15,-0.19,0.00,-0.22,0.55,22.12,1200,1228,1230,1200,1215,1500,1506,11612,815
286774,1,-1.78,-4.02,-1.59,0.086,-0.031,0.851,-4.34,1.61,0.00,0.00,4.34,-1.61,0.00,15.93,-5.78,17.71,-1.76,0.00,1.45,1.40,63.01,1200,1228,1230,1200,1217,1500,1506,11620,815
286786,1,0.96,-5.52,-3.08,0.005,0.061,0.922,-3.25,2.91,0.00,0.00,3.25,-2.91,0.00,12.14,-10.36,11.18,-4.84,0.00,0.09,1.45,65.80,1200,1228,1230,1200,1217,1500,1506,11599,815
286799,1,1.17,2.89,-2.88,-0.138,0.019,1.028,-2.99,3.39,0.00,0.00,2.99,-3.39,0.00,11.30,-12.07,10.13,-14.96,0.00,0.30,-2.49,79.27,1200,1228,1230,1200,1217,1500,1506,11603,815
286811,1,5.34,2.28,-2.61,0.011,0.108,0.807,-2.44,4.86,0.00,0.00,2.44,-4.86,0.00,9.38,-17.28,4.04,-19.56,0.00,-1.66,-2.27,41.75,1200,1228,1230,1200,1218,1500,1506,11595,815
286822,1,8.22,3.94,-2.37,0.299,-0.087,0.603,-3.88,5.58,0.00,0.00,3.88,-5.58,0.00,14.45,-19.83,6.23,-23.77,0.00,-3.39,-2.97,37.67,1200,1228,1230,1200,1218,1500,1506,11582,815
286834,1,1.49,0.15,-2.05,0.180,-0.155,0.924,-3.53,4.13,0.00,0.00,3.53,-4.13,0.00,13.27,-14.78,11.78,-14.94,0.00,-0.50,-1.95,47.92,1200,1228,1230,1200,1218,1500,1506,11599,815
286846,1,-7.04,-5.68,-0.21,0.034,-0.124,0.905,-3.04,3.13,0.00,0.00,3.04,-3.13,0.00,11.57,-11.32,18.61,-5.64,0.00,3.47,1.57,22.90,1200,1228,1230,1200,1221,1500,1506,11591,815
286859,1,-7.68,-1.85,-1.52,-0.035,0.147,0.765,-1.92,3.26,0.00,0.00,1.92,-3.26,0.00,7.67,-11.80,15.35,-9.95,0.00,4.36,0.61,66.03,1184,1257,1254,1186,1221,1500,1506,11582,815
286871,1,5.45,-6.69,-1.71,0.016,0.153,0.813,-3.55,6.50,0.00,0.00,3.55,-6.50,0.00,13.44,-23.23,7.99,-16.54,0.00,-1.62,1.47,50.29,1184,1257,1254,1186,1221,1500,1506,11582,815
286882,1,10.20,10.78,-2.19,-0.141,0.060,1.053,-4.39,4.16,0.00,0.00,4.39,-4.16,0.00,16.40,-15.05,6.21,-25.83,0.00,-4.19,-7.58,55.43,1184,1257,1254,1186,1221,1500,1506,11595,815
286894,1,8.62,-2.72,-3.90,0.385,-0.175,0.640,-3.97,3.96,0.00,0.00,3.97,-3.96,0.00,14.97,-14.40,6.35,-11.68,0.00,-3.39,0.56,70.65,1184,1257,1254,1186,1221,1500,1506,11582,815
286906,1,-5.79,-4.76,-2.71,-0.199,-0.409,0.950,-3.34,2.10,0.00,0.00,3.34,-2.10,0.00,12.81,-7.92,18.60,-3.15,0.00,3.51,1.82,41.85,1184,1257,1254,1186,1221,1500,1506,11566,815
286919,1,-6.82,-1.00,-1.49,-0.365,-0.098,0.991,-2.99,1.06,0.00,0.00,2.99,-1.06,0.00,11.59,-4.32,18.40,-3.32,0.00,4.05,0.12,43.28,1184,1257,1254,1186,1221,1500,1506,11557,815
286931,1,-0.08,13.02,-0.56,-0.072,-0.003,0.961,-2.60,-0.03,0.00,0.00,2.60,0.03,0.00,10.28,-0.50,10.36,-13.52,0.00,0.75,-5.20,-19.94,1184,1257,1254,1186,1232,1500,1506,11553,815
286942,1,-1.48,3.37,0.73,0.366,0.032,0.658,-2.38,4.14,0.00,0.00,2.38,-4.14,0.00,9.53,-15.10,11.01,-18.47,0.00,1.50,-1.88,-36.82,1184,1257,1254,1186,1232,1500,1506,11566,815
286954,1,-0.39,-3.13,1.60,0.241,-0.075,0.690,-3.46,5.00,0.00,0.00,3.46,-5.00,0.00,13.35,-18.15,13.73,-15.02,0.00,0.97,0.41,-32.67,1266,1197,1200,1263,1232,1500,1506,11562,815
286966,1,0.22,-4.43,1.63,0.132,-0.111,0.791,-3.76,3.49,0.00,0.00,3.76,-3.49,0.00,14.42,-12.88,14.20,-8.45,0.00,0.70,1.33,-12.98,1266,1197,1200,1263,1235,1500,1506,11557,815
286979,1,1.08,1.06,0.38,0.049,-0.119,1.066,-3.93,1.81,0.00,0.00,3.93,-1.81,0.00,15.03,-7.03,13.95,-8.09,0.00,0.25,-0.69,44.73,1266,1197,1200,1263,1235,1500,1506,11582,815
286991,1,-6.87,2.21,-1.69,0.121,-0.141,0.852,-3.57,2.18,0.00,0.00,3.57,-2.18,0.00,13.81,-8.35,20.68,-10.56,0.00,3.82,-1.12,92.81,1266,1197,1200,1263,1235,1500,1506,11578,815
287002,1,-5.14,-6.17,-1.72,0.263,-0.120,0.714,-3.54,2.99,0.00,0.00,3.54,-2.99,0.00,13.75,-11.22,18.89,-5.05,0.00,2.88,3.11,74.85,1266,1197,1200,1263,1235,1500,1506,11578,815
287014,1,-6.56,-2.27,-3.39,-0.249,0.025,1.002,-3.40,1.71,0.00,0.00,3.40,-1.71,0.00,13.31,-6.74,19.87,-4.48,0.00,3.77,1.41,37.03,1266,1197,1200,1263,1239,1500,1506,11582,815
287027,1,-3.24,-0.85,-3.29,-0.254,0.323,0.924,-2.81,1.25,0.00,0.00,2.81,-1.25,0.00,11.29,-5.19,14.53,-4.34,0.00,2.40,0.82,27.17,1266,1197,1200,1263,1244,1500,1506,11549,815
287039,1,8.60,9.22,-2.89,-0.347,0.357,1.244,-3.61,0.02,0.00,0.00,3.61,-0.02,0.00,14.13,-0.88,5.53,-10.10,0.00,-3.46,-3.82,11.40,1266,1197,1200,1263,1244,1500,1506,11553,815
287051,1,16.37,9.19,-4.94,0.032,0.290,0.970,-2.98,-0.42,0.00,0.00,2.98,0.42,0.00,11.95,0.68,-4.43,-8.51,0.00,-6.87,-2.49,95.38,1167,1328,1316,1162,1244,1500,1506,11562,815
287062,1,14.53,-0.41,-4.37,0.286,-0.108,0.688,-3.55,1.50,0.00,0.00,3.55,-1.50,0.00,13.97,-6.04,-0.56,-5.64,0.00,-5.76,0.70,73.41,1167,1328,1316,1162,1244,1500,1506,11549,815
287074,1,2.08,-14.45,-3.41,0.060,-0.517,0.754,-4.98,4.34,0.00,0.00,4.98,-4.34,0.00,18.99,-16.02,16.90,-1.57,0.00,0.14,4.87,53.98,1167,1328,1316,1162,1246,1500,1506,11549,815
287086,1,-6.97,3.35,-5.13,-0.383,-0.379,1.087,-3.64,2.69,0.00,0.00,3.64,-2.69,0.00,14.34,-10.30,21.31,-13.65,0.00,3.92,-2.87,89.24,1167,1328,1316,1162,1246,1500,1506,11532,815
287099,1,-4.06,7.94,-4.88,-0.333,0.017,0.993,-1.07,1.44,0.00,0.00,1.07,-1.44,0.00,5.36,-5.96,9.42,-13.90,0.00,2.45,-3.43,19.80,1167,1328,1316,1162,1246,1500,1506,11532,815
287111,1,-0.87,9.43,-2.33,-0.008,0.141,0.883,-0.27,1.50,0.00,0.00,0.27,-1.50,0.00,2.56,-6.15,3.43,-15.59,0.00,1.32,-4.08,10.55,1167,1328,1316,1162,1249,1500,1506,11520,815
287123,1,2.18,3.81,-1.52,0.338,0.182,0.624,-0.65,4.84,0.00,0.00,0.65,-4.84,0.00,3.93,-17.89,1.75,-21.70,0.00,-0.33,-2.41,10.87,1167,1328,1316,1162,1249,1500,1506,11508,815
287134,1,4.95,-2.70,-1.82,0.412,0.002,0.632,-2.50,7.03,0.00,0.00,2.50,-7.03,0.00,10.41,-25.58,5.45,-22.88,0.00,-1.91,-0.17,50.53,1167,1328,1316,1162,1253,1501,1505,11524,815
287146,1,4.01,-12.24,-3.58,0.125,-0.158,0.758,-3.64,6.07,0.00,0.00,3.64,-6.07,0.00,14.41,-22.27,10.40,-10.04,0.00,-1.31,3.13,89.69,1167,1328,1316,1162,1258,1500,1506,11524,815
287159,1,2.76,-1.43,-5.73,-0.037,-0.205,0.858,-4.01,2.58,0.00,0.00,4.01,-2.58,0.00,15.77,-10.11,13.01,-8.68,0.00,-0.47,-0.59,118.25,1186,1328,1326,1188,1258,1500,1506,11495,815
287171,1,4.82,1.99,-6.47,-0.065,-0.285,1.000,-4.08,1.22,0.00,0.00,4.08,-1.22,0.00,16.04,-5.37,11.21,-7.36,0.00,-1.45,-1.21,84.54,1186,1328,1326,1188,1258,1500,1506,11491,815
287182,1,-0.12,-0.40,-6.64,0.168,-0.356,0.786,-4.25,1.97,0.00,0.00,4.25,-1.97,0.00,16.66,-8.02,16.78,-7.62,0.00,1.03,0.15,67.65,1186,1328,1326,1188,1258,1500,1506,11478,815
287194,1,-6.54,1.80,-6.77,-0.053,-0.260,0.799,-3.46,0.77,0.00,0.00,3.46,-0.77,0.00,13.94,-3.83,20.48,-5.63,0.00,3.72,-0.85,70.73,1186,1328,1326,1188,1258,1500,1506,11462,815
287206,1,-10.98,-5.18,-7.51,-0.191,-0.022,0.833,-1.40,0.04,0.00,0.00,1.40,-0.04,0.00,6.72,-1.26,17.70,3.92,0.00,5.62,2.82,78.78,1186,1328,1326,1188,1258,1500,1506,11462,815
287219,1,-8.99,5.26,-5.85,-0.300,0.090,0.988,-1.01,-1.24,0.00,0.00,1.01,1.24,0.00,5.39,3.23,14.38,-2.03,0.00,4.72,-1.64,15.26,1186,1328,1326,1188,1258,1500,1506,11487,815
287231,1,2.52,6.96,-3.12,-0.021,0.265,0.939,-1.14,0.64,0.00,0.00,1.14,-0.64,0.00,5.87,-3.37,3.35,-10.33,0.00,-0.50,-2.69,-21.36,1186,1328,1326,1188,1258,1500,1506,11487,815
287242,1,7.76,3.51,-0.99,0.331,0.094,0.822,-2.19,1.95,0.00,0.00,2.19,-1.95,0.00,9.56,-7.94,1.80,-11.45,0.00,-2.96,-1.81,-41.49,1186,1328,1326,1188,1258,1500,1506,11512,815
287254,1,8.45,3.80,-0.60,0.213,-0.041,0.924,-2.64,0.46,0.00,0.00,2.64,-0.46,0.00,11.17,-2.74,2.72,-6.54,0.00,-3.55,-1.75,2.70,1264,1247,1253,1265,1258,1500,1506,11516,815
287266,1,1.10,-7.84,-1.86,0.191,-0.319,0.756,-2.29,0.28,0.00,0.00,2.29,-0.28,0.00,9.95,-2.11,8.85,5.72,0.00,-0.12,4.73,36.13,1264,1247,1253,1265,1263,1500,1506,11508,815
287279,1,-7.08,-5.36,-3.27,-0.114,-0.454,0.979,-1.24,0.03,0.00,0.00,1.24,-0.03,0.00,6.28,-1.25,13.35,4.12,0.00,4.10,4.25,32.19,1264,1247,1253,1265,1263,1500,1506,11528,815
287291,1,-10.18,-9.73,-4.46,0.033,-0.308,0.860,-0.71,3.31,0.00,0.00,0.71,-3.31,0.00,4.42,-12.74,14.60,-3.01,0.00,6.17,4.82,74.58,1264,1247,1253,1265,1263,1500,1506,11532,815
287302,1,-7.88,-1.85,-3.15,-0.050,-0.101,0.830,-1.15,5.85,0.00,0.00,1.15,-5.85,0.00,5.98,-21.71,13.86,-19.86,0.00,5.13,-1.41,38.77,1264,1247,1253,1265,1263,1500,1506,11520,815
287314,1,-5.91,-3.22,-2.79,0.221,0.054,0.649,-1.68,7.75,0.00,0.00,1.68,-7.75,0.00,7.86,-28.39,13.77,-25.17,0.00,3.94,-1.97,26.38,1264,1247,1253,1265,1265,1500,1506,11516,815
287327,1,-4.60,-6.34,-2.49,0.384,0.034,0.561,-2.66,9.04,0.00,0.00,2.66,-9.04,0.00,11.32,-33.00,15.92,-26.66,0.00,3.37,-1.25,20.10,1264,1247,1253,1265,1265,1500,1506,11520,815
287339,1,-0.92,-4.22,-0.44,-0.033,0.156,0.890,-3.27,5.61,0.00,0.00,3.27,-5.61,0.00,13.50,-21.04,14.43,-16.82,0.00,1.08,-1.29,-42.48,1264,1247,1253,1265,1265,1500,1506,11516,815
287351,1,-2.21,-2.66,0.86,-0.089,0.026,0.881,-3.37,2.24,0.00,0.00,3.37,-2.24,0.00,13.86,-9.29,16.07,-6.63,0.00,1.72,0.51,4.75,1265,1263,1261,1269,1265,1500,1506,11499,818
287362,1,-5.27,-1.19,0.87,-0.042,-0.037,0.949,-3.55,1.43,0.00,0.00,3.55,-1.43,0.00,14.55,-6.48,19.82,-5.30,0.00,3.02,0.77,26.71,1265,1263,1261,1269,1265,1500,1506,11483,818
287374,1,-4.53,-0.27,-0.08,-0.024,0.097,1.023,-3.30,2.25,0.00,0.00,3.30,-2.25,0.00,13.70,-9.38,18.23,-9.11,0.00,2.89,0.29,6.31,1265,1263,1261,1269,1266,1500,1506,11478,818
287386,1,-1.46,1.76,1.16,-0.047,0.134,0.991,-4.01,2.19,0.00,0.00,4.01,-2.19,0.00,16.23,-9.18,17.69,-10.93,0.00,1.36,-1.75,-10.04,1265,1263,1261,1269,1266,1500,1506,11495,818
287399,1,4.38,4.96,1.31,0.019,0.251,1.024,-3.64,-0.20,0.00,0.00,3.64,0.20,0.00,14.96,-0.81,10.59,-5.77,0.00,-1.16,-2.15,36.66,1265,1263,1261,1269,1266,1500,1506,11516,818
287411,1,10.05,4.01,0.82,0.261,0.144,0.874,-3.60,-1.15,0.00,0.00,3.60,1.15,0.00,14.86,2.52,4.82,-1.49,0.00,-4.03,-1.16,29.48,1265,1263,1261,1269,1266,1500,1506,11499,818
287422,1,9.31,-3.68,-0.70,0.274,-0.007,0.752,-3.11,-1.80,0.00,0.00,3.11,1.80,0.00,13.19,4.83,3.87,8.50,0.00,-3.74,2.79,47.87,1265,1263,1261,1269,1266,1500,1506,11520,818
287435,1,9.70,-6.51,-1.14,0.339,-0.109,0.695,-3.64,-2.36,0.00,0.00,3.64,2.36,0.00,15.07,6.83,5.37,13.35,0.00,-3.95,3.77,68.03,1265,1263,1261,1269,1266,1500,1506,11499,818
287446,1,6.60,-6.46,-0.87,0.240,-0.263,0.727,-3.77,-2.76,0.00,0.00,3.77,2.76,0.00,15.57,8.27,8.97,14.73,0.00,-2.60,4.21,55.50,1265,1263,1261,1269,1267,1500,1506,11491,818
287459,1,2.24,-7.18,-0.20,0.044,-0.385,0.829,-3.31,-4.09,0.00,0.00,3.31,4.09,0.00,13.95,12.95,11.71,20.13,0.00,-0.70,5.61,45.43,1224,1311,1304,1228,1267,1500,1506,11466,820
287471,1,-1.42,-6.96,0.94,-0.152,-0.418,0.973,-2.75,-5.41,0.00,0.00,2.75,5.41,0.00,12.01,17.61,13.44,24.57,0.00,1.06,6.17,-21.26,1224,1311,1304,1228,1270,1500,1506,11466,820
287482,1,-7.78,-4.84,-0.06,-0.157,-0.480,1.023,-2.12,-5.69,0.00,0.00,2.12,5.69,0.00,9.84,18.65,17.62,23.49,0.00,4.14,5.65,8.85,1224,1311,1304,1228,1270,1500,1506,11474,820
287494,1,-10.19,2.25,-1.60,-0.164,-0.405,1.102,-1.52,-5.31,0.00,0.00,1.52,5.31,0.00,7.72,17.37,17.91,15.12,0.00,5.52,2.46,42.43,1224,1311,1304,1228,1270,1500,1506,11453,820
287506,1,-11.80,-0.69,-2.35,-0.109,-0.224,0.906,-0.20,-4.31,0.00,0.00,0.20,4.31,0.00,3.14,13.90,14.94,14.59,0.00,6.54,3.45,51.48,1224,1311,1304,1228,1271,1500,1506,11462,820
287519,1,-10.21,-2.51,-2.67,-0.032,-0.054,0.855,1.23,-4.40,0.00,0.00,-1.23,4.40,0.00,-1.89,14.26,8.32,16.77,0.00,5.94,3.26,99.09,1224,1311,1304,1228,1271,1500,1506,11470,820
287531,1,-6.30,-2.50,-1.84,-0.074,0.024,0.927,1.82,-5.17,0.00,0.00,-1.82,5.17,0.00,-3.97,17.00,2.34,19.50,0.00,4.47,1.73,27.57,1224,1311,1304,1228,1272,1500,1506,11495,820
287542,1,-2.17,-1.95,-1.11,0.042,-0.050,0.839,1.53,-6.30,0.00,0.00,-1.53,6.30,0.00,-2.98,21.00,-0.81,22.95,0.00,3.09,1.84,9.36,1224,1311,1304,1228,1272,1500,1506,11499,820
287554,1,-9.43,-2.37,0.54,0.177,-0.102,0.988,0.89,-5.30,0.00,0.00,-0.89,5.30,0.00,-0.74,17.57,8.69,19.93,0.00,6.02,2.22,-17.42,1284,1260,1259,1284,1272,1500,1506,11512,815
287566,1,-9.84,-2.73,2.49,0.145,-0.264,0.861,-0.81,-3.43,0.00,0.00,0.81,3.43,0.00,5.21,11.07,15.05,13.80,0.00,4.99,1.71,-41.63,1284,1260,1259,1284,1273,1500,1507,11520,815
287579,1,-9.50,0.66,2.43,-0.015,-0.263,0.713,-1.89,-3.39,0.00,0.00,1.89,3.39,0.00,9.01,10.95,18.52,10.29,0.00,4.50,1.37,10.80,1284,1260,1259,1284,1273,1500,1507,11487,815
287591,1,-15.76,-3.13,1.27,-0.236,-0.261,1.005,-1.93,-3.36,0.00,0.00,1.93,3.36,0.00,9.16,10.87,24.92,14.00,0.00,7.23,3.57,1.16,1284,1260,1259,1284,1273,1500,1506,11503,815
287602,1,-16.37,1.01,-0.39,-0.267,-0.310,1.022,-2.66,-3.44,0.00,0.00,2.66,3.44,0.00,11.74,11.17,28.11,10.16,0.00,7.47,1.23,27.04,1284,1260,1259,1284,1273,1500,1506,11524,815
287614,1,-17.32,5.88,-2.78,-0.453,-0.097,1.053,-2.43,-4.18,0.00,0.00,2.43,4.18,0.00,10.99,13.78,28.31,7.91,0.00,8.16,-1.04,61.03,1284,1260,1259,1284,1274,1500,1506,11503,815
287626,1,-18.90,12.64,-4.83,-0.496,-0.085,1.217,-2.27,-5.88,0.00,0.00,2.27,5.88,0.00,10.44,19.79,29.34,7.16,0.00,8.54,-3.42,73.81,1284,1260,1259,1284,1275,1500,1506,11508,815
287639,1,-17.73,18.73,-5.93,-0.455,0.054,1.114,-1.88,-7.94,0.00,0.00,1.88,7.94,0.00,9.11,27.07,26.84,8.34,0.00,7.74,-4.61,114.43,1284,1260,1259,1284,1275,1500,1506,11466,815
287651,1,-17.12,22.32,-5.44,-0.299,0.201,1.025,-1.74,-8.15,0.00,0.00,1.74,8.15,0.00,8.64,27.88,25.76,5.57,0.00,7.44,-4.61,88.79,1195,1362,1363,1211,1284,1500,1506,11462,830
287662,1,-15.10,23.38,-4.12,-0.376,0.327,1.030,-1.00,-9.12,0.00,0.00,1.00,9.12,0.00,6.09,31.35,21.19,7.97,0.00,6.10,-3.44,53.29,1195,1362,1363,1211,1284,1500,1506,11445,830
287674,1,-15.94,18.74,-3.17,-0.332,0.271,1.080,-1.08,-9.93,0.00,0.00,1.08,9.93,0.00,6.39,34.27,22.33,15.54,0.00,5.84,-0.36,62.53,1195,1362,1363,1211,1284,1500,1506,11470,830
287686,1,-8.86,15.42,-2.89,-0.318,0.360,1.259,-1.45,-9.76,0.00,0.00,1.45,9.76,0.00,7.70,33.77,16.56,18.36,0.00,2.09,0.07,60.01,1195,1362,1363,1211,1286,1500,1506,11466,830
287699,1,-1.50,6.41,-1.76,-0.012,0.229,0.890,-2.42,-7.50,0.00,0.00,2.42,7.50,0.00,11.14,25.95,12.64,19.54,0.00,-0.82,2.15,38.86,1195,1362,1363,1211,1286,1500,1506,11462,830
287711,1,-0.65,6.84,-2.30,0.192,0.220,0.746,-2.14,-4.55,0.00,0.00,2.14,4.55,0.00,10.20,15.68,10.85,8.85,0.00,-0.50,0.28,46.93,1195,1362,1363,1211,1286,1500,1506,11466,830
287722,1,-0.59,8.95,-1.14,-0.083,0.218,0.855,-2.09,-4.18,0.00,0.00,2.09,4.18,0.00,10.03,14.43,10.62,5.47,0.00,0.13,-0.91,30.74,1195,1362,1363,1211,1286,1500,1506,11466,830
287734,1,-0.25,8.01,-0.41,-0.067,0.173,0.834,-1.72,-4.59,0.00,0.00,1.72,4.59,0.00,8.76,15.89,9.01,7.88,0.00,0.42,0.82,23.69,1195,1362,1363,1211,1288,1500,1506,11462,830
287746,1,-2.70,8.73,0.02,-0.103,0.088,0.946,-2.44,-2.44,0.00,0.00,2.44,2.44,0.00,11.31,8.40,14.01,-0.32,0.00,1.91,0.60,28.77,1195,1362,1363,1211,1288,1500,1506,11453,830
287759,1,-5.47,18.48,-0.37,-0.175,0.120,0.981,-2.43,-0.29,0.00,0.00,2.43,0.29,0.00,11.32,0.89,16.78,-17.59,0.00,3.33,-3.53,51.95,1274,1300,1301,1276,1288,1500,1506,11445,839
287771,1,-5.82,23.98,0.01,-0.231,0.212,0.975,-2.15,0.81,0.00,0.00,2.15,-0.81,0.00,10.35,-2.98,16.17,-26.96,0.00,3.59,-4.98,49.11,1274,1300,1301,1276,1292,1500,1506,11462,839
287782,1,0.61,23.01,0.56,-0.171,0.317,1.054,-2.12,0.07,0.00,0.00,2.12,-0.07,0.00,10.28,-0.40,9.67,-23.42,0.00,1.15,-3.14,41.32,1274,1300,1301,1276,1292,1500,1506,11462,839
287794,1,5.41,12.69,2.06,0.231,0.192,0.909,-2.69,1.49,0.00,0.00,2.69,-1.49,0.00,12.34,-5.35,6.92,-18.04,0.00,-0.90,0.23,4.17,1274,1300,1301,1276,1292,1500,1506,11445,839
287806,1,13.50,11.96,2.73,0.427,0.216,0.691,-3.90,4.36,0.00,0.00,3.90,-4.36,0.00,16.60,-15.44,3.10,-27.41,0.00,-4.02,-1.30,-2.27,1274,1300,1301,1276,1293,1500,1506,11445,839
287819,1,14.32,12.35,1.40,0.564,0.023,0.714,-4.84,6.99,0.00,0.00,4.84,-6.99,0.00,19.91,-24.69,5.59,-37.03,0.00,-4.46,-2.72,-17.31,1274,1300,1301,1276,1293,1500,1506,11458,839
287831,1,15.42,16.71,0.67,0.454,-0.083,0.663,-4.85,7.34,0.00,0.00,4.85,-7.34,0.00,20.01,-25.96,4.59,-42.67,0.00,-5.68,-4.24,39.09,1274,1300,1301,1276,1293,1500,1506,11441,839
287843,1,14.15,15.29,0.69,0.328,-0.193,0.659,-5.01,7.50,0.00,0.00,5.01,-7.50,0.00,20.59,-26.58,6.44,-41.88,0.00,-5.77,-2.99,34.40,1274,1300,1301,1276,1293,1500,1506,11433,839
287854,1,11.73,19.36,0.40,0.148,-0.245,0.809,-4.53,6.25,0.00,0.00,4.53,-6.25,0.00,18.96,-22.26,7.22,-41.62,0.00,-5.16,-3.61,44.47,1208,1365,1372,1224,1293,1500,1506,11433,846
287866,1,8.94,14.39,0.47,-0.029,-0.228,0.847,-3.87,4.28,0.00,0.00,3.87,-4.28,0.00,16.66,-15.44,7.72,-29.83,0.00,-4.06,-0.26,42.38,1208,1365,1372,1224,1293,1500,1506,11453,846
287879,1,6.71,12.63,0.67,-0.179,-0.227,0.898,-3.28,2.29,0.00,0.00,3.28,-2.29,0.00,14.62,-8.49,7.91,-21.13,0.00,-3.12,0.46,-11.01,1208,1365,1372,1224,1293,1500,1506,11449,846
287891,1,3.81,15.17,1.08,-0.216,-0.220,0.940,-3.10,2.11,0.00,0.00,3.10,-2.11,0.00,14.00,-7.88,10.19,-23.04,0.00,-1.43,-1.15,37.40,1208,1365,1372,1224,1293,1500,1506,11458,846
287902,1,1.61,23.65,1.40,-0.077,-0.141,0.871,-3.10,2.47,0.00,0.00,3.10,-2.47,0.00,14.03,-9.20,12.42,-32.85,0.00,-0.09,-4.76,44.69,1208,1365,1372,1224,1293,1500,1506,11433,846
287914,1,0.28,25.79,1.47,-0.141,0.072,1.057,-3.05,2.70,0.00,0.00,3.05,-2.70,0.00,13.88,-10.02,13.60,-35.81,0.00,0.91,-4.85,42.27,1208,1365,1372,1224,1293,1500,1506,11445,846
287926,1,-0.80,25.48,1.75,-0.033,0.139,0.997,-2.69,1.07,0.00,0.00,2.69,-1.07,0.00,12.68,-4.34,13.48,-29.81,0.00,0.75,-3.35,33.81,1208,1365,1372,1224,1293,1500,1506,11428,846
287939,1,4.43,19.40,1.85,0.186,0.218,0.794,-2.75,0.98,0.00,0.00,2.75,-0.98,0.00,12.90,-4.02,8.47,-23.42,0.00,-2.01,-0.25,30.63,1208,1365,1372,1224,1293,1500,1506,11449,846
287951,1,6.58,15.77,1.66,0.328,0.124,0.773,-3.13,1.41,0.00,0.00,3.13,-1.41,0.00,14.25,-5.52,7.67,-21.29,0.00,-3.31,0.95,39.91,1256,1332,1329,1253,1293,1500,1506,11441,834
287962,1,8.36,15.12,1.32,0.311,0.032,0.687,-3.20,1.70,0.00,0.00,3.20,-1.70,0.00,14.55,-6.55,6.19,-21.68,0.00,-4.26,0.83,39.95,1256,1332,1329,1253,1293,1500,1506,11462,834
287974,1,11.12,18.11,2.14,0.288,-0.039,0.737,-3.28,1.17,0.00,0.00,3.28,-1.17,0.00,14.84,-4.68,3.72,-22.78,0.00,-5.39,-0.29,24.26,1256,1332,1329,1253,1293,1500,1506,11441,834
287986,1,11.68,19.77,2.74,0.399,-0.144,0.667,-3.55,2.26,0.00,0.00,3.55,-2.26,0.00,15.80,-8.50,4.12,-28.27,0.00,-5.26,-0.96,18.61,1256,1332,1329,1253,1293,1500,1506,11424,834
287999,1,8.99,19.18,1.85,0.360,-0.213,0.775,-3.34,3.27,0.00,0.00,3.34,-3.27,0.00,15.12,-12.06,6.12,-31.24,0.00,-3.76,-0.39,26.12,1256,1332,1329,1253,1293,1500,1506,11424,834
288011,1,5.89,20.90,1.46,0.104,-0.189,0.880,-2.80,2.67,0.00,0.00,2.80,-2.67,0.00,13.25,-9.99,7.36,-30.89,0.00,-2.58,-1.22,48.78,1256,1332,1329,1253,1293,1500,1506,11441,834
288022,1,2.18,13.02,0.81,-0.007,-0.169,0.845,-2.01,1.05,0.00,0.00,2.01,-1.05,0.00,10.47,-4.34,8.29,-17.36,0.00,-0.93,3.15,57.80,1256,1332,1329,1253,1293,1500,1506,11433,834
288034,1,-0.71,2.16,1.11,-0.035,-0.195,0.902,-1.76,0.84,0.00,0.00,1.76,-0.84,0.00,9.60,-3.61,10.31,-5.77,0.00,0.14,5.81,39.36,1256,1332,1329,1253,1294,1500,1506,11437,834
288047,1,-3.10,-2.77,0.53,0.270,-0.145,0.637,-1.49,4.80,0.00,0.00,1.49,-4.80,0.00,8.66,-17.50,11.77,-14.73,0.00,1.17,4.63,50.56,1256,1332,1329,1253,1294,1500,1506,11437,834
288059,1,-6.80,-3.96,1.21,0.237,-0.152,0.750,-1.91,12.13,0.00,0.00,1.91,-12.13,0.00,10.18,-43.27,16.98,-39.31,0.00,2.73,0.82,55.27,1284,1302,1311,1277,1294,1500,1506,11433,870
288071,1,-7.71,5.55,1.14,0.080,-0.077,0.842,-1.27,14.84,0.00,0.00,1.27,-14.84,0.00,7.94,-52.88,15.65,-58.43,0.00,2.92,-4.82,52.94,1284,1302,1311,1277,1294,1500,1506,11437,870
288082,1,-7.16,12.66,2.65,-0.074,0.015,0.806,-0.45,12.09,0.00,0.00,0.45,-12.09,0.00,5.08,-43.40,12.24,-56.06,0.00,2.80,-6.23,26.37,1284,1302,1311,1277,1294,1500,1506,11441,870
288094,1,-3.53,11.63,4.22,0.121,0.036,0.717,-0.26,8.95,0.00,0.00,0.26,-8.95,0.00,4.41,-32.51,7.94,-44.14,0.00,1.61,-3.64,3.84,1284,1302,1311,1277,1294,1500,1506,11416,870
288107,1,2.22,10.74,4.91,0.452,0.136,0.555,-0.33,10.28,0.00,0.00,0.33,-10.28,0.00,4.68,-37.22,2.46,-47.96,0.00,-0.32,-3.09,2.97,1284,1302,1311,1277,1294,1500,1506,11428,870
288119,1,7.24,19.42,5.70,0.345,0.237,0.677,-0.57,10.26,0.00,0.00,0.57,-10.26,0.00,5.53,-37.23,-1.71,-56.65,0.00,-2.27,-6.54,-11.42,1284,1302,1311,1277,1294,1500,1506,11424,870
288131,1,13.00,25.69,5.91,0.026,0.303,0.850,-0.84,6.65,0.00,0.00,0.84,-6.65,0.00,6.48,-24.69,-6.51,-50.38,0.00,-4.73,-7.57,-1.34,1284,1302,1311,1277,1294,1500,1506,11445,870
288142,1,17.67,27.50,5.93,-0.136,0.270,1.009,-1.05,2.56,0.00,0.00,1.05,-2.56,0.00,7.24,-10.41,-10.43,-37.91,0.00,-6.59,-6.46,4.56,1284,1302,1311,1277,1294,1500,1506,11462,870
288155,1,18.85,24.30,5.09,-0.293,0.228,1.051,-1.62,-0.86,0.00,0.00,1.62,0.86,0.00,9.24,1.57,-9.61,-22.72,0.00,-6.77,-3.89,20.75,1280,1300,1307,1279,1292,1500,1508,11474,838
288166,1,14.48,14.74,2.50,-0.138,0.168,0.945,-2.18,-3.42,0.00,0.00,2.18,3.42,0.00,11.21,10.56,-3.27,-4.18,0.00,-5.00,1.20,59.66,1280,1300,1307,1279,1294,1500,1506,11478,838
288179,1,11.76,3.05,2.58,0.034,0.121,0.677,-2.51,-4.13,0.00,0.00,2.51,4.13,0.00,12.38,13.09,0.62,10.04,0.00,-4.51,5.00,77.47,1280,1300,1307,1279,1294,1500,1506,11449,838
288191,1,8.84,-2.74,2.10,0.334,0.131,0.553,-2.12,-2.62,0.00,0.00,2.12,2.62,0.00,11.06,7.86,2.22,10.60,0.00,-3.86,4.92,70.06,1280,1300,1307,1279,1294,1500,1506,11445,838
288202,1,5.53,-1.92,2.82,0.236,0.063,0.697,-1.97,-1.11,0.00,0.00,1.97,1.11,0.00,10.54,2.60,5.01,4.51,0.00,-2.72,2.50,47.84,1280,1300,1307,1279,1294,1500,1506,11449,838
288214,1,1.35,2.66,4.90,-0.311,0.258,1.023,-0.49,-4.23,0.00,0.00,0.49,4.23,0.00,5.37,13.54,4.02,10.87,0.00,-0.90,0.04,-12.47,1280,1300,1307,1279,1294,1500,1506,11445,838
288226,1,-1.52,-9.12,5.94,-0.166,0.137,0.871,-0.48,-6.36,0.00,0.00,0.48,6.36,0.00,5.35,21.02,6.87,30.14,0.00,0.46,5.35,-23.06,1280,1300,1307,1279,1294,1500,1506,11433,838
288239,1,-3.59,-11.68,7.25,-0.033,-0.032,0.779,-1.50,-5.76,0.00,0.00,1.50,5.76,0.00,8.94,18.98,12.52,30.67,0.00,1.52,5.25,-19.23,1280,1300,1307,1279,1294,1500,1506,11441,838
288251,1,-4.09,-1.70,7.30,-0.184,-0.163,0.826,-2.03,-5.92,0.00,0.00,2.03,5.92,0.00,10.80,19.61,14.89,21.31,0.00,2.04,0.85,-16.18,1291,1293,1295,1295,1294,1500,1506,11424,1168
288262,1,-3.19,6.44,7.33,-0.301,-0.209,0.838,-1.65,-8.14,0.00,0.00,1.65,8.14,0.00,9.50,27.44,12.69,21.00,0.00,1.99,-0.95,-6.68,1291,1293,1295,1295,1294,1500,1506,11428,1168
288274,1,-3.00,7.43,7.33,-0.255,-0.127,0.976,-1.07,-8.58,0.00,0.00,1.07,8.58,0.00,7.48,29.06,10.48,21.62,0.00,2.29,-1.39,0.83,1291,1293,1295,1295,1294,1500,1506,11449,1168
288286,1,-3.57,9.84,6.96,-0.284,0.116,0.993,-0.12,-7.59,0.00,0.00,0.12,7.59,0.00,4.15,25.69,7.72,15.86,0.00,2.81,-3.31,19.24,1291,1293,1295,1295,1294,1500,1506,11420,1168
288299,1,-4.80,6.76,7.61,-0.376,0.263,1.036,0.08,-6.95,0.00,0.00,-0.08,6.95,0.00,3.46,23.50,8.27,16.74,0.00,3.50,-2.75,28.55,1291,1293,1295,1295,1294,1500,1506,11403,1168
288311,1,-3.53,1.22,7.51,-0.283,0.444,0.991,-0.12,-5.78,0.00,0.00,0.12,5.78,0.00,4.17,19.45,7.70,18.23,0.00,2.85,-1.38,26.07,1291,1293,1295,1295,1294,1500,1506,11399,1168
288322,1,-1.67,-2.91,7.19,-0.048,0.512,0.793,-0.15,-2.78,0.00,0.00,0.15,2.78,0.00,4.28,9.01,5.95,11.91,0.00,1.99,-0.90,32.60,1291,1293,1295,1295,1294,1500,1506,11408,1168
288334,1,-1.14,-1.76,7.65,-0.141,0.594,0.775,-0.28,-0.80,0.00,0.00,0.28,0.80,0.00,4.76,2.07,5.90,3.83,0.00,1.77,-2.55,22.55,1291,1293,1295,1295,1294,1500,1506,11399,1168
288346,1,-3.55,-3.73,6.60,-0.205,0.668,0.833,0.60,-0.60,0.00,0.00,-0.60,0.60,0.00,1.72,1.40,5.28,5.13,0.00,2.62,-1.42,37.31,1291,1293,1295,1295,1295,1500,1506,11408,1168
288359,1,-6.57,-8.69,6.63,-0.113,0.612,0.844,1.20,-1.26,0.00,0.00,-1.20,1.26,0.00,-0.39,3.71,6.18,12.40,0.00,3.30,0.61,59.56,1204,1374,1388,1211,1295,1500,1506,11420,930
288371,1,-8.53,-14.62,7.40,0.013,0.497,0.775,0.85,-0.83,0.00,0.00,-0.85,0.83,0.00,0.86,2.21,9.39,16.84,0.00,3.49,1.78,15.20,1204,1374,1388,1211,1296,1500,1506,11416,930
288382,1,-9.92,-17.62,7.65,0.336,0.390,0.725,-0.04,2.05,0.00,0.00,0.04,-2.05,0.00,3.97,-7.86,13.89,9.76,0.00,3.52,1.39,11.52,1204,1374,1388,1211,1296,1500,1506,11416,930
288394,1,-9.97,-14.93,7.76,0.231,0.306,0.908,-1.61,4.31,0.00,0.00,1.61,-4.31,0.00,9.49,-15.83,19.46,-0.89,0.00,3.33,-1.27,14.77,1204,1374,1388,1211,1300,1500,1506,11428,930
288406,1,-3.20,-16.31,9.25,0.064,0.091,0.991,-2.31,3.75,0.00,0.00,2.31,-3.75,0.00,11.99,-13.89,15.20,2.42,0.00,0.79,-0.47,-5.24,1204,1374,1388,1211,1300,1500,1506,11437,930
288419,1,2.28,-17.25,10.85,-0.025,-0.028,0.961,-2.95,1.90,0.00,0.00,2.95,-1.90,0.00,14.27,-7.44,11.99,9.80,0.00,-0.32,0.05,-7.65,1204,1374,1388,1211,1300,1500,1506,11424,930
288431,1,6.19,-22.14,10.77,0.069,-0.223,0.783,-3.46,1.47,0.00,0.00,3.46,-1.47,0.00,16.08,-5.96,9.88,16.17,0.00,-0.79,2.33,-0.58,1204,1374,1388,1211,1300,1500,1506,11416,930
288442,1,6.84,-22.58,10.85,-0.010,-0.362,0.811,-3.55,0.86,0.00,0.00,3.55,-0.86,0.00,16.42,-3.83,9.57,18.75,0.00,-0.19,2.21,5.46,1204,1374,1388,1211,1300,1500,1506,11424,930
288455,1,4.90,-24.63,9.66,-0.125,-0.428,0.824,-3.12,0.33,0.00,0.00,3.12,-0.33,0.00,14.92,-1.98,10.02,22.65,0.00,1.22,2.94,56.93,1249,1351,1354,1251,1302,1500,1506,11424,815
288466,1,0.36,-22.43,8.10,-0.263,-0.498,0.941,-2.45,-2.28,0.00,0.00,2.45,2.28,0.00,12.60,7.16,12.24,29.59,0.00,3.05,2.45,72.15,1249,1351,1354,1251,1309,1500,1506,11399,815
288479,1,-1.23,-26.32,7.59,-0.214,-0.503,0.926,-2.19,-3.18,0.00,0.00,2.19,3.18,0.00,11.68,10.36,12.92,36.67,0.00,3.22,3.73,48.84,1249,1351,1354,1251,1309,1500,1506,11408,815
288491,1,-1.51,-24.80,7.71,-0.310,-0.483,1.061,-2.00,-3.29,0.00,0.00,2.00,3.29,0.00,11.06,10.75,12.57,35.55,0.00,3.09,2.36,44.06,1249,1351,1354,1251,1310,1500,1506,11403,815
288502,1,-0.39,-25.50,7.59,-0.366,-0.444,1.132,-1.89,-3.71,0.00,0.00,1.89,3.71,0.00,10.68,12.24,11.07,37.74,0.00,2.63,2.55,42.38,1249,1351,1354,1251,1310,1500,1506,11395,815
288514,1,-0.24,-27.29,8.49,-0.348,-0.454,1.175,-2.35,-3.39,0.00,0.00,2.35,3.39,0.00,12.30,11.15,12.54,38.44,0.00,2.84,2.95,14.64,1249,1351,1354,1251,1313,1500,1506,11387,815
288526,1,-1.99,-26.09,7.21,-0.300,-0.409,1.182,-2.15,-2.10,0.00,0.00,2.15,2.10,0.00,11.61,6.66,13.60,32.75,0.00,4.05,1.98,46.75,1249,1351,1354,1251,1313,1500,1506,11378,815
288539,1,-2.86,-24.79,7.73,-0.407,-0.389,1.051,-1.60,-2.15,0.00,0.00,1.60,2.15,0.00,9.71,6.81,12.57,31.60,0.00,4.63,1.83,38.67,1249,1351,1354,1251,1313,1500,1506,11374,815
288551,1,-1.80,-26.63,7.20,0.022,-0.292,0.884,-1.13,-2.61,0.00,0.00,1.13,2.61,0.00,8.08,8.46,9.89,35.09,0.00,4.43,3.28,61.51,1276,1346,1354,1277,1314,1500,1506,11362,815
288563,1,-0.54,-27.80,6.44,0.428,-0.163,0.781,-1.36,2.09,0.00,0.00,1.36,-2.09,0.00,8.88,-8.00,9.43,19.80,0.00,4.16,1.55,84.01,1276,1346,1354,1277,1314,1500,1506,11345,815
288574,1,0.77,-14.65,5.45,0.180,0.097,0.870,-0.96,5.89,0.00,0.00,0.96,-5.89,0.00,7.52,-21.34,6.75,-6.69,0.00,3.81,-5.49,139.35,1276,1346,1354,1277,1314,1500,1506,11358,815
288586,1,3.35,-16.82,6.78,-0.072,0.077,1.074,-0.21,4.29,0.00,0.00,0.21,-4.29,0.00,4.91,-15.79,1.55,1.03,0.00,2.98,-2.46,115.60,1276,1346,1354,1277,1320,1500,1506,11358,815
288599,1,6.86,-28.85,9.31,0.398,-0.041,0.757,-0.85,6.73,0.00,0.00,0.85,-6.73,0.00,7.14,-24.37,0.27,4.48,0.00,1.66,2.77,68.41,1276,1346,1354,1277,1320,1500,1506,11349,815
288611,1,9.37,-23.18,11.26,0.372,-0.021,0.745,-1.51,11.76,0.00,0.00,1.51,-11.76,0.00,9.48,-42.07,0.12,-18.89,0.00,0.49,-1.37,32.06,1276,1346,1354,1277,1321,1500,1506,11341,815
288622,1,11.01,-9.68,12.78,-0.145,0.039,1.043,-0.90,7.20,0.00,0.00,0.90,-7.20,0.00,7.33,-26.19,-3.67,-16.51,0.00,-0.80,-4.82,7.88,1276,1346,1354,1277,1321,1500,1506,11366,815
288634,1,11.74,-17.07,14.33,0.317,-0.029,0.790,-0.89,4.75,0.00,0.00,0.89,-4.75,0.00,7.34,-17.66,-4.41,-0.59,0.00,-1.65,0.45,-32.31,1276,1346,1354,1277,1321,1500,1506,11366,815
288646,1,13.31,-16.11,14.46,0.314,-0.040,0.845,-1.12,6.05,0.00,0.00,1.12,-6.05,0.00,8.11,-22.28,-5.20,-6.17,0.00,-2.96,-1.24,-24.94,1276,1346,1354,1277,1324,1500,1506,11370,815
288659,1,16.13,-9.56,14.53,-0.018,-0.042,0.888,-0.92,2.92,0.00,0.00,0.92,-2.92,0.00,7.44,-11.33,-8.68,-1.77,0.00,-4.48,-2.34,3.84,1275,1369,1363,1286,1324,1500,1506,11374,815
288671,1,17.00,-12.90,14.48,0.171,-0.105,0.766,-1.60,0.48,0.00,0.00,1.60,-0.48,0.00,9.83,-2.80,-7.16,10.10,0.00,-4.81,0.20,-5.64,1275,1369,1363,1286,1324,1500,1506,11374,815
288682,1,17.80,-8.19,12.98,0.304,0.024,0.870,-1.45,1.13,0.00,0.00,1.45,-1.13,0.00,9.30,-5.07,-8.50,3.12,0.00,-5.05,-2.49,31.05,1275,1369,1363,1286,1324,1500,1506,11378,815
288694,1,18.13,-2.51,12.82,-0.032,0.204,0.977,-0.54,-0.83,0.00,0.00,0.54,0.83,0.00,6.13,1.77,-12.01,4.28,0.00,-4.79,-3.62,45.85,1275,1369,1363,1286,1324,1500,1506,11387,815
288706,1,17.68,-6.93,14.66,0.245,0.234,0.876,-0.22,-1.68,0.00,0.00,0.22,1.68,0.00,5.00,4.79,-12.68,11.73,0.00,-3.99,-0.75,15.95,1275,1369,1363,1286,1324,1500,1506,11370,815
288719,1,13.74,-7.57,15.10,0.450,0.240,0.827,-0.76,3.26,0.00,0.00,0.76,-3.26,0.00,6.91,-12.52,-6.82,-4.95,0.00,-1.64,-2.00,29.45,1275,1369,1363,1286,1324,1500,1506,11354,815
288731,1,10.79,6.55,16.06,-0.167,0.243,1.091,-0.83,3.05,0.00,0.00,0.83,-3.05,0.00,7.16,-11.83,-3.63,-18.38,0.00,-0.41,-7.11,-24.28,1275,1369,1363,1286,1331,1500,1506,11358,815
288742,1,10.09,2.71,17.66,-0.151,0.073,0.956,-0.16,0.32,0.00,0.00,0.16,-0.32,0.00,4.83,-2.29,-5.26,-5.00,0.00,-0.10,-2.34,-60.44,1275,1369,1363,1286,1331,1500,1506,11358,815
288754,1,11.69,-2.00,18.27,0.361,-0.094,0.816,-0.92,1.97,0.00,0.00,0.92,-1.97,0.00,7.50,-8.05,-4.19,-6.05,0.00,-0.20,0.22,-68.22,1326,1336,1332,1324,1330,1500,1506,11358,815
288767,1,11.63,11.39,16.40,0.298,-0.184,0.889,-1.76,4.55,0.00,0.00,1.76,-4.55,0.00,10.47,-17.13,-1.16,-28.51,0.00,0.58,-5.27,-30.49,1326,1336,1332,1324,1330,1500,1506,11358,815
288779,1,14.68,26.83,13.67,-0.290,-0.105,1.103,-1.30,-0.09,0.00,0.00,1.30,0.09,0.00,8.85,-0.91,-5.83,-27.74,0.00,-0.59,-8.03,59.63,1326,1336,1332,1324,1330,1500,1506,11387,815
288791,1,21.04,16.75,13.01,-0.109,-0.187,1.044,-1.02,-3.02,0.00,0.00,1.02,3.02,0.00,7.89,9.39,-13.15,-7.36,0.00,-2.99,-1.51,29.86,1326,1336,1332,1324,1330,1500,1506,11383,815
288802,1,22.85,13.59,11.58,0.277,-0.180,0.813,-1.83,2.08,0.00,0.00,1.83,-2.08,0.00,10.73,-8.47,-12.13,-22.06,0.00,-2.84,-1.70,58.21,1326,1336,1332,1324,1330,1500,1506,11391,815
288814,1,22.30,26.06,10.38,0.014,-0.022,0.899,-1.80,3.49,0.00,0.00,1.80,-3.49,0.00,10.65,-13.43,-11.66,-39.49,0.00,-2.25,-6.11,77.33,1326,1336,1332,1324,1330,1500,1506,11374,815
288826,1,22.68,26.34,10.48,0.075,0.206,0.838,-0.59,2.48,0.00,0.00,0.59,-2.48,0.00,6.42,-9.91,-16.26,-36.25,0.00,-2.51,-3.73,68.62,1326,1336,1332,1324,1330,1500,1506,11374,815
288839,1,20.38,28.07,11.69,0.357,0.338,0.760,0.42,5.20,0.00,0.00,-0.42,-5.20,0.00,2.90,-19.47,-17.48,-47.54,0.00,-1.22,-4.91,49.90,1326,1336,1332,1324,1330,1500,1506,11374,815
288851,1,16.46,43.04,12.75,-0.260,0.531,1.076,0.28,4.90,0.00,0.00,-0.28,-4.90,0.00,3.39,-18.47,-13.07,-61.52,0.00,0.90,-10.77,18.81,1301,1359,1342,1316,1330,1500,1506,11362,820
288863,1,12.64,35.18,14.61,-0.385,0.395,1.093,0.28,1.04,0.00,0.00,-0.28,-1.04,0.00,3.40,-4.97,-9.24,-40.15,0.00,2.71,-4.16,-18.93,1301,1359,1342,1316,1330,1500,1506,11370,820
288874,1,11.99,22.46,15.02,0.137,0.215,0.822,0.26,2.17,0.00,0.00,-0.26,-2.17,0.00,3.48,-8.95,-8.51,-31.41,0.00,2.93,0.88,-16.59,1301,1359,1342,1316,1330,1500,1506,11354,820
288886,1,12.63,26.81,13.74,0.006,0.097,0.769,0.45,2.88,0.00,0.00,-0.45,-2.88,0.00,2.81,-11.45,-9.82,-38.25,0.00,2.35,-1.88,7.74,1301,1359,1342,1316,1330,1500,1506,11349,820
288899,1,11.55,28.46,12.34,-0.099,-0.067,1.023,0.10,0.01,0.00,0.00,-0.10,-0.01,0.00,4.03,-1.43,-7.52,-29.89,0.00,2.29,-2.18,36.99,1301,1359,1342,1316,1330,1500,1506,11349,820
288911,1,12.77,15.61,10.81,0.436,-0.095,0.809,-0.54,4.50,0.00,0.00,0.54,-4.50,0.00,6.27,-17.15,-6.50,-32.76,0.00,0.98,0.94,55.01,1301,1359,1342,1316,1330,1500,1506,11333,820
288922,1,13.37,28.94,8.83,-0.022,0.017,0.902,-0.34,7.58,0.00,0.00,0.34,-7.58,0.00,5.59,-28.02,-7.77,-56.96,0.00,-0.06,-6.59,87.33,1301,1359,1342,1316,1330,1500,1506,11320,820
288934,1,13.03,36.61,9.00,-0.706,0.041,1.220,0.03,1.26,0.00,0.00,-0.03,-1.26,0.00,4.27,-5.93,-8.76,-42.54,0.00,-0.47,-6.88,100.90,1301,1359,1342,1316,1330,1500,1506,11324,820
288946,1,10.11,19.03,9.91,-0.177,0.074,0.968,-0.31,-1.17,0.00,0.00,0.31,1.17,0.00,5.48,2.59,-4.63,-16.44,0.00,0.38,0.69,84.65,1301,1359,1342,1316,1330,1500,1506,11341,820
288959,1,6.65,20.86,10.75,-0.105,0.181,0.948,-0.20,1.73,0.00,0.00,0.20,-1.73,0.00,5.11,-7.58,-1.54,-28.44,0.00,1.34,-3.11,49.96,1330,1325,1339,1324,1330,1500,1506,11366,815
288971,1,1.39,16.88,12.90,-0.092,0.070,1.047,-0.29,0.10,0.00,0.00,0.29,-0.10,0.00,5.41,-1.88,4.02,-18.76,0.00,3.51,-0.47,30.12,1330,1325,1339,1324,1330,1500,1506,11366,815
288982,1,0.95,16.40,12.69,-0.086,0.237,1.001,-0.30,-1.59,0.00,0.00,0.30,1.59,0.00,5.46,4.07,4.52,-12.33,0.00,3.68,-0.85,39.42,1330,1325,1339,1324,1330,1500,1506,11358,815
288994,1,-0.89,19.13,12.14,-0.222,-0.035,1.079,0.25,-0.12,0.00,0.00,-0.25,0.12,0.00,3.54,-1.07,4.43,-20.20,0.00,4.51,-2.95,18.02,1330,1325,1339,1324,1330,1500,1506,11341,815
289006,1,-0.35,17.18,11.75,-0.307,-0.178,1.087,0.30,-1.13,0.00,0.00,-0.30,1.13,0.00,3.37,2.45,3.72,-14.73,0.00,4.10,-1.44,27.43,1330,1325,1339,1324,1330,1500,1506,11337,815
289019,1,-1.34,15.16,10.84,-0.175,-0.230,1.000,0.06,-1.34,0.00,0.00,-0.06,1.34,0.00,4.22,3.18,5.56,-11.98,0.00,4.12,-0.50,64.64,1330,1325,1339,1324,1330,1500,1506,11312,815
289031,1,-1.20,19.78,9.87,-0.420,-0.165,1.196,0.33,-2.56,0.00,0.00,-0.33,2.56,0.00,3.25,7.47,4.45,-12.31,0.00,3.42,-2.45,66.17,1330,1325,1339,1324,1330,1500,1506,11341,815
289042,1,0.15,12.97,9.99,-0.394,-0.129,1.126,0.38,-4.33,0.00,0.00,-0.38,4.33,0.00,3.07,13.72,2.92,0.75,0.00,2.26,0.87,64.22,1330,1325,1339,1324,1330,1500,1506,11341,815
289054,1,-0.65,6.43,10.13,-0.225,-0.116,1.092,-0.20,-3.13,0.00,0.00,0.20,3.13,0.00,5.12,9.52,5.77,3.09,0.00,2.17,2.13,61.67,1322,1335,1339,1322,1330,1500,1506,11324,815
289066,1,-3.66,6.72,9.65,-0.214,-0.025,1.063,-0.11,-1.97,0.00,0.00,0.11,1.97,0.00,4.80,5.47,8.46,-1.26,0.00,2.78,0.73,63.68,1322,1335,1339,1322,1331,1500,1506,11354,815
289079,1,-6.20,3.54,9.47,-0.117,0.064,0.956,0.44,-2.88,0.00,0.00,-0.44,2.88,0.00,2.88,8.70,9.09,5.15,0.00,3.13,1.84,94.98,1322,1335,1339,1322,1331,1500,1506,11341,815
289091,1,-7.79,1.53,9.40,-0.002,0.097,0.900,0.58,-2.70,0.00,0.00,-0.58,2.70,0.00,2.38,8.09,10.17,6.56,0.00,3.27,1.23,55.06,1322,1335,1339,1322,1331,1500,1506,11341,815
289102,1,-9.55,0.84,9.49,0.106,0.057,0.847,0.05,0.04,0.00,0.00,-0.05,-0.04,0.00,4.22,-1.49,13.77,-2.33,0.00,3.76,-0.37,49.65,1322,1335,1339,1322,1331,1500,1506,11324,815
289114,1,-10.48,6.38,9.72,-0.035,0.021,0.937,-0.40,2.62,0.00,0.00,0.40,-2.62,0.00,5.80,-10.56,16.29,-16.94,0.00,3.83,-3.95,42.71,1322,1335,1339,1322,1331,1500,1506,11337,815
289126,1,-10.26,10.96,10.58,-0.333,-0.014,0.996,-0.17,1.16,0.00,0.00,0.17,-1.16,0.00,5.02,-5.45,15.27,-16.41,0.00,3.43,-4.71,22.29,1322,1335,1339,1322,1331,1500,1506,11337,815
289139,1,-10.73,8.06,11.26,-0.232,0.014,1.050,0.17,-0.45,0.00,0.00,-0.17,0.45,0.00,3.84,0.18,14.57,-7.87,0.00,3.50,-2.82,12.86,1322,1335,1339,1322,1331,1500,1506,11333,815
289151,1,-13.01,9.94,10.55,-0.300,0.124,1.189,0.23,1.57,0.00,0.00,-0.23,-1.57,0.00,3.63,-6.91,16.63,-16.85,0.00,4.31,-4.94,26.85,1296,1359,1360,1307,1331,1500,1506,11324,815
289162,1,-15.02,7.37,10.38,-0.514,0.102,1.231,0.10,2.40,0.00,0.00,-0.10,-2.40,0.00,4.10,-9.86,19.12,-17.23,0.00,4.97,-3.41,27.41,1296,1359,1360,1307,1331,1500,1506,11320,815
289175,1,-16.66,-0.46,8.92,-0.138,0.023,1.036,-0.25,2.96,0.00,0.00,0.25,-2.96,0.00,5.31,-11.83,21.97,-11.37,0.00,5.73,0.65,58.12,1296,1359,1360,1307,1331,1500,1506,11324,815
289186,1,-19.02,5.10,6.62,-0.050,0.049,0.914,-0.23,3.62,0.00,0.00,0.23,-3.62,0.00,5.25,-14.18,24.27,-19.28,0.00,6.59,-1.58,94.14,1296,1359,1360,1307,1331,1500,1506,11316,815
289199,1,-18.06,10.75,5.53,-0.212,-0.011,1.022,-0.25,0.48,0.00,0.00,0.25,-0.48,0.00,5.33,-3.21,23.39,-13.96,0.00,5.88,-2.54,112.14,1296,1359,1360,1307,1331,1500,1506,11308,815
289211,1,-15.88,4.89,5.08,0.219,-0.158,0.870,-1.12,1.65,0.00,0.00,1.12,-1.65,0.00,8.41,-7.32,24.28,-12.21,0.00,5.00,-0.58,117.14,1296,1359,1360,1307,1330,1501,1506,11291,815
289222,1,-14.36,14.11,4.78,-0.002,-0.197,0.892,-1.68,4.05,0.00,0.00,1.68,-4.05,0.00,10.35,-15.74,24.71,-29.85,0.00,4.13,-5.33,118.22,1296,1359,1360,1307,1330,1501,1506,11308,815
289234,1,-10.37,20.94,5.64,-0.390,-0.164,1.005,-1.43,-1.29,0.00,0.00,1.43,1.29,0.00,9.49,2.93,19.86,-18.01,0.00,1.83,-4.97,95.20,1296,1359,1360,1307,1330,1500,1506,11291,815
289246,1,-8.65,14.44,6.30,-0.145,0.022,1.025,-1.10,-4.12,0.00,0.00,1.10,4.12,0.00,8.38,12.89,17.03,-1.56,0.00,0.94,-1.54,78.03,1296,1359,1360,1307,1330,1500,1506,11299,815
289259,1,-10.67,14.09,7.22,-0.400,0.283,1.138,-0.35,-5.28,0.00,0.00,0.35,5.28,0.00,5.76,16.98,16.42,2.89,0.00,1.62,-2.05,56.01,1296,1360,1366,1296,1330,1500,1506,11295,815
289271,1,-9.84,-1.60,8.84,0.054,0.273,0.810,-0.11,-4.76,0.00,0.00,0.11,4.76,0.00,4.93,15.19,14.78,16.80,0.00,1.04,4.49,28.16,1296,1360,1366,1296,1330,1500,1506,11279,815
289282,1,-8.10,4.41,8.13,0.197,0.380,0.735,0.12,-2.42,0.00,0.00,-0.12,2.42,0.00,4.12,7.04,12.22,2.63,0.00,-0.07,-0.14,45.29,1296,1360,1366,1296,1330,1500,1506,11279,815
289294,1,-7.41,8.30,7.02,0.031,0.469,0.899,0.55,-3.12,0.00,0.00,-0.55,3.12,0.00,2.62,9.55,10.04,1.25,0.00,-0.82,-2.20,61.07,1296,1360,1366,1296,1330,1500,1506,11291,815
289306,1,-6.70,2.99,6.20,0.232,0.516,0.755,0.34,-0.51,0.00,0.00,-0.34,0.51,0.00,3.34,0.44,10.05,-2.56,0.00,-1.16,-1.21,74.73,1296,1360,1366,1296,1330,1500,1506,11291,815
289319,1,-5.36,2.17,7.06,0.234,0.461,0.788,0.15,1.04,0.00,0.00,-0.15,-1.04,0.00,4.04,-5.01,9.40,-7.18,0.00,-1.66,-1.79,62.92,1296,1360,1366,1296,1330,1500,1506,11312,815
289331,1,-5.91,6.50,8.12,0.387,0.418,0.795,-0.72,5.26,0.00,0.00,0.72,-5.26,0.00,7.09,-19.78,13.00,-26.28,0.00,-1.30,-5.61,37.33,1296,1360,1366,1296,1330,1500,1506,11324,815
289342,1,-5.45,11.31,9.97,-0.190,0.261,0.998,-0.84,3.56,0.00,0.00,0.84,-3.56,0.00,7.52,-13.89,12.96,-25.21,0.00,-1.50,-6.41,-6.00,1296,1360,1366,1296,1330,1500,1506,11324,815
289355,1,-6.07,-8.67,11.25,0.534,0.063,0.680,-1.26,5.12,0.00,0.00,1.26,-5.12,0.00,8.99,-19.38,15.06,-10.71,0.00,-1.12,2.61,8.55,1229,1429,1434,1226,1330,1500,1506,11337,818
289366,1,-6.94,2.96,9.67,0.178,0.044,0.760,-0.49,8.45,0.00,0.00,0.49,-8.45,0.00,6.33,-31.11,13.27,-34.07,0.00,-1.00,-4.89,38.80,1229,1429,1434,1226,1330,1500,1506,11341,818
289379,1,-9.42,-7.40,9.22,0.281,-0.002,0.806,-0.06,8.88,0.00,0.00,0.06,-8.88,0.00,4.82,-32.71,14.24,-25.31,0.00,0.19,0.14,15.55,1229,1429,1434,1226,1330,1500,1506,11324,818
289391,1,-15.40,-4.88,7.30,0.597,0.041,0.562,0.24,14.99,0.00,0.00,-0.24,-14.99,0.00,3.78,-54.21,19.18,-49.33,0.00,2.90,-2.42,56.68,1229,1429,1434,1226,1330,1500,1506,11324,818
289402,1,-18.64,10.44,8.09,-0.065,0.039,0.948,0.30,11.60,0.00,0.00,-0.30,-11.60,0.00,3.55,-42.47,22.19,-52.91,0.00,4.06,-7.36,46.40,1229,1429,1434,1226,1330,1500,1506,11324,818
289414,1,-22.71,1.56,9.54,-0.130,0.041,0.945,0.47,8.60,0.00,0.00,-0.47,-8.60,0.00,2.97,-32.05,25.67,-33.62,0.00,5.54,-1.40,25.93,1229,1429,1434,1226,1330,1500,1506,11320,818
289426,1,-23.98,-5.06,11.55,-0.033,-0.121,0.773,0.50,5.89,0.00,0.00,-0.50,-5.89,0.00,2.84,-22.64,26.82,-17.58,0.00,5.92,3.15,-12.14,1229,1429,1434,1226,1330,1500,1506,11320,818
289439,1,-24.05,6.67,10.28,-0.102,-0.138,0.966,0.51,4.62,0.00,0.00,-0.51,-4.62,0.00,2.81,-18.25,26.87,-24.92,0.00,5.38,-2.40,51.12,1229,1429,1434,1226,1330,1500,1506,11329,818
289451,1,-24.84,4.62,9.47,-0.412,-0.157,1.095,0.53,4.24,0.00,0.00,-0.53,-4.24,0.00,2.73,-16.96,27.57,-21.58,0.00,5.09,-1.26,28.19,1280,1369,1375,1290,1329,1500,1506,11299,815
289462,1,-30.05,-0.26,6.88,-0.325,-0.047,0.996,0.94,3.70,0.00,0.00,-0.94,-3.70,0.00,1.30,-15.12,31.36,-14.86,0.00,7.06,1.05,78.36,1280,1369,1375,1290,1329,1500,1506,11308,815
289474,1,-34.78,9.12,5.02,-0.673,0.107,1.197,1.22,-0.82,0.00,0.00,-1.22,0.82,0.00,0.31,0.68,35.08,-8.44,0.00,8.47,-1.63,120.98,1280,1369,1375,1290,1329,1500,1506,11299,815
289486,1,-37.83,0.34,6.00,-0.388,0.105,1.174,0.70,-3.84,0.00,0.00,-0.70,3.84,0.00,2.13,11.26,39.96,10.92,0.00,9.26,2.30,102.73,1280,1369,1375,1290,1330,1500,1506,11291,815
289499,1,-40.44,-7.74,7.49,-0.038,-0.000,0.856,0.50,-1.84,0.00,0.00,-0.50,1.84,0.00,2.86,4.28,43.29,12.02,0.00,9.49,3.84,72.26,1280,1369,1375,1290,1330,1500,1506,11312,815
289511,1,-38.62,-1.34,8.35,-0.164,-0.023,0.890,0.40,-3.21,0.00,0.00,-0.40,3.21,0.00,3.18,9.12,41.80,10.47,0.00,7.67,0.92,62.87,1280,1369,1375,1290,1330,1500,1506,11316,815
289522,1,-36.42,-7.85,8.48,-0.184,0.031,0.969,0.28,-3.63,0.00,0.00,-0.28,3.63,0.00,3.62,10.61,40.04,18.47,0.00,5.71,2.56,64.42,1280,1369,1375,1290,1330,1500,1506,11324,815
289534,1,-34.31,-12.93,7.67,-0.013,0.142,0.831,0.51,-0.91,0.00,0.00,-0.51,0.91,0.00,2.80,1.12,37.12,14.04,0.00,3.86,2.55,72.21,1280,1369,1375,1290,1330,1500,1506,11324,815
289546,1,-34.39,-14.70,7.22,0.021,0.240,0.846,0.86,-1.02,0.00,0.00,-0.86,1.02,0.00,1.59,1.51,35.98,16.21,0.00,2.90,2.33,77.55,1280,1369,1375,1290,1330,1500,1506,11320,815
289559,1,-36.34,-20.45,7.19,0.143,0.218,0.865,0.66,0.48,0.00,0.00,-0.66,-0.48,0.00,2.28,-3.75,38.62,16.70,0.00,2.85,3.11,76.51,1255,1394,1409,1260,1330,1500,1506,11316,815
289571,1,-37.81,-22.22,7.49,0.378,0.004,0.744,-0.26,3.24,0.00,0.00,0.26,-3.24,0.00,5.52,-13.41,43.33,8.81,0.00,2.79,2.66,62.96,1255,1394,1409,1260,1334,1500,1506,11316,815
289583,1,-37.69,-21.00,7.99,0.375,-0.236,0.670,-1.29,4.50,0.00,0.00,1.29,-4.50,0.00,9.12,-17.87,46.81,3.14,0.00,1.95,1.58,50.23,1255,1394,1409,1260,1334,1500,1506,11279,815
289595,1,-37.25,-20.58,8.29,0.401,-0.453,0.655,-2.62,4.62,0.00,0.00,2.62,-4.62,0.00,13.79,-18.31,51.03,2.27,0.00,0.91,1.10,70.46,1255,1394,1409,1260,1334,1500,1506,11287,815
289606,1,-39.78,-19.29,8.14,0.259,-0.469,0.708,-3.06,5.02,0.00,0.00,3.06,-5.02,0.00,15.33,-19.76,55.11,-0.47,0.00,1.15,0.33,71.61,1255,1394,1409,1260,1334,1500,1506,11287,815
289619,1,-40.91,-19.69,7.64,0.125,-0.426,0.746,-2.84,3.25,0.00,0.00,2.84,-3.25,0.00,14.58,-13.59,55.49,6.10,0.00,0.79,1.78,47.99,1255,1394,1409,1260,1334,1500,1506,11287,815
289631,1,-44.42,-22.24,7.86,0.218,-0.365,0.780,-2.56,2.64,0.00,0.00,2.56,-2.64,0.00,13.60,-11.50,58.02,10.75,0.00,1.77,2.86,48.75,1255,1394,1409,1260,1334,1500,1506,11287,815
289642,1,-51.06,-24.44,8.05,0.134,-0.352,0.866,-1.90,3.63,0.00,0.00,1.90,-3.63,0.00,11.29,-14.98,62.35,9.46,0.00,4.12,3.14,46.96,1255,1394,1409,1260,1334,1500,1506,11295,815
289654,1,-56.01,-25.96,7.69,0.111,-0.420,0.803,-1.89,2.60,0.00,0.00,1.89,-2.60,0.00,11.27,-11.44,67.28,14.52,0.00,5.72,4.74,50.56,1264,1382,1390,1280,1329,1500,1506,11295,815
289666,1,-57.64,-23.06,7.37,-0.009,-0.537,0.932,-2.23,0.12,0.00,0.00,2.23,-0.12,0.00,12.47,-2.74,70.11,20.32,0.00,5.68,3.34,59.61,1264,1382,1390,1280,1329,1500,1506,11308,815
289679,1,-59.34,-23.46,6.31,-0.046,-0.547,0.927,-2.12,1.05,0.00,0.00,2.12,-1.05,0.00,12.10,-6.02,71.45,17.44,0.00,5.62,1.76,88.12,1264,1382,1390,1280,1329,1500,1506,11304,815
289691,1,-59.85,-20.11,6.02,-0.306,-0.375,0.992,-1.19,-1.62,0.00,0.00,1.19,1.62,0.00,8.83,3.35,68.68,23.46,0.00,4.94,0.40,72.26,1264,1382,1390,1280,1349,1500,1506,11299,815
289702,1,-63.29,-24.85,5.60,-0.144,-0.123,0.994,-0.55,-3.56,0.00,0.00,0.55,3.56,0.00,6.59,10.15,69.89,35.00,0.00,5.70,1.65,78.81,1264,1382,1390,1280,1349,1500,1506,11312,815
289714,1,-68.92,-25.36,5.53,-0.212,0.131,1.075,-0.21,-3.33,0.00,0.00,0.21,3.33,0.00,5.40,9.36,74.32,34.72,0.00,7.17,0.25,82.30,1264,1382,1390,1280,1329,1500,1506,11299,815
289726,1,-71.71,-32.05,5.90,-0.099,0.263,0.949,0.08,-4.73,0.00,0.00,-0.08,4.73,0.00,4.40,14.31,76.12,46.35,0.00,7.43,3.16,70.33,1264,1382,1390,1280,1329,1500,1506,11291,815
289739,1,-71.25,-34.56,5.92,0.093,0.290,0.799,0.29,-4.94,0.00,0.00,-0.29,4.94,0.00,3.66,15.12,74.91,49.67,0.00,6.22,3.59,67.49,1264,1382,1390,1280,1329,1500,1506,11274,815
289751,1,-68.82,-31.68,6.02,0.046,0.278,0.907,-0.05,-5.03,0.00,0.00,0.05,5.03,0.00,4.87,15.48,73.69,47.16,0.00,4.15,1.01,66.01,1266,1383,1395,1270,1329,1500,1506,11291,815
289762,1,-65.32,-31.20,6.97,-0.053,0.310,0.898,-0.64,-4.10,0.00,0.00,0.64,4.10,0.00,6.94,12.28,72.26,43.47,0.00,1.77,-0.14,47.28,1266,1383,1395,1270,1329,1500,1506,11274,815
289774,1,-73.02,-33.48,7.94,-0.065,0.596,0.854,-0.36,-4.01,0.00,0.00,0.36,4.01,0.00,5.99,11.99,79.01,45.47,0.00,4.52,0.45,25.83,1266,1383,1395,1270,1333,1500,1506,11274,815
289787,1,-73.42,-28.70,8.36,-0.393,0.718,1.052,-0.81,-5.46,0.00,0.00,0.81,5.46,0.00,7.56,17.11,80.97,45.81,0.00,4.03,-1.72,16.32,1266,1383,1395,1270,1349,1500,1506,11274,815
289799,1,-74.39,-42.86,8.96,0.054,0.541,0.848,-1.42,-4.95,0.00,0.00,1.42,4.95,0.00,9.72,15.40,84.11,58.26,0.00,4.27,4.07,-7.92,1266,1383,1395,1270,1349,1500,1506,11291,815
289811,1,-74.52,-37.85,7.81,0.191,0.400,0.754,-1.36,-2.79,0.00,0.00,1.36,2.79,0.00,9.54,7.87,84.07,45.72,0.00,3.95,0.30,25.73,1266,1383,1395,1270,1333,1500,1506,11274,815
289822,1,-74.00,-33.00,7.21,-0.125,0.242,0.979,-1.57,-4.33,0.00,0.00,1.57,4.33,0.00,10.30,13.30,84.30,46.30,0.00,3.22,-1.88,31.84,1266,1383,1395,1270,1333,1500,1506,11274,815
289834,1,-75.09,-41.65,6.73,0.020,0.164,0.910,-1.97,-3.42,0.00,0.00,1.97,3.42,0.00,11.73,10.16,86.82,51.81,0.00,3.35,1.05,44.46,1266,1383,1395,1270,1333,1500,1506,11283,815
289846,1,-75.38,-46.21,6.56,0.195,0.104,0.788,-2.40,-0.96,0.00,0.00,2.40,0.96,0.00,13.24,1.57,88.62,47.77,0.00,3.04,1.65,39.99,1266,1383,1395,1270,1333,1500,1506,11291,815
289859,1,-77.63,-43.94,6.10,0.064,0.156,0.928,-2.21,0.70,0.00,0.00,2.21,-0.70,0.00,12.63,-4.24,90.26,39.70,0.00,3.51,-0.69,39.86,1246,1406,1429,1249,1333,1500,1506,11274,815
289871,1,-80.68,-47.07,6.18,-0.149,0.162,1.066,-1.66,-0.69,0.00,0.00,1.66,0.69,0.00,10.71,0.61,91.38,47.68,0.00,4.46,1.25,46.77,1246,1406,1429,1249,1333,1500,1506,11262,815
289882,1,-85.15,-61.18,6.17,0.300,0.004,0.859,-2.36,1.62,0.00,0.00,2.36,-1.62,0.00,13.16,-7.48,98.31,53.69,0.00,6.38,6.60,47.74,1246,1406,1429,1249,1333,1500,1506,11258,815
289894,1,-87.87,-52.10,5.81,0.034,-0.170,0.871,-2.94,2.45,0.00,0.00,2.94,-2.45,0.00,15.22,-10.43,103.09,41.67,0.00,7.11,1.96,94.91,1246,1406,1429,1249,1331,1500,1506,11266,815
289906,1,-86.89,-53.76,5.91,-0.066,-0.368,1.010,-3.40,-0.47,0.00,0.00,3.40,0.47,0.00,16.85,-0.21,103.74,53.55,0.00,6.34,3.84,96.39,1246,1406,1429,1249,1332,1500,1507,11245,815
289919,1,-86.38,-59.04,6.20,-0.046,-0.352,0.915,-3.40,-0.11,0.00,0.00,3.40,0.11,0.00,16.90,-1.48,103.28,57.56,0.00,5.95,5.47,72.79,1246,1406,1429,1249,1332,1500,1507,11229,815
289931,1,-87.99,-60.62,7.03,-0.095,-0.375,0.987,-3.11,-1.12,0.00,0.00,3.11,1.12,0.00,15.91,2.09,103.90,62.71,0.00,6.60,6.22,87.56,1246,1406,1429,1249,1332,1500,1506,11212,815
289942,1,-93.60,-62.43,7.73,-0.236,-0.362,1.148,-2.87,-0.72,0.00,0.00,2.87,0.72,0.00,15.07,0.66,108.66,63.09,0.00,9.30,6.01,86.38,1246,1406,1429,1249,1332,1500,1506,11216,815
289954,1,-98.17,-64.38,7.55,-0.178,-0.384,1.042,-3.29,-0.05,0.00,0.00,3.29,0.05,0.00,16.57,-1.69,114.74,62.69,0.00,11.70,6.11,95.00,1266,1390,1398,1272,1332,1500,1506,11220,832
289966,1,-98.25,-59.43,8.10,-0.327,-0.417,1.183,-3.74,-1.98,0.00,0.00,3.74,1.98,0.00,18.20,5.08,116.45,64.51,0.00,11.84,4.11,99.29,1266,1390,1398,1272,1332,1500,1506,11237,832
289979,1,-97.37,-59.21,7.73,-0.219,-0.248,1.139,-3.81,-1.34,0.00,0.00,3.81,1.34,0.00,18.47,2.85,115.84,62.07,0.00,11.72,2.83,124.06,1266,1390,1398,1272,1332,1500,1506,11237,832
289991,1,-94.46,-57.98,9.05,-0.382,0.049,1.152,-3.07,-2.68,0.00,0.00,3.07,2.68,0.00,15.91,7.54,110.37,65.53,0.00,10.51,2.63,127.63,1266,1390,1398,1272,1332,1500,1506,11254,832
290002,1,-94.11,-66.85,9.95,-0.254,0.233,1.121,-2.71,-2.65,0.00,0.00,2.71,2.65,0.00,14.69,7.47,108.80,74.32,0.00,10.54,5.71,116.17,1266,1390,1398,1272,1332,1500,1506,11245,832
290014,1,-92.71,-65.67,10.00,-0.154,0.208,1.068,-2.96,-1.85,0.00,0.00,2.96,1.85,0.00,15.63,4.67,108.33,70.34,0.00,9.95,3.73,119.67,1266,1390,1398,1272,1332,1500,1506,11245,832
290026,1,-89.33,-54.02,10.83,-0.498,0.027,1.207,-3.48,-5.71,0.00,0.00,3.48,5.71,0.00,17.46,18.24,106.79,72.26,0.00,8.32,-0.56,103.84,1266,1390,1398,1272,1325,1500,1506,11254,832
290039,1,-86.31,-60.85,11.75,-0.169,-0.030,1.116,-4.27,-7.29,0.00,0.00,4.27,7.29,0.00,20.29,23.83,106.60,84.68,0.00,6.83,2.59,131.88,1266,1390,1398,1272,1325,1500,1506,11245,832
290051,1,-84.93,-60.38,13.94,-0.158,0.067,1.054,-4.48,-7.65,0.00,0.00,4.48,7.65,0.00,21.05,25.16,105.98,85.54,0.00,5.90,2.19,142.51,1168,1434,1449,1173,1305,1500,1506,11241,820
290062,1,-88.82,-70.20,15.63,-0.134,0.173,1.003,-3.89,-8.25,0.00,0.00,3.89,8.25,0.00,19.02,27.34,107.84,97.53,0.00,7.64,6.81,124.03,1168,1434,1449,1173,1305,1500,1506,11220,820
290074,1,-90.89,-78.16,17.52,0.174,0.043,0.720,-4.04,-5.26,0.00,0.00,4.04,5.26,0.00,19.59,16.95,110.49,95.11,0.00,8.48,8.39,108.06,1168,1434,1449,1173,1305,1500,1506,11220,820
290086,1,-90.12,-77.65,18.49,-0.255,-0.047,0.942,-4.24,-6.05,0.00,0.00,4.24,6.05,0.00,20.34,19.75,110.46,97.41,0.00,8.22,6.68,112.75,1168,1434,1449,1173,1304,1500,1506,11220,820
290099,1,-91.31,-71.33,20.26,-0.490,0.112,1.114,-4.16,-7.40,0.00,0.00,4.16,7.40,0.00,20.11,24.54,111.41,95.88,0.00,9.11,3.22,118.74,1168,1434,1449,1173,1304,1500,1506,11229,820
290111,1,-90.09,-76.37,22.02,-0.248,0.499,1.008,-3.49,-7.69,0.00,0.00,3.49,7.69,0.00,17.81,25.63,107.89,102.00,0.00,8.98,5.90,128.04,1168,1434,1449,1173,1304,1500,1506,11229,820
290122,1,-80.45,-69.64,24.07,0.035,0.415,1.043,-3.62,-4.79,0.00,0.00,3.62,4.79,0.00,18.31,15.53,98.76,85.17,0.00,4.87,1.52,119.52,1168,1434,1449,1173,1304,1500,1506,11237,820
290134,1,-68.42,-60.70,25.92,-0.081,0.174,1.082,-5.25,-4.45,0.00,0.00,5.25,4.45,0.00,24.09,14.38,92.51,75.08,0.00,-0.26,-2.83,112.66,1168,1434,1449,1173,1304,1500,1506,11241,820
290146,1,-63.83,-71.71,27.57,0.260,0.165,0.852,-5.23,-4.19,0.00,0.00,5.23,4.19,0.00,24.06,13.50,87.89,85.22,0.00,-2.02,2.57,104.13,1168,1434,1449,1173,1304,1500,1506,11262,820
290159,1,-68.03,-78.63,28.67,0.350,0.009,0.614,-5.34,-1.66,0.00,0.00,5.34,1.66,0.00,24.50,4.68,92.53,83.32,0.00,0.34,5.76,125.19,1178,1421,1433,1183,1304,1500,1506,11258,826
290171,1,-73.32,-74.38,28.72,-0.090,-0.529,0.783,-5.78,-4.14,0.00,0.00,5.78,4.14,0.00,26.08,13.42,99.39,87.80,0.00,3.69,5.14,144.56,1178,1421,1433,1183,1304,1500,1506,11249,826
290183,1,-78.28,-76.80,31.28,-0.064,-0.653,0.933,-5.94,-3.37,0.00,0.00,5.94,3.37,0.00,26.68,10.76,104.96,87.56,0.00,7.27,5.87,118.76,1178,1421,1433,1183,1304,1500,1506,11245,826
290195,1,-80.24,-61.19,31.22,-0.340,-0.039,1.008,-3.57,-2.08,0.00,0.00,3.57,2.08,0.00,18.41,6.24,98.65,67.43,0.00,9.01,-1.64,164.86,1178,1421,1433,1183,1299,1500,1506,11249,826
290206,1,-73.58,-71.12,33.89,0.018,0.372,0.715,-2.97,-3.22,0.00,0.00,2.97,3.22,0.00,16.38,10.26,89.96,81.38,0.00,6.66,3.88,134.12,1178,1421,1433,1183,1293,1500,1506,11266,826
290219,1,-61.72,-71.57,35.97,0.323,0.098,0.782,-3.60,-2.12,0.00,0.00,3.60,2.12,0.00,18.61,6.46,80.33,78.02,0.00,1.94,3.35,126.67,1178,1421,1433,1183,1293,1500,1506,11241,826
290231,1,-60.08,-67.39,36.94,-0.137,-0.205,0.947,-5.77,-2.41,0.00,0.00,5.77,2.41,0.00,26.27,7.48,86.35,74.88,0.00,2.27,1.51,137.76,1178,1421,1433,1183,1293,1500,1506,11258,826
290242,1,-56.56,-74.23,38.03,-0.020,0.067,0.928,-4.23,-4.22,0.00,0.00,4.23,4.22,0.00,20.89,13.87,77.46,88.10,0.00,1.48,6.00,141.47,1178,1421,1433,1183,1293,1500,1506,11254,826
290254,1,-54.30,-85.27,40.88,0.042,-0.080,0.741,-5.55,-0.74,0.00,0.00,5.55,0.74,0.00,25.57,1.69,79.87,86.96,0.00,1.78,9.05,118.07,1170,1372,1391,1168,1274,1500,1506,11241,822
290266,1,-56.48,-68.83,43.11,0.129,-0.361,0.763,-6.11,-0.89,0.00,0.00,6.11,0.89,0.00,27.60,2.23,84.08,71.06,0.00,4.09,0.36,101.92,1170,1372,1391,1168,1268,1500,1506,11249,822
290279,1,-56.30,-78.84,45.24,0.082,-0.285,0.610,-6.82,1.01,0.00,0.00,6.82,-1.01,0.00,30.12,-4.44,86.43,74.39,0.00,5.24,4.33,78.88,1170,1372,1391,1168,1268,1500,1506,11287,822
290291,1,-50.64,-67.75,44.15,-0.277,0.160,1.058,-5.57,-2.38,0.00,0.00,5.57,2.38,0.00,25.80,7.44,76.44,75.19,0.00,4.04,0.85,111.80,1170,1372,1391,1168,1267,1500,1506,11324,822
290302,1,-44.61,-80.32,46.28,0.059,0.030,0.844,-6.75,-1.09,0.00,0.00,6.75,1.09,0.00,30.02,2.95,74.62,83.27,0.00,3.03,7.54,90.41,1170,1372,1391,1168,1267,1500,1506,11341,822
290315,1,-36.10,-64.33,46.09,0.441,-0.074,0.530,-7.72,0.90,0.00,0.00,7.72,-0.90,0.00,33.49,-4.02,69.59,60.32,0.00,0.29,-0.57,90.13,1170,1372,1391,1168,1249,1500,1506,11337,822
290326,1,-33.44,-63.29,50.29,-0.054,-0.469,0.821,-9.18,1.68,0.00,0.00,9.18,-1.68,0.00,38.65,-6.76,72.09,56.53,0.00,0.25,-1.56,19.65,1170,1372,1391,1168,1247,1500,1506,11345,822
290339,1,-41.61,-63.45,46.90,-0.105,-0.199,0.661,-7.23,-0.62,0.00,0.00,7.23,0.62,0.00,31.89,1.27,73.50,64.72,0.00,5.88,2.38,97.67,1170,1372,1391,1168,1247,1500,1506,11354,822
290351,1,-31.74,-61.41,47.07,-0.413,0.414,0.898,-5.40,-2.58,0.00,0.00,5.40,2.58,0.00,25.55,8.17,57.29,69.58,0.00,3.10,3.59,98.88,1145,1320,1327,1147,1234,1500,1506,11383,822
290362,1,-21.19,-54.11,47.50,-0.249,0.132,0.861,-6.43,-4.51,0.00,0.00,6.43,4.51,0.00,29.24,14.94,50.43,69.06,0.00,0.06,0.67,91.17,1145,1320,1327,1147,1234,1500,1506,11399,822
290374,1,-16.14,-50.26,48.14,0.096,-0.177,0.588,-7.49,-7.72,0.00,0.00,7.49,7.72,0.00,33.02,26.26,49.16,76.52,0.00,-0.98,-0.22,76.28,1145,1320,1327,1147,1232,1500,1506,11395,822
290386,1,-17.27,-58.78,49.45,-0.011,-0.455,0.465,-9.02,-10.32,0.00,0.00,9.02,10.32,0.00,38.44,35.43,55.71,94.21,0.00,1.29,5.19,55.87,1145,1320,1327,1147,1230,1500,1506,11416,822
290399,1,-22.46,-66.44,49.46,-0.263,-0.351,0.644,-8.48,-10.71,0.00,0.00,8.48,10.71,0.00,36.64,36.89,59.10,103.33,0.00,5.84,9.16,61.12,1145,1320,1327,1147,1230,1500,1506,11428,822
290411,1,-9.44,-41.92,49.81,-0.509,-0.104,0.860,-7.94,-13.01,0.00,0.00,7.94,13.01,0.00,34.83,45.09,44.27,87.01,0.00,1.61,-1.46,68.54,1145,1320,1327,1147,1224,1500,1506,11420,822
290422,1,7.42,-51.29,49.57,0.030,-0.038,0.584,-9.39,-9.97,0.00,0.00,9.39,9.97,0.00,39.97,34.56,32.55,85.84,0.00,-4.44,2.83,73.70,1145,1320,1327,1147,1224,1500,1506,11445,822
290434,1,4.63,-48.97,47.34,-0.129,-0.138,0.457,-9.76,-12.40,0.00,0.00,9.76,12.40,0.00,41.35,43.16,36.73,92.13,0.00,-1.48,2.57,119.44,1145,1320,1327,1147,1224,1500,1506,11445,822
290446,1,6.24,-49.71,48.36,0.007,-0.098,0.459,-8.92,-13.06,0.00,0.00,8.92,13.06,0.00,38.52,45.62,32.28,95.33,0.00,-0.49,4.79,102.77,1145,1320,1327,1147,1225,1500,1506,11449,822
290459,1,7.28,-39.97,48.47,-0.357,-0.079,0.770,-7.95,-13.85,0.00,0.00,7.95,13.85,0.00,35.19,48.48,27.91,88.44,0.00,0.98,0.53,73.48,1153,1294,1308,1143,1225,1500,1506,11433,818
290471,1,14.30,-37.75,48.97,-0.275,0.067,0.817,-7.89,-14.27,0.00,0.00,7.89,14.27,0.00,35.07,50.10,20.78,87.85,0.00,-0.67,0.06,63.83,1153,1294,1308,1143,1225,1500,1506,11428,818
290482,1,16.96,-49.93,59.24,-0.168,-0.436,0.652,-15.70,-10.05,0.00,0.00,15.70,10.05,0.00,62.55,35.40,45.59,85.34,0.00,1.88,3.30,-115.83,1153,1294,1308,1143,1225,1500,1506,11428,818
290494,1,47.15,-35.36,80.20,-0.809,0.061,0.554,-20.67,-14.77,0.00,0.00,20.67,14.77,0.00,80.12,52.07,32.97,87.43,0.00,-7.32,-0.52,-350.00,1153,1294,1308,1143,1227,1500,1506,11428,818
290507,1,58.81,-71.79,134.54,0.751,-4.192,0.498,-34.52,-8.21,0.00,0.00,34.52,8.21,0.00,128.90,29.20,70.10,100.99,0.00,-5.46,14.82,-350.00,1153,1294,1308,1143,1227,1500,1506,11358,818
290519,5,128.66,50.49,358.72,0.446,-3.765,0.916,-45.60,-2.81,0.00,0.00,45.60,2.81,0.00,375.00,10.36,246.34,-40.13,0.00,-10.81,-38.09,-350.00,1153,1294,1308,1143,1227,1500,1506,11399,818
290531,5,249.74,126.25,456.74,-0.682,-3.783,2.232,-52.37,2.01,0.00,0.00,52.37,-2.01,0.00,375.00,-6.56,125.26,-132.80,0.00,-41.57,-59.06,-350.00,1153,1294,1308,1143,1237,1500,1506,11391,818
290542,5,370.74,13.96,347.84,-0.673,-6.926,2.859,-52.51,1.88,0.00,0.00,52.51,-1.88,0.00,375.00,-6.10,4.26,-20.06,0.00,-67.57,4.29,-350.00,1153,1294,1308,1143,1237,1500,1506,11274,818
290554,69,487.43,-189.20,170.11,0.436,-2.620,1.608,-48.05,-0.17,0.00,0.00,48.05,0.17,0.00,375.00,1.07,-112.43,190.27,0.00,-74.91,78.57,350.00,1136,1464,1464,1136,1247,1500,1506,11283,830
