time_ms,flags,gyro_x,gyro_y,gyro_z,accel_x,accel_y,accel_z,roll,pitch,angle_sp_roll,angle_sp_pitch,angle_err_roll,angle_err_pitch,angle_i_roll,rate_sp_roll,rate_sp_pitch,rate_err_roll,rate_err_pitch,rate_i_roll,pid_roll,pid_pitch,pid_yaw,m1,m2,m3,m4,rc_thr,rc_roll,rc_pitch,battery_mv,loop_us
78379,9,0.09,-0.00,0.06,0.011,-0.053,0.887,-1.88,0.50,0.00,0.00,1.88,-0.50,0.00,6.59,-1.75,6.49,-1.75,0.00,0.25,-0.07,-0.58,1000,1000,1000,1000,1038,1500,1507,12111,814
78391,9,0.07,-0.03,0.04,0.012,-0.054,0.888,-1.90,0.50,0.00,0.00,1.90,-0.50,0.00,6.65,-1.76,6.58,-1.73,0.00,0.27,-0.06,-0.12,1000,1000,1000,1000,1038,1500,1507,12111,814
78402,9,0.11,-0.03,0.02,0.012,-0.053,0.891,-1.92,0.50,0.00,0.00,1.92,-0.50,0.00,6.71,-1.75,6.60,-1.72,0.00,0.25,-0.06,0.09,1000,1000,1000,1000,1038,1500,1507,12111,814
78414,9,0.09,-0.03,0.05,0.011,-0.051,0.889,-1.89,0.49,0.00,0.00,1.89,-0.49,0.00,6.62,-1.71,6.53,-1.68,0.00,0.26,-0.06,-0.37,1000,1000,1000,1000,1038,1500,1507,12111,814
78426,9,0.07,0.01,0.09,0.011,-0.052,0.890,-1.88,0.48,0.00,0.00,1.88,-0.48,0.00,6.59,-1.69,6.53,-1.70,0.00,0.27,-0.08,-0.87,1000,1000,1000,1000,1038,1500,1507,12111,814
78439,9,0.06,-0.04,0.05,0.012,-0.053,0.890,-1.89,0.48,0.00,0.00,1.89,-0.48,0.00,6.62,-1.69,6.56,-1.65,0.00,0.27,-0.06,0.01,1000,1000,1000,1000,1038,1500,1507,12111,814
78451,9,0.09,-0.03,0.01,0.011,-0.053,0.889,-1.90,0.47,0.00,0.00,1.90,-0.47,0.00,6.63,-1.66,6.54,-1.63,0.00,0.25,-0.06,0.57,1100,1100,1100,1100,1038,1500,1507,12111,814
78462,9,0.07,-0.03,0.03,0.012,-0.055,0.889,-1.92,0.48,0.00,0.00,1.92,-0.48,0.00,6.71,-1.69,6.65,-1.66,0.00,0.27,-0.07,-0.08,1100,1100,1100,1100,1038,1500,1507,12111,814
78474,9,0.09,-0.07,0.11,0.014,-0.053,0.889,-1.91,0.51,0.00,0.00,1.91,-0.51,0.00,6.70,-1.80,6.60,-1.73,0.00,0.25,-0.05,-1.55,1100,1100,1100,1100,1038,1500,1507,12103,814
78486,9,0.07,-0.03,0.15,0.013,-0.053,0.890,-1.91,0.53,0.00,0.00,1.91,-0.53,0.00,6.70,-1.86,6.63,-1.83,0.00,0.27,-0.07,-1.24,1100,1100,1100,1100,1038,1500,1507,12099,814
78499,9,0.07,-0.01,-0.05,0.012,-0.052,0.891,-1.91,0.53,0.00,0.00,1.91,-0.53,0.00,6.69,-1.86,6.61,-1.84,0.00,0.26,-0.08,2.38,1100,1100,1100,1100,1038,1500,1507,12099,814
78511,9,0.11,0.09,-0.10,0.011,-0.052,0.890,-1.90,0.52,0.00,0.00,1.90,-0.52,0.00,6.63,-1.81,6.52,-1.90,0.00,0.24,-0.11,1.89,1100,1100,1100,1100,1038,1500,1507,12090,814
78522,9,0.02,0.00,0.09,0.013,-0.055,0.890,-1.92,0.52,0.00,0.00,1.92,-0.52,0.00,6.71,-1.81,6.68,-1.81,0.00,0.29,-0.05,-1.95,1100,1100,1100,1100,1038,1500,1507,12094,814
78535,9,0.07,-0.09,0.11,0.013,-0.052,0.888,-1.91,0.53,0.00,0.00,1.91,-0.53,0.00,6.68,-1.87,6.61,-1.78,0.00,0.26,-0.03,-1.30,1100,1100,1100,1100,1038,1500,1507,12094,814
78546,9,0.19,-0.09,0.00,0.011,-0.051,0.889,-1.88,0.52,0.00,0.00,1.88,-0.52,0.00,6.59,-1.82,6.39,-1.73,0.00,0.21,-0.05,0.76,1100,1100,1100,1100,1038,1500,1507,12086,814
78559,9,0.20,-0.05,-0.04,0.011,-0.054,0.888,-1.90,0.50,0.00,0.00,1.90,-0.50,0.00,6.66,-1.75,6.46,-1.70,0.00,0.23,-0.06,0.90,1100,1100,1100,1100,1038,1500,1507,12078,814
78571,9,-0.00,-0.04,0.24,0.012,-0.053,0.889,-1.94,0.48,0.00,0.00,1.94,-0.48,0.00,6.78,-1.68,6.79,-1.64,0.00,0.33,-0.06,-3.91,1100,1100,1100,1100,1038,1500,1507,12086,814
78582,9,0.05,0.02,0.42,0.010,-0.052,0.891,-1.95,0.44,0.00,0.00,1.95,-0.44,0.00,6.83,-1.54,6.78,-1.55,0.00,0.28,-0.08,-4.98,1100,1100,1100,1100,1038,1500,1507,12090,814
78594,9,0.36,-0.08,-0.34,0.012,-0.053,0.889,-1.94,0.43,0.00,0.00,1.94,-0.43,0.00,6.79,-1.52,6.43,-1.43,0.00,0.14,-0.00,9.61,1100,1100,1100,1100,1038,1500,1507,12078,814
78606,9,0.09,-0.10,-0.91,0.020,-0.049,0.887,-1.91,0.53,0.00,0.00,1.91,-0.53,0.00,6.69,-1.87,6.60,-1.78,0.00,0.29,-0.01,13.71,1100,1100,1100,1100,1038,1500,1507,12065,814
78619,9,-0.06,0.18,0.24,0.014,-0.052,0.893,-1.90,0.59,0.00,0.00,1.90,-0.59,0.00,6.63,-2.05,6.69,-2.22,0.00,0.35,-0.19,-9.91,1100,1100,1100,1100,1038,1500,1507,12049,814
78631,9,0.21,0.12,1.05,0.014,-0.049,0.889,-1.88,0.49,0.00,0.00,1.88,-0.49,0.00,6.59,-1.73,6.38,-1.85,0.00,0.20,-0.16,-17.07,1100,1100,1100,1100,1038,1500,1507,12044,814
78642,9,0.33,-0.50,0.27,0.016,-0.047,0.885,-1.94,0.46,0.00,0.00,1.94,-0.46,0.00,6.78,-1.61,6.44,-1.11,0.00,0.20,0.11,1.90,1100,1100,1100,1100,1038,1500,1507,12024,814
78654,9,-0.06,-0.35,-0.81,0.015,-0.056,0.900,-2.00,0.53,0.00,0.00,2.00,-0.53,0.00,7.01,-1.87,7.06,-1.52,0.00,0.38,0.03,17.28,1100,1100,1100,1100,1038,1500,1507,12019,814
78666,9,-0.00,-0.05,-0.58,0.018,-0.057,0.897,-1.90,0.64,0.00,0.00,1.90,-0.64,0.00,6.65,-2.24,6.66,-2.19,0.00,0.29,-0.10,6.02,1100,1100,1100,1100,1038,1500,1507,12015,814
78679,9,-0.24,0.61,0.52,-0.019,-0.052,0.904,-1.75,0.43,0.00,0.00,1.75,-0.43,0.00,6.11,-1.50,6.35,-2.11,0.00,0.36,-0.33,-13.16,1100,1100,1100,1100,1038,1500,1507,11982,814
78691,9,-0.08,0.10,0.82,0.019,-0.050,0.889,-1.75,0.47,0.00,0.00,1.75,-0.47,0.00,6.11,-1.66,6.19,-1.76,0.00,0.29,-0.04,-11.37,1100,1100,1100,1100,1038,1500,1507,11965,814
78702,9,0.40,-0.12,0.05,0.022,-0.053,0.888,-1.83,0.49,0.00,0.00,1.83,-0.49,0.00,6.39,-1.72,5.99,-1.60,0.00,0.06,0.06,5.00,1100,1100,1100,1100,1038,1500,1507,11982,814
78714,9,0.30,-0.01,-0.67,0.013,-0.065,0.886,-1.95,0.53,0.00,0.00,1.95,-0.53,0.00,6.83,-1.86,6.53,-1.85,0.00,0.14,-0.00,13.07,1100,1100,1100,1100,1038,1500,1507,11982,814
78726,9,-0.17,0.59,-0.44,0.015,-0.055,0.891,-1.95,0.53,0.00,0.00,1.95,-0.53,0.00,6.81,-1.85,6.98,-2.44,0.00,0.37,-0.16,3.83,1100,1100,1100,1100,1038,1500,1507,11961,814
78739,9,0.05,0.03,0.51,0.015,-0.052,0.888,-1.97,0.56,0.00,0.00,1.97,-0.56,0.00,6.90,-1.94,6.85,-1.98,0.00,0.26,0.02,-11.94,1100,1100,1100,1100,1038,1500,1507,11920,814
78751,9,0.30,0.18,0.49,0.002,-0.060,0.883,-2.04,0.43,0.00,0.00,2.04,-0.43,0.00,7.13,-1.49,6.83,-1.66,0.00,0.17,-0.09,-5.43,1100,1100,1100,1100,1038,1500,1507,11945,853
78762,9,0.44,0.32,-0.49,0.019,-0.043,0.895,-2.03,0.44,0.00,0.00,2.03,-0.44,0.00,7.09,-1.55,6.66,-1.88,0.00,0.16,-0.13,11.85,1100,1100,1100,1100,1038,1500,1507,11953,853
78774,9,-0.40,0.19,-0.72,0.043,-0.029,0.880,-1.82,0.79,0.00,0.00,1.82,-0.79,0.00,6.37,-2.78,6.77,-2.97,0.00,0.53,-0.13,9.41,1100,1100,1100,1100,1038,1500,1507,11970,853
78786,9,-1.33,1.05,0.25,0.029,-0.047,0.888,-1.76,1.07,0.00,0.00,1.76,-1.07,0.00,6.16,-3.76,7.49,-4.81,0.00,0.76,-0.49,-9.71,1100,1100,1100,1100,1038,1500,1507,11970,853
78799,9,-0.61,1.39,1.00,-0.031,-0.080,0.908,-2.02,0.53,0.00,0.00,2.02,-0.53,0.00,7.09,-1.85,7.70,-3.24,0.00,0.26,-0.36,-16.65,1100,1100,1100,1100,1038,1500,1507,11970,853
78811,9,1.34,-0.29,0.27,-0.013,-0.020,0.885,-1.92,0.05,0.00,0.00,1.92,-0.05,0.00,6.71,-0.19,5.37,0.11,0.00,-0.49,0.46,1.53,1100,1100,1100,1100,1038,1500,1507,11970,853
78822,9,0.34,-0.35,-0.46,0.035,-0.079,0.889,-2.06,0.18,0.00,0.00,2.06,-0.18,0.00,7.20,-0.63,6.86,-0.28,0.00,0.17,0.35,11.80,1100,1100,1100,1100,1038,1500,1507,11965,853
78834,9,-1.09,0.58,-0.36,-0.006,-0.099,0.925,-2.45,0.30,0.00,0.00,2.45,-0.30,0.00,8.59,-1.06,9.68,-1.63,0.00,0.87,-0.21,5.01,1100,1100,1100,1100,1038,1500,1507,11945,853
78846,9,0.12,-0.91,0.49,0.011,0.029,0.847,-1.77,-0.00,0.00,0.00,1.77,0.00,0.00,6.20,0.01,6.08,0.92,0.00,0.25,0.30,-10.52,1100,1100,1100,1100,1038,1505,1502,11945,853
78859,9,1.20,1.04,0.69,0.032,-0.074,0.941,-1.68,0.25,0.00,0.00,1.68,-0.25,0.00,5.87,-0.87,4.67,-1.91,0.00,-0.32,-0.42,-9.02,1100,1100,1100,1100,1038,1505,1502,11965,857
78871,9,0.78,-0.53,-0.44,0.017,-0.073,0.902,-2.10,0.50,0.00,0.00,2.10,-0.50,0.00,7.36,-1.76,6.58,-1.23,0.00,-0.08,0.46,11.96,1100,1100,1100,1100,1038,1500,1507,11970,857
78882,9,-2.05,0.87,-0.29,-0.042,-0.064,0.860,-1.77,0.60,0.00,0.00,1.77,-0.60,0.00,6.18,-2.11,8.23,-2.97,0.00,1.03,-0.59,4.54,1100,1100,1100,1100,1038,1500,1507,11974,857
78894,9,-0.20,0.81,-0.43,-0.020,-0.089,0.982,-1.88,0.40,0.00,0.00,1.88,-0.40,0.00,6.57,-1.40,6.77,-2.22,0.00,0.25,-0.30,4.65,1100,1100,1100,1100,1038,1500,1507,11978,857
78906,9,-0.69,0.45,0.55,0.025,-0.055,0.789,-1.89,0.61,0.00,0.00,1.89,-0.61,0.00,6.60,-2.13,7.28,-2.58,0.00,0.68,-0.19,-11.20,1100,1100,1100,1100,1038,1500,1507,11965,857
78919,9,-0.21,0.63,-0.16,0.016,-0.128,0.959,-2.48,0.92,0.00,0.00,2.48,-0.92,0.00,8.69,-3.22,8.90,-3.85,0.00,0.43,-0.46,6.17,1100,1100,1100,1100,1038,1500,1507,11990,857
78931,9,-0.16,0.24,0.29,-0.030,0.011,0.808,-1.75,0.67,0.00,0.00,1.75,-0.67,0.00,6.12,-2.35,6.28,-2.59,0.00,0.32,-0.56,-4.24,1100,1100,1100,1100,1038,1500,1507,11982,857
78943,9,2.14,-1.04,-1.07,0.024,-0.081,0.983,-1.93,0.44,0.00,0.00,1.93,-0.44,0.00,6.74,-1.55,4.60,-0.51,0.00,-0.33,0.03,19.69,1100,1100,1100,1100,1038,1502,1507,11978,857
78954,9,0.66,-0.83,0.93,0.026,-0.037,0.767,-1.98,0.54,0.00,0.00,1.98,-0.54,0.00,6.95,-1.90,6.29,-1.07,0.00,0.60,-0.20,-20.12,1100,1100,1100,1100,1038,1502,1505,11978,861
78966,9,0.22,-2.09,-0.41,0.057,-0.064,0.969,-2.09,0.83,0.00,0.00,2.09,-0.83,0.00,7.31,-2.90,7.08,-0.81,0.00,0.52,0.41,11.68,1100,1100,1100,1100,1038,1500,1507,11995,861
78979,9,-0.89,1.23,1.07,0.005,-0.028,0.839,-1.73,0.72,0.00,0.00,1.73,-0.72,0.00,6.07,-2.53,6.96,-3.76,0.00,0.88,-1.34,-16.42,1100,1100,1100,1100,1038,1500,1507,11999,861
78991,9,-0.13,1.07,-1.18,0.086,-0.040,0.905,-1.80,1.02,0.00,0.00,1.80,-1.02,0.00,6.31,-3.57,6.44,-4.63,0.00,0.36,-0.66,26.89,1100,1100,1100,1100,1038,1500,1507,11999,861
79002,9,-2.86,1.38,0.33,0.019,-0.093,0.845,-1.83,1.68,0.00,0.00,1.83,-1.68,0.00,6.39,-5.87,9.25,-7.25,0.00,1.30,-0.73,-7.66,1100,1100,1100,1100,1038,1500,1507,11990,861
79014,9,-1.22,2.86,-0.14,-0.071,-0.060,0.961,-1.79,0.88,0.00,0.00,1.79,-0.88,0.00,6.27,-3.08,7.49,-5.94,0.00,0.16,-1.15,0.52,1100,1100,1100,1100,1038,1500,1507,11995,861
79026,9,-0.30,1.41,1.41,-0.042,-0.128,0.911,-2.10,0.41,0.00,0.00,2.10,-0.41,0.00,7.34,-1.45,7.65,-2.86,0.00,-0.01,-0.34,-22.41,1100,1100,1100,1100,1038,1500,1507,11999,861
79039,9,-1.14,2.48,-0.29,0.002,-0.074,0.842,-2.24,1.00,0.00,0.00,2.24,-1.00,0.00,7.84,-3.49,8.98,-5.96,0.00,0.56,-0.92,8.86,1100,1100,1100,1100,1038,1500,1507,12015,861
79051,9,0.60,-1.35,-0.12,-0.012,-0.034,0.926,-2.26,0.80,0.00,0.00,2.26,-0.80,0.00,7.92,-2.81,7.32,-1.46,0.00,-0.11,0.73,5.16,1100,1100,1100,1100,1038,1500,1507,12015,873
79062,9,1.53,-0.06,-0.34,-0.036,-0.049,0.861,-2.03,0.44,0.00,0.00,2.03,-0.44,0.00,7.10,-1.53,5.57,-1.46,0.00,-0.54,-0.05,0.71,1100,1100,1100,1100,1038,1500,1507,12007,873
79074,9,1.44,-1.88,-0.05,0.040,0.009,0.950,-1.88,0.48,0.00,0.00,1.88,-0.48,0.00,6.57,-1.66,5.12,0.21,0.00,-0.06,0.58,0.77,1100,1100,1100,1100,1038,1500,1507,11995,873
79086,9,2.31,-3.75,1.07,0.075,-0.078,0.823,-2.23,0.98,0.00,0.00,2.23,-0.98,0.00,7.82,-3.43,5.51,0.32,0.00,-0.45,1.32,-20.55,1100,1100,1100,1100,1038,1500,1507,11995,873
79099,9,-3.12,0.46,-0.96,0.109,-0.010,0.860,-1.47,1.99,0.00,0.00,1.47,-1.99,0.00,5.15,-6.95,8.28,-7.41,0.00,1.87,-0.94,21.42,1100,1100,1100,1100,1038,1500,1507,11990,873
79111,9,0.98,-3.82,-0.08,0.130,-0.012,0.821,-1.48,2.33,0.00,0.00,1.48,-2.33,0.00,5.17,-8.15,4.20,-4.32,0.00,-0.18,1.16,-0.32,1100,1100,1100,1100,1038,1500,1507,11982,873
79122,9,-2.09,3.03,-0.68,-0.063,-0.128,0.894,-1.62,2.01,0.00,0.00,1.62,-2.01,0.00,5.68,-7.04,7.77,-10.06,0.00,0.84,-2.12,8.92,1100,1100,1100,1100,1038,1500,1507,11982,873
79134,9,-1.94,2.67,0.33,-0.094,-0.062,0.966,-1.89,0.69,0.00,0.00,1.89,-0.69,0.00,6.62,-2.40,8.56,-5.07,0.00,0.93,-1.34,-6.11,1100,1100,1100,1100,1038,1500,1507,11978,873
79146,9,1.99,0.72,0.77,-0.098,-0.130,0.945,-2.36,-0.79,0.00,0.00,2.36,0.79,0.00,8.26,2.75,6.27,2.03,0.00,-1.27,0.57,-13.11,1100,1100,1100,1100,1038,1500,1507,11990,873
79159,9,-1.23,-0.96,0.44,-0.025,-0.025,0.853,-2.17,-0.69,0.00,0.00,2.17,0.69,0.00,7.60,2.42,8.84,3.38,0.00,0.91,0.63,-4.24,1100,1100,1100,1100,1038,1500,1507,11986,943
79171,9,4.71,-4.48,-0.24,0.046,-0.032,0.822,-2.70,-0.70,0.00,0.00,2.70,0.70,0.00,9.44,2.44,4.73,6.92,0.00,-1.42,1.99,5.25,1100,1100,1100,1100,1038,1500,1507,11990,943
79182,9,-1.11,-0.64,-0.64,-0.027,-0.037,0.931,-2.18,-0.47,0.00,0.00,2.18,0.47,0.00,7.62,1.64,8.72,2.28,0.00,1.08,-0.21,11.08,1100,1100,1100,1100,1038,1500,1507,11990,943
79194,9,0.92,-4.34,0.25,0.110,0.002,0.881,-1.77,0.43,0.00,0.00,1.77,-0.43,0.00,6.19,-1.52,5.27,2.82,0.00,0.43,1.24,-6.54,1100,1100,1100,1100,1038,1500,1507,11999,943
79206,9,1.92,2.25,0.24,0.003,-0.201,0.849,-2.05,0.03,0.00,0.00,2.05,-0.03,0.00,7.19,-0.11,5.26,-2.37,0.00,-0.50,-1.37,-2.05,1100,1100,1100,1100,1038,1500,1507,12003,943
79219,9,-4.00,3.01,0.24,-0.038,-0.058,0.890,-1.47,0.78,0.00,0.00,1.47,-0.78,0.00,5.13,-2.74,9.14,-5.75,0.00,2.26,-2.05,-2.47,1100,1100,1100,1100,1038,1500,1507,11982,943
79231,9,0.90,-0.00,-0.19,0.053,0.073,0.922,-1.46,0.74,0.00,0.00,1.46,-0.74,0.00,5.09,-2.58,4.19,-2.58,0.00,-0.42,0.16,5.45,1100,1100,1100,1100,1038,1500,1507,11982,943
79242,9,-2.17,1.16,0.60,-0.082,-0.035,0.942,-1.61,0.34,0.00,0.00,1.61,-0.34,0.00,5.62,-1.20,7.79,-2.37,0.00,0.72,-0.26,-10.81,1100,1100,1100,1100,1038,1500,1507,11990,943
79255,9,-1.42,-0.25,0.22,0.088,0.017,0.803,-1.54,0.23,0.00,0.00,1.54,-0.23,0.00,5.40,-0.80,6.82,-0.54,0.00,0.80,0.65,-2.73,1100,1100,1100,1100,1038,1500,1507,11982,1003
79266,9,0.55,3.79,-0.07,-0.050,-0.133,0.913,-2.17,-0.84,0.00,0.00,2.17,0.84,0.00,7.60,2.93,7.05,-0.86,0.00,-0.41,-0.75,4.82,1100,1100,1100,1100,1038,1500,1507,11970,1003
79279,9,-2.01,1.29,-0.26,0.106,-0.022,0.791,-1.46,0.01,0.00,0.00,1.46,-0.01,0.00,5.10,-0.03,7.11,-1.32,0.00,0.93,0.09,6.10,1100,1100,1100,1100,1038,1500,1507,11974,1003
79291,9,4.07,-4.06,-0.13,0.038,0.058,0.887,-1.45,0.15,0.00,0.00,1.45,-0.15,0.00,5.09,-0.54,1.02,3.52,0.00,-1.61,2.07,1.57,1100,1100,1100,1100,1038,1500,1507,11970,1003
79302,9,0.50,1.70,1.19,-0.067,-0.120,0.942,-1.70,-0.50,0.00,0.00,1.70,0.50,0.00,5.95,1.74,5.46,0.04,0.00,-0.16,-0.29,-22.29,1100,1100,1100,1100,1038,1500,1507,11982,1003
79314,9,-0.18,-1.69,0.11,0.046,-0.067,0.982,-1.45,0.06,0.00,0.00,1.45,-0.06,0.00,5.08,-0.21,5.26,1.48,0.00,0.40,1.06,-0.26,1100,1100,1100,1100,1038,1500,1507,11982,1003
79326,9,-0.23,0.59,-1.01,0.002,-0.142,0.892,-2.08,0.01,0.00,0.00,2.08,-0.01,0.00,7.28,-0.05,7.52,-0.64,0.00,0.65,-0.02,23.41,1100,1100,1100,1100,1038,1500,1507,11982,1003
79339,9,-3.57,4.31,0.08,0.007,-0.088,0.759,-1.86,0.50,0.00,0.00,1.86,-0.50,0.00,6.52,-1.74,10.09,-6.05,0.00,2.06,-1.79,-1.94,1100,1100,1100,1100,1038,1500,1507,11978,1003
79351,9,1.90,1.69,0.44,-0.080,-0.014,1.047,-1.83,-0.18,0.00,0.00,1.83,0.18,0.00,6.42,0.63,4.52,-1.07,0.00,-0.73,-0.05,-11.49,1100,1100,1100,1100,1038,1500,1507,11970,822
79362,9,5.79,-2.16,0.62,-0.020,-0.067,0.944,-1.89,-0.01,0.00,0.00,1.89,0.01,0.00,6.62,0.02,0.84,2.18,0.00,-2.09,1.37,-9.80,1100,1100,1100,1100,1038,1500,1507,11982,822
79374,9,1.83,-3.63,0.37,-0.014,-0.060,0.733,-2.16,0.02,0.00,0.00,2.16,-0.02,0.00,7.57,-0.08,5.74,3.55,0.00,0.30,1.23,-5.80,1100,1100,1100,1100,1038,1500,1507,11995,822
79386,9,-0.62,-3.02,-1.56,0.081,-0.073,0.882,-2.34,0.14,0.00,0.00,2.34,-0.14,0.00,8.17,-0.48,8.80,2.54,0.00,1.50,0.70,32.38,1100,1100,1100,1100,1038,1500,1507,12007,822
79399,9,2.26,-1.84,-0.01,0.136,-0.063,0.833,-2.25,1.15,0.00,0.00,2.25,-1.15,0.00,7.87,-4.04,5.60,-2.20,0.00,-0.09,-0.31,-0.74,1100,1100,1100,1100,1038,1500,1507,12015,822
79411,9,1.47,-0.48,-0.05,0.050,-0.050,0.906,-1.89,1.63,0.00,0.00,1.89,-1.63,0.00,6.62,-5.72,5.15,-5.24,0.00,-0.10,-0.61,-1.64,1100,1100,1100,1100,1038,1500,1507,12015,822
79422,9,-1.07,-1.54,0.49,0.044,-0.075,0.997,-1.39,2.73,0.00,0.00,1.39,-2.73,0.00,4.85,-9.57,5.93,-8.03,0.00,0.92,-0.05,-7.43,1100,1100,1100,1100,1038,1500,1507,11999,822
79434,9,-1.64,2.35,1.05,0.034,-0.103,0.800,-1.66,2.79,0.00,0.00,1.66,-2.79,0.00,5.80,-9.77,7.44,-12.12,0.00,0.83,-1.45,-18.07,1100,1100,1100,1100,1038,1500,1507,11995,822
79446,9,-6.28,4.41,-1.02,0.039,-0.091,0.942,-1.30,3.37,0.00,0.00,1.30,-3.37,0.00,4.54,-11.79,10.81,-16.19,0.00,2.59,-2.43,21.17,1100,1100,1100,1100,1038,1500,1507,11982,822
79459,9,-3.55,1.03,-0.09,0.149,0.046,0.859,-1.32,3.53,0.00,0.00,1.32,-3.53,0.00,4.61,-12.35,8.15,-13.38,0.00,1.03,-0.35,2.05,1100,1100,1100,1100,1038,1500,1507,11965,814
79471,9,0.02,3.00,0.43,-0.034,-0.098,0.893,-2.07,3.11,0.00,0.00,2.07,-3.11,0.00,7.24,-10.89,7.22,-13.89,0.00,-0.91,-1.21,-11.46,1100,1100,1100,1100,1038,1500,1507,11965,814
79482,9,-2.82,1.24,0.82,0.050,0.025,0.811,-1.71,2.90,0.00,0.00,1.71,-2.90,0.00,6.00,-10.15,8.81,-11.39,0.00,0.81,-0.06,-12.53,1100,1100,1100,1100,1038,1500,1507,11970,814
79494,9,4.67,-0.92,1.07,-0.094,-0.019,0.898,-2.69,1.17,0.00,0.00,2.69,-1.17,0.00,9.42,-4.08,4.75,-3.16,0.00,-2.22,1.19,-14.88,1100,1100,1100,1100,1038,1500,1507,11965,814
79506,9,0.20,3.13,-0.85,-0.156,-0.173,0.920,-2.84,-0.51,0.00,0.00,2.84,0.51,0.00,9.93,1.78,9.73,-1.35,0.00,0.16,-0.62,23.63,1100,1100,1100,1100,1038,1500,1507,11965,814
79519,9,0.34,-0.88,-0.43,0.010,-0.070,0.906,-2.67,-1.21,0.00,0.00,2.67,1.21,0.00,9.35,4.23,9.01,5.11,0.00,0.87,0.79,10.70,1100,1100,1100,1100,1038,1500,1507,11978,814
79531,9,3.81,-3.12,0.08,-0.014,-0.144,1.005,-2.97,-1.36,0.00,0.00,2.97,1.36,0.00,10.40,4.78,6.59,7.90,0.00,-1.10,1.86,-3.23,1100,1100,1100,1100,1038,1500,1507,11970,814
79542,9,-4.72,1.94,0.67,-0.030,-0.037,0.895,-1.94,-0.47,0.00,0.00,1.94,0.47,0.00,6.81,1.64,11.53,-0.30,0.00,2.66,-1.31,-11.90,1100,1100,1100,1100,1038,1500,1507,11965,814
79554,9,0.16,-1.47,0.50,0.080,-0.007,0.885,-2.10,-0.10,0.00,0.00,2.10,0.10,0.00,7.37,0.34,7.21,1.80,0.00,0.38,0.41,-5.07,1100,1100,1100,1100,1038,1500,1507,11965,814
79566,9,-1.35,4.52,-0.44,-0.011,-0.197,0.932,-2.40,-0.11,0.00,0.00,2.40,0.11,0.00,8.41,0.38,9.76,-4.14,0.00,0.43,-1.68,11.12,1100,1100,1100,1100,1038,1500,1507,11965,814
79579,9,-3.54,3.18,-0.29,-0.024,0.056,0.879,-1.81,-0.23,0.00,0.00,1.81,0.23,0.00,6.35,0.81,9.89,-2.37,0.00,1.82,-1.24,4.15,1100,1100,1100,1100,1038,1500,1507,11978,814
79591,9,4.03,-1.75,0.23,0.011,0.057,0.832,-2.23,-0.95,0.00,0.00,2.23,0.95,0.00,7.81,3.32,3.77,5.08,0.00,-1.75,1.75,-4.27,1100,1100,1100,1100,1038,1500,1507,11986,814
79602,9,-1.73,1.60,1.28,-0.076,-0.075,0.960,-2.21,-1.31,0.00,0.00,2.21,1.31,0.00,7.72,4.59,9.45,2.99,0.00,0.75,0.05,-19.35,1100,1100,1100,1100,1038,1500,1507,11982,814
79614,9,-0.37,-4.44,0.13,0.119,-0.041,0.798,-2.31,-0.40,0.00,0.00,2.31,0.40,0.00,8.09,1.40,8.45,5.84,0.00,0.63,2.45,7.12,1100,1100,1100,1100,1038,1500,1507,11986,814
79626,9,4.57,2.28,-0.03,-0.151,-0.258,0.978,-2.95,-1.57,0.00,0.00,2.95,1.57,0.00,10.32,5.48,5.75,3.21,0.00,-1.91,-0.65,5.33,1100,1100,1100,1100,1038,1500,1507,11995,814
79639,9,-1.82,2.48,-0.88,-0.074,-0.052,0.916,-1.70,-1.01,0.00,0.00,1.70,1.01,0.00,5.93,3.52,7.75,1.03,0.00,1.20,-1.07,12.86,1100,1100,1100,1100,1038,1500,1507,11986,814
79651,9,0.68,-2.98,-0.01,0.061,0.019,0.939,-1.98,-0.80,0.00,0.00,1.98,0.80,0.00,6.93,2.80,6.24,5.78,0.00,0.36,1.59,-1.77,1100,1100,1100,1100,1038,1500,1507,11982,814
79663,9,-2.23,0.47,1.27,0.025,-0.134,0.904,-2.06,-0.31,0.00,0.00,2.06,0.31,0.00,7.20,1.07,9.43,0.60,0.00,1.30,-0.17,-20.36,1100,1100,1100,1100,1038,1500,1507,11986,814
79674,9,-2.11,0.31,0.16,0.019,-0.001,0.820,-1.75,-0.62,0.00,0.00,1.75,0.62,0.00,6.12,2.18,8.22,1.87,0.00,1.46,-0.29,4.65,1100,1100,1100,1100,1038,1500,1507,11978,814
79686,9,5.40,-0.90,-0.19,-0.068,-0.083,0.989,-2.54,-1.23,0.00,0.00,2.54,1.23,0.00,8.89,4.30,3.49,5.20,0.00,-2.24,0.63,6.28,1100,1100,1100,1100,1038,1500,1507,11970,814
79699,9,-2.78,1.69,-0.28,-0.011,-0.028,0.844,-1.71,-0.12,0.00,0.00,1.71,0.12,0.00,5.98,0.42,8.76,-1.27,0.00,1.47,-1.16,0.88,1100,1100,1100,1100,1038,1500,1507,11965,814
79711,9,-1.60,-4.65,-0.03,0.172,0.044,0.764,-1.96,0.96,0.00,0.00,1.96,-0.96,0.00,6.87,-3.36,8.46,1.30,0.00,1.17,1.60,-2.45,1100,1100,1100,1100,1035,1516,1493,11978,814
79723,9,1.49,-1.92,0.08,0.048,-0.161,0.916,-1.79,1.57,0.00,0.00,1.79,-1.57,0.00,6.28,-5.50,4.79,-3.58,0.00,-0.63,0.30,0.46,1100,1100,1100,1100,1035,1500,1493,11982,814
79734,9,-1.01,1.59,0.40,0.049,0.014,0.714,-1.03,1.64,0.00,0.00,1.03,-1.64,0.00,3.62,-5.72,4.63,-7.31,0.00,0.76,-1.42,-2.04,1100,1100,1100,1100,1038,1500,1507,11982,814
79746,9,4.97,-3.52,-0.27,-0.038,-0.076,1.024,-1.80,1.41,0.00,0.00,1.80,-1.41,0.00,6.30,-4.94,1.33,-1.42,0.00,-1.96,1.16,5.94,1100,1100,1100,1100,1038,1500,1507,11982,814
79759,9,1.16,-1.98,0.14,0.029,-0.128,0.940,-1.81,1.52,0.00,0.00,1.81,-1.52,0.00,6.33,-5.32,5.18,-3.34,0.00,-0.16,0.31,-7.25,1100,1100,1100,1100,1038,1500,1507,11974,814
79771,9,-0.77,-2.57,-0.11,0.084,-0.084,0.792,-2.06,2.38,0.00,0.00,2.06,-2.38,0.00,7.23,-8.33,7.99,-5.76,0.00,1.36,-0.38,-4.32,1100,1100,1100,1100,1038,1500,1507,11982,814
79782,9,-0.06,-1.07,-0.55,0.129,-0.055,0.904,-1.79,2.86,0.00,0.00,1.79,-2.86,0.00,6.25,-10.02,6.31,-8.95,0.00,0.72,-0.64,13.48,1100,1100,1100,1100,1038,1500,1507,11986,814
79794,9,-2.34,4.51,0.44,-0.010,0.032,0.863,-1.38,2.65,0.00,0.00,1.38,-2.65,0.00,4.82,-9.26,7.17,-13.77,0.00,1.56,-3.17,-5.80,1100,1100,1100,1100,1038,1500,1507,11978,814
79806,9,1.45,-0.12,-0.46,0.002,0.070,0.885,-1.09,1.95,0.00,0.00,1.09,-1.95,0.00,3.83,-6.82,2.38,-6.71,0.00,-0.37,0.12,8.00,1100,1100,1100,1100,1038,1500,1507,11978,814
79819,9,1.21,3.92,0.40,-0.067,-0.009,0.968,-1.10,0.42,0.00,0.00,1.10,-0.42,0.00,3.84,-1.48,2.63,-5.41,0.00,-0.56,-0.96,-12.68,1100,1100,1100,1100,1038,1500,1507,11970,814
79831,9,-0.99,0.10,0.11,-0.067,-0.087,0.804,-1.33,-0.25,0.00,0.00,1.33,0.25,0.00,4.67,0.88,5.66,0.78,0.00,0.69,0.69,-3.95,1100,1100,1100,1100,1038,1501,1506,11978,814
79842,9,-0.89,2.72,-0.07,-0.076,-0.142,1.009,-1.67,-1.22,0.00,0.00,1.67,1.22,0.00,5.84,4.26,6.73,1.53,0.00,0.42,-0.21,6.68,1100,1100,1100,1100,1038,1500,1506,11974,814
79854,9,2.77,1.06,0.90,-0.118,-0.129,0.974,-2.02,-2.09,0.00,0.00,2.02,2.09,0.00,7.08,7.30,4.31,6.24,0.00,-0.94,0.06,-10.31,1100,1100,1100,1100,1038,1500,1507,11974,814
79867,9,2.86,-3.36,-0.50,-0.017,-0.032,0.792,-2.09,-2.34,0.00,0.00,2.09,2.34,0.00,7.31,8.20,4.45,11.56,0.00,-0.29,1.92,12.99,1100,1100,1100,1100,1038,1500,1507,11978,814
79879,9,1.14,-1.34,-0.84,0.047,-0.011,0.971,-2.30,-1.65,0.00,0.00,2.30,1.65,0.00,8.07,5.77,6.93,7.12,0.00,0.78,0.37,11.82,1100,1100,1100,1100,1038,1500,1507,11982,814
79891,9,1.18,-1.89,0.44,0.029,-0.015,0.875,-1.89,-1.31,0.00,0.00,1.89,1.31,0.00,6.61,4.58,5.43,6.47,0.00,0.65,0.44,-14.67,1100,1100,1100,1100,1038,1500,1507,11990,814
79902,9,2.79,2.13,0.82,-0.052,-0.024,0.942,-1.44,-1.58,0.00,0.00,1.44,1.58,0.00,5.04,5.55,2.26,3.41,0.00,-0.03,-1.00,-15.48,1100,1100,1100,1100,1038,1500,1507,11995,814
79914,9,5.88,1.76,0.47,-0.084,-0.013,0.944,-1.19,-2.06,0.00,0.00,1.19,2.06,0.00,4.17,7.21,-1.70,5.45,0.00,-1.29,-0.56,-1.95,1100,1100,1100,1100,1038,1500,1507,11995,814
79926,9,4.00,-2.89,-0.30,-0.089,-0.025,0.779,-1.28,-2.72,0.00,0.00,1.28,2.72,0.00,4.49,9.53,0.49,12.41,0.00,-0.46,1.84,10.05,1100,1100,1100,1100,1038,1500,1507,11995,814
79939,9,1.48,-2.63,-1.29,0.007,-0.048,0.946,-1.14,-2.53,0.00,0.00,1.14,2.53,0.00,3.98,8.84,2.50,11.47,0.00,0.73,1.33,22.79,1100,1100,1100,1100,1038,1500,1507,11999,814
79951,9,1.85,-1.46,0.25,0.023,-0.112,0.926,-1.24,-2.24,0.00,0.00,1.24,2.24,0.00,4.33,7.83,2.48,9.29,0.00,0.32,0.43,-8.41,1100,1100,1100,1100,1038,1500,1507,11999,814
79962,9,0.32,0.80,0.67,-0.034,-0.116,0.938,-1.06,-1.65,0.00,0.00,1.06,1.65,0.00,3.71,5.76,3.39,4.96,0.00,0.53,-0.35,-14.48,1100,1100,1100,1100,1038,1500,1507,11995,814
79974,9,-2.15,1.03,0.01,-0.003,0.024,0.999,-0.34,-0.46,0.00,0.00,0.34,0.46,0.00,1.19,1.60,3.34,0.57,0.00,1.33,-0.59,3.60,1100,1100,1100,1100,1038,1500,1507,11982,814
79986,9,-2.04,0.94,0.11,0.042,-0.007,0.791,-0.40,0.26,0.00,0.00,0.40,-0.26,0.00,1.39,-0.91,3.43,-1.85,0.00,0.95,-0.53,-2.67,1100,1100,1100,1100,1038,1500,1507,11990,814
79999,9,-2.55,2.20,-1.35,0.095,-0.031,0.878,-0.34,1.07,0.00,0.00,0.34,-1.07,0.00,1.19,-3.76,3.74,-5.96,0.00,1.05,-1.07,22.60,1100,1100,1100,1100,1038,1500,1507,11978,814
80011,9,0.52,3.30,0.38,-0.016,-0.024,0.907,-0.97,0.28,0.00,0.00,0.97,-0.28,0.00,3.39,-0.97,2.86,-4.27,0.00,-0.28,-1.08,-8.31,1100,1100,1100,1100,1037,1496,1507,11965,814
80022,9,1.58,0.81,0.61,-0.066,-0.061,0.866,-1.32,-0.19,0.00,0.00,1.32,0.19,0.00,4.60,0.67,3.02,-0.14,0.00,-1.00,0.52,-12.60,1100,1100,1100,1100,1037,1496,1507,11957,814
80034,9,-1.61,1.04,0.00,-0.030,0.035,0.952,-1.17,-1.01,0.00,0.00,1.17,1.01,0.00,4.08,3.52,5.69,2.48,0.00,0.52,0.68,4.12,1100,1100,1100,1100,1037,1496,1507,11965,814
80046,9,0.90,-1.07,0.62,-0.009,-0.116,0.905,-1.54,-0.67,0.00,0.00,1.54,0.67,0.00,5.38,2.34,4.48,3.41,0.00,-0.62,1.38,-12.53,1100,1100,1100,1100,1037,1496,1507,11978,814
80059,9,-2.19,2.81,-1.13,0.026,-0.134,0.922,-1.10,-0.19,0.00,0.00,1.10,0.19,0.00,3.84,0.66,6.03,-2.14,0.00,0.72,-0.72,20.74,1100,1100,1100,1100,1037,1496,1507,11978,814
80071,9,-1.35,1.54,0.95,-0.111,-0.153,1.088,-1.53,-0.48,0.00,0.00,1.53,0.48,0.00,5.36,1.68,6.71,0.14,0.00,0.74,-0.45,-16.21,1100,1100,1100,1100,1036,1495,1507,11982,814
80082,9,2.03,-1.30,1.04,0.035,0.045,0.811,-1.00,-0.24,0.00,0.00,1.00,0.24,0.00,3.50,0.85,1.47,2.15,0.00,-0.72,0.97,-13.48,1100,1100,1100,1100,1036,1495,1507,11982,814
80094,9,-5.59,3.42,-0.45,0.020,0.049,0.861,-1.34,-0.40,0.00,0.00,1.34,0.40,0.00,4.69,1.40,10.28,-2.01,0.00,2.78,-1.21,15.82,1100,1100,1100,1100,1036,1495,1507,11986,814
80106,9,-1.26,2.10,-0.68,0.089,-0.043,0.805,-1.43,-0.42,0.00,0.00,1.43,0.42,0.00,4.99,1.48,6.25,-0.62,0.00,0.51,-0.10,16.57,1100,1100,1100,1100,1036,1495,1507,11990,814
80119,9,2.56,2.55,0.80,-0.041,-0.005,0.900,-1.12,-0.03,0.00,0.00,1.12,0.03,0.00,3.93,0.10,1.37,-2.44,0.00,-1.82,-0.45,-17.57,1100,1100,1100,1100,1036,1495,1507,11974,814
80131,9,-0.79,-2.41,0.38,0.027,0.104,0.929,-0.51,0.96,0.00,0.00,0.51,-0.96,0.00,1.80,-3.36,2.59,-0.95,0.00,-0.14,1.60,-4.24,1100,1100,1100,1100,1036,1497,1507,11965,814
80142,9,-0.52,-0.69,0.95,0.052,-0.074,0.914,-1.04,1.39,0.00,0.00,1.04,-1.39,0.00,3.65,-4.88,4.17,-4.19,0.00,-0.18,0.61,-14.86,1100,1100,1100,1100,1036,1497,1507,11965,814
80154,9,-5.15,4.09,-1.71,0.052,-0.231,0.849,-1.43,1.72,0.00,0.00,1.43,-1.72,0.00,5.02,-6.01,10.17,-10.10,0.00,1.79,-1.55,34.22,1100,1100,1100,1100,1036,1497,1507,11970,814
80166,9,-1.67,4.00,-0.46,0.006,-0.135,0.939,-1.87,1.43,0.00,0.00,1.87,-1.43,0.00,6.54,-5.01,8.21,-9.01,0.00,0.53,-1.46,9.26,1100,1100,1100,1100,1036,1500,1507,11970,814
80179,9,2.93,0.80,0.78,-0.076,0.031,0.847,-1.72,0.70,0.00,0.00,1.72,-0.70,0.00,6.01,-2.47,3.08,-3.27,0.00,-1.74,0.33,-20.27,1100,1100,1100,1100,1036,1500,1507,11974,814
80191,9,0.41,-1.72,0.38,0.002,0.096,0.944,-1.66,0.23,0.00,0.00,1.66,-0.23,0.00,5.80,-0.79,5.39,0.93,0.00,0.25,1.05,-5.99,1100,1100,1100,1100,1036,1500,1507,11965,814
80202,9,5.37,-6.42,1.13,0.023,-0.123,0.770,-2.77,-0.19,0.00,0.00,2.77,0.19,0.00,9.68,0.66,4.31,7.09,0.00,-1.19,2.79,-16.34,1100,1100,1100,1100,1036,1500,1507,11965,814
80214,9,4.84,0.25,-0.44,-0.102,-0.219,0.927,-3.08,-1.39,0.00,0.00,3.08,1.39,0.00,10.77,4.85,5.93,4.59,0.00,-0.83,-0.48,14.61,1100,1100,1100,1100,1036,1500,1507,11974,814
80226,9,5.40,-3.18,0.15,-0.101,-0.033,1.075,-2.51,-1.70,0.00,0.00,2.51,1.70,0.00,8.78,5.94,3.37,9.12,0.00,-0.61,0.47,2.86,1100,1100,1100,1100,1036,1500,1507,11970,814
80239,9,5.49,-4.93,0.61,-0.024,-0.026,0.858,-2.38,-2.04,0.00,0.00,2.38,2.04,0.00,8.31,7.14,2.83,12.07,0.00,-0.65,1.65,-11.69,1100,1100,1100,1100,1036,1500,1507,11978,814
80251,9,-2.89,-2.00,-0.58,0.055,-0.057,0.904,-1.90,-1.16,0.00,0.00,1.90,1.16,0.00,6.66,4.07,9.54,6.07,0.00,3.14,-0.28,11.32,1100,1100,1100,1100,1036,1500,1507,11982,814
80262,9,2.17,-6.36,-0.05,0.164,0.004,0.755,-1.71,0.02,0.00,0.00,1.71,-0.02,0.00,5.98,-0.08,3.81,6.28,0.00,0.56,1.52,3.46,1100,1100,1100,1100,1036,1500,1507,11986,814
80275,9,2.42,0.55,0.05,-0.020,-0.066,0.908,-1.52,0.58,0.00,0.00,1.52,-0.58,0.00,5.31,-2.03,2.89,-2.58,0.00,-0.28,-1.81,-1.54,1100,1100,1100,1100,1036,1500,1507,11990,814
80286,9,-0.53,-2.42,-0.73,0.113,0.064,0.818,-0.80,2.00,0.00,0.00,0.80,-2.00,0.00,2.79,-7.01,3.32,-4.59,0.00,0.90,-0.22,12.16,1100,1100,1100,1100,1036,1500,1507,11990,814
80299,9,1.33,-0.11,0.51,0.056,-0.117,0.890,-1.62,2.32,0.00,0.00,1.62,-2.32,0.00,5.66,-8.13,4.33,-8.01,0.00,-0.43,-0.60,-15.29,1100,1100,1100,1100,1036,1500,1507,11999,814
80311,9,-6.34,3.93,-0.47,0.049,-0.135,0.871,-1.22,3.40,0.00,0.00,1.22,-3.40,0.00,4.27,-11.88,10.61,-15.81,0.00,2.61,-2.43,7.02,1100,1100,1100,1100,1036,1500,1508,11990,814
80322,9,-2.95,3.60,0.40,0.043,-0.010,0.934,-1.19,2.70,0.00,0.00,1.19,-2.70,0.00,4.16,-9.46,7.12,-13.06,0.00,0.97,-1.60,-2.22,1100,1100,1100,1100,1036,1500,1508,11986,814
80334,9,-0.53,5.46,0.95,-0.052,-0.077,0.919,-1.38,1.82,0.00,0.00,1.38,-1.82,0.00,4.84,-6.37,5.37,-11.84,0.00,-0.79,-1.34,-14.35,1100,1100,1100,1100,1036,1500,1507,11990,814
80346,9,-7.89,6.63,-0.19,-0.023,0.050,0.893,-1.18,1.25,0.00,0.00,1.18,-1.25,0.00,4.12,-4.37,12.01,-11.01,0.00,2.60,-1.59,6.19,1100,1100,1100,1100,1036,1500,1507,11986,814
80359,9,-2.75,1.13,-0.07,0.023,-0.034,0.912,-1.99,0.63,0.00,0.00,1.99,-0.63,0.00,6.96,-2.21,9.71,-3.34,0.00,0.02,1.47,1.59,1100,1100,1100,1100,1036,1500,1507,11965,814
80371,9,-3.72,5.18,-0.38,-0.048,-0.130,0.885,-2.19,0.17,0.00,0.00,2.19,-0.17,0.00,7.65,-0.58,11.37,-5.76,0.00,0.18,-0.65,6.09,1100,1100,1100,1100,1036,1500,1506,11957,814
80382,9,-1.72,-1.11,-0.15,0.039,-0.066,0.828,-2.23,0.67,0.00,0.00,2.23,-0.67,0.00,7.80,-2.34,9.52,-1.23,0.00,0.19,1.28,5.79,1100,1100,1100,1100,1036,1500,1506,11961,814
80394,9,5.05,-4.17,0.56,-0.011,-0.079,0.853,-2.90,0.12,0.00,0.00,2.90,-0.12,0.00,10.16,-0.41,5.11,3.76,0.00,-2.62,2.36,-10.20,1100,1100,1100,1100,1036,1500,1507,11957,814
80406,9,-1.20,-1.03,-0.73,-0.054,-0.063,0.939,-2.54,-0.03,0.00,0.00,2.54,0.03,0.00,8.90,0.11,10.10,1.14,0.00,0.70,0.04,10.51,1100,1100,1100,1100,1036,1500,1507,11949,814
80419,9,3.85,-4.44,0.30,0.050,-0.055,0.916,-2.68,-0.10,0.00,0.00,2.68,0.10,0.00,9.38,0.35,5.53,4.79,0.00,-0.82,1.53,-9.52,1100,1100,1100,1100,1036,1500,1507,11965,814
80431,9,3.47,2.79,0.17,-0.104,-0.226,0.940,-2.95,-0.80,0.00,0.00,2.95,0.80,0.00,10.31,2.80,6.84,0.01,0.00,-0.68,-1.53,-4.34,1100,1100,1100,1100,1036,1501,1506,11957,814
80442,9,-2.01,0.80,0.86,-0.034,-0.013,0.904,-1.88,-0.69,0.00,0.00,1.88,0.69,0.00,6.57,2.41,8.58,1.61,0.00,2.22,-0.94,-10.31,1100,1100,1100,1100,1036,1500,1506,11965,814
80454,9,5.99,-5.95,-0.33,0.030,0.090,0.863,-1.66,-1.18,0.00,0.00,1.66,1.18,0.00,5.80,4.14,-0.20,10.09,0.00,-1.56,2.50,10.20,1100,1100,1100,1100,1036,1500,1507,11965,814
80466,9,0.77,-2.07,-0.85,-0.065,-0.001,0.875,-1.43,-1.29,0.00,0.00,1.43,1.29,0.00,5.00,4.52,4.23,6.59,0.00,0.74,0.25,14.93,1100,1100,1100,1100,1036,1500,1507,11965,814
80479,9,1.96,-7.38,-0.29,0.145,-0.037,0.781,-1.63,-0.17,0.00,0.00,1.63,0.17,0.00,5.70,0.60,3.74,7.98,0.00,0.71,2.23,0.58,1100,1100,1100,1100,1036,1500,1507,11953,814
80491,9,7.00,-1.29,0.94,-0.011,-0.226,0.900,-2.56,-0.24,0.00,0.00,2.56,0.24,0.00,8.97,0.86,1.97,2.15,0.00,-2.05,-0.50,-18.35,1100,1100,1100,1100,1036,1500,1507,11957,814
80502,9,0.53,0.05,1.20,-0.045,-0.092,0.890,-1.78,0.90,0.00,0.00,1.78,-0.90,0.00,6.25,-3.15,5.71,-3.20,0.00,0.91,-1.56,-17.49,1100,1100,1100,1100,1036,1500,1507,11953,814
80514,9,2.04,-4.19,-0.33,0.058,-0.015,0.979,-2.05,1.27,0.00,0.00,2.05,-1.27,0.00,7.17,-4.44,5.13,-0.25,0.00,0.42,0.73,12.80,1100,1100,1100,1100,1036,1500,1507,11961,814
80526,9,-1.40,0.63,-1.13,0.059,-0.149,0.876,-2.01,1.55,0.00,0.00,2.01,-1.55,0.00,7.03,-5.44,8.43,-6.07,0.00,1.49,-1.24,21.45,1100,1100,1100,1100,1036,1500,1507,11957,814
80539,9,-2.87,-0.11,-0.30,0.019,-0.003,0.834,-1.53,1.46,0.00,0.00,1.53,-1.46,0.00,5.34,-5.13,8.21,-5.02,0.00,2.23,-0.99,2.14,1100,1100,1100,1100,1036,1500,1507,11965,814
80551,9,5.09,-0.40,0.87,0.009,0.021,0.959,-1.70,0.82,0.00,0.00,1.70,-0.82,0.00,5.96,-2.89,0.87,-2.48,0.00,-1.77,-0.19,-18.22,1100,1100,1100,1100,1036,1500,1507,11949,814
80562,9,-1.40,0.34,0.63,-0.015,0.031,0.823,-1.30,1.22,0.00,0.00,1.30,-1.22,0.00,4.55,-4.26,5.95,-4.61,0.00,0.92,-0.73,-8.81,1100,1100,1100,1100,1036,1500,1507,11945,814
80574,9,-1.10,-5.52,-0.34,0.176,-0.007,0.792,-1.59,2.54,0.00,0.00,1.59,-2.54,0.00,5.58,-8.89,6.68,-3.37,0.00,0.93,1.82,9.58,1100,1100,1100,1100,1036,1500,1507,11945,814
80587,9,0.02,3.02,-0.70,0.041,-0.224,0.896,-2.15,2.41,0.00,0.00,2.15,-2.41,0.00,7.53,-8.43,7.52,-11.44,0.00,-0.10,-1.83,12.33,1100,1100,1100,1100,1036,1500,1507,11953,814
80599,9,-3.28,5.18,0.23,-0.014,-0.079,0.848,-1.56,2.42,0.00,0.00,1.56,-2.42,0.00,5.45,-8.48,8.73,-13.66,0.00,1.45,-2.66,-6.47,1100,1100,1100,1100,1036,1500,1507,11974,814
80611,9,2.86,0.10,0.88,0.002,0.051,1.007,-1.46,1.61,0.00,0.00,1.46,-1.61,0.00,5.10,-5.62,2.23,-5.72,0.00,-1.47,0.59,-13.17,1100,1100,1100,1100,1036,1500,1507,11978,814
80622,9,-3.81,4.61,0.43,-0.132,-0.063,0.964,-1.56,0.33,0.00,0.00,1.56,-0.33,0.00,5.47,-1.17,9.28,-5.78,0.00,1.44,-1.20,-2.71,1100,1100,1100,1100,1036,1500,1507,11974,814
80634,9,-3.92,2.46,-0.35,-0.012,-0.041,0.886,-1.63,-0.38,0.00,0.00,1.63,0.38,0.00,5.71,1.33,9.63,-1.13,0.00,1.75,-0.07,7.40,1100,1100,1100,1100,1036,1500,1507,11982,814
80646,9,1.08,4.29,-0.54,-0.054,-0.161,0.964,-2.46,-1.41,0.00,0.00,2.46,1.41,0.00,8.62,4.94,7.54,0.64,0.00,-0.98,-0.34,7.35,1100,1100,1100,1100,1036,1500,1507,11970,814
80659,9,-4.15,6.34,0.32,-0.084,-0.009,0.855,-1.60,-1.51,0.00,0.00,1.60,1.51,0.00,5.61,5.28,9.75,-1.07,0.00,1.34,-1.61,-6.41,1100,1100,1100,1100,1036,1500,1507,11974,814
80671,9,-0.71,-3.17,0.17,0.086,0.096,0.870,-1.32,-1.19,0.00,0.00,1.32,1.19,0.00,4.64,4.15,5.34,7.31,0.00,-0.24,2.91,-0.43,1100,1100,1100,1100,1036,1500,1507,11974,814
80682,9,-4.51,2.88,-0.18,0.006,-0.132,0.907,-1.66,-1.02,0.00,0.00,1.66,1.02,0.00,5.81,3.59,10.32,0.71,0.00,1.12,-0.02,6.29,1100,1100,1100,1100,1036,1500,1507,11965,814
80694,9,-5.17,1.68,-0.49,0.069,-0.077,0.797,-1.27,0.25,0.00,0.00,1.27,-0.25,0.00,4.43,-0.86,9.61,-2.54,0.00,1.58,-0.12,7.16,1100,1100,1100,1100,1036,1500,1507,11953,814
80706,9,3.50,2.21,0.14,-0.088,-0.191,1.082,-2.38,-0.55,0.00,0.00,2.38,0.55,0.00,8.33,1.91,4.83,-0.30,0.00,-2.45,-0.02,-6.73,1100,1100,1100,1100,1036,1500,1507,11961,814
80719,9,-3.00,3.19,0.87,-0.074,-0.075,0.844,-1.92,0.25,0.00,0.00,1.92,-0.25,0.00,6.72,-0.86,9.72,-4.05,0.00,0.78,-1.16,-16.76,1100,1100,1100,1100,1036,1500,1507,11982,814
80731,9,-0.81,-2.94,0.52,0.114,0.095,0.794,-1.92,0.15,0.00,0.00,1.92,-0.15,0.00,6.71,-0.51,7.51,2.43,0.00,0.45,1.57,-5.35,1100,1100,1100,1100,1036,1500,1507,11974,814
80742,9,1.31,-2.25,-0.93,0.027,-0.186,0.896,-2.97,0.06,0.00,0.00,2.97,-0.06,0.00,10.41,-0.20,9.10,2.06,0.00,-0.45,1.17,23.14,1100,1100,1100,1100,1036,1500,1507,11961,814
80754,9,0.75,-0.25,-0.13,0.036,-0.064,0.779,-2.71,0.38,0.00,0.00,2.71,-0.38,0.00,9.47,-1.33,8.73,-1.08,0.00,0.47,-0.62,2.58,1100,1100,1100,1100,1036,1500,1507,11961,814
80766,9,7.44,-6.69,0.48,0.009,-0.006,0.968,-2.61,0.63,0.00,0.00,2.61,-0.63,0.00,9.15,-2.19,1.72,4.51,0.00,-2.42,2.17,-11.17,1100,1100,1100,1100,1036,1500,1507,11965,814
80779,9,0.65,-0.77,1.61,-0.002,-0.017,0.911,-2.11,0.84,0.00,0.00,2.11,-0.84,0.00,7.38,-2.94,6.73,-2.17,0.00,0.62,-0.60,-25.31,1100,1100,1100,1100,1036,1500,1507,11965,814
80791,9,-2.39,-2.80,0.34,0.078,-0.109,0.874,-2.33,1.70,0.00,0.00,2.33,-1.70,0.00,8.17,-5.96,10.55,-3.15,0.00,2.31,-0.15,-1.13,1100,1100,1100,1100,1037,1500,1507,11957,814
80802,9,0.61,-0.33,-1.52,0.148,-0.132,0.847,-2.60,2.08,0.00,0.00,2.60,-2.08,0.00,9.09,-7.27,8.48,-6.94,0.00,0.42,-0.78,33.65,1100,1100,1100,1100,1037,1500,1507,11949,814
80814,9,-1.61,3.03,0.07,-0.016,-0.011,0.824,-1.88,2.37,0.00,0.00,1.88,-2.37,0.00,6.58,-8.28,8.19,-11.31,0.00,1.20,-2.61,-3.79,1100,1100,1100,1100,1036,1500,1507,11961,814
80826,9,1.73,-3.92,0.45,0.140,0.155,0.823,-1.32,2.98,0.00,0.00,1.32,-2.98,0.00,4.60,-10.42,2.87,-6.51,0.00,-0.56,1.19,-10.34,1100,1100,1100,1100,1036,1500,1507,11957,814
80839,9,-0.38,1.91,1.15,-0.030,-0.042,0.933,-1.94,2.08,0.00,0.00,1.94,-2.08,0.00,6.77,-7.29,7.15,-9.20,0.00,0.02,-0.90,-17.40,1100,1100,1100,1100,1036,1500,1507,11965,814
80851,9,-2.99,0.84,0.12,0.002,-0.099,0.844,-1.73,1.87,0.00,0.00,1.73,-1.87,0.00,6.06,-6.55,9.05,-7.39,0.00,1.10,-0.06,3.35,1100,1100,1100,1100,1036,1500,1507,11970,814
80862,9,-1.99,5.94,-1.10,-0.066,-0.209,1.000,-2.52,0.51,0.00,0.00,2.52,-0.51,0.00,8.81,-1.77,10.80,-7.72,0.00,0.44,-1.59,24.39,1100,1100,1100,1100,1036,1500,1507,11974,814
80874,9,0.41,1.40,0.43,-0.092,-0.188,0.936,-2.59,-0.14,0.00,0.00,2.59,0.14,0.00,9.06,0.48,8.66,-0.92,0.00,-0.45,0.22,-7.86,1100,1100,1100,1100,1036,1500,1507,11970,814
80886,9,2.21,-3.17,0.93,0.005,0.062,0.760,-2.25,-0.30,0.00,0.00,2.25,0.30,0.00,7.87,1.05,5.66,4.22,0.00,-0.49,1.65,-18.15,1100,1100,1100,1100,1036,1500,1507,11965,814
80899,9,-1.24,-2.27,-0.46,0.072,-0.055,0.921,-2.31,0.46,0.00,0.00,2.31,-0.46,0.00,8.08,-1.59,9.32,0.67,0.00,1.29,0.63,15.56,1100,1100,1100,1100,1036,1500,1507,11945,814
80911,9,2.10,-6.95,-0.05,0.132,-0.007,0.792,-2.15,1.44,0.00,0.00,2.15,-1.44,0.00,7.52,-5.03,5.42,1.92,0.00,-0.25,2.01,1.08,1100,1100,1100,1100,1036,1500,1507,11945,814
80922,9,4.39,-2.43,-0.28,0.038,0.017,0.875,-2.14,2.00,0.00,0.00,2.14,-2.00,0.00,7.50,-6.99,3.11,-4.55,0.00,-0.96,-0.43,1.35,1100,1100,1100,1100,1036,1500,1507,11945,814
80934,9,4.45,0.26,0.83,0.025,-0.023,0.900,-1.68,2.25,0.00,0.00,1.68,-2.25,0.00,5.88,-7.89,1.43,-8.15,0.00,-0.95,-1.25,-17.89,1100,1100,1100,1100,1036,1500,1507,11953,814
80946,9,1.37,-2.74,0.47,0.016,-0.015,0.812,-1.37,2.27,0.00,0.00,1.37,-2.27,0.00,4.78,-7.96,3.41,-5.22,0.00,0.39,0.43,-7.70,1100,1100,1100,1100,1036,1500,1507,11953,814
80959,9,-1.56,-0.64,-1.24,-0.005,-0.169,0.993,-1.92,1.77,0.00,0.00,1.92,-1.77,0.00,6.72,-6.20,8.28,-5.56,0.00,1.74,-0.49,29.70,1100,1100,1100,1100,1036,1500,1507,11940,814
80971,9,-0.06,2.78,0.02,-0.013,-0.181,0.881,-2.30,0.43,0.00,0.00,2.30,-0.43,0.00,8.07,-1.50,8.12,-4.27,0.00,0.85,-1.66,1.11,1100,1100,1100,1100,1036,1500,1507,11945,814
80982,9,0.96,1.49,0.01,-0.101,-0.032,0.965,-2.11,-0.36,0.00,0.00,2.11,0.36,0.00,7.38,1.25,6.41,-0.24,0.00,0.12,-0.59,-6.70,1100,1100,1100,1100,1036,1500,1507,11945,814
80995,9,-0.05,-0.63,0.76,0.040,0.104,0.898,-1.73,-0.06,0.00,0.00,1.73,0.06,0.00,6.04,0.21,6.08,0.84,0.00,0.32,0.41,-16.19,1100,1100,1100,1100,1036,1500,1507,11957,814
81006,9,-2.21,-2.42,0.74,0.057,0.045,0.750,-1.47,0.55,0.00,0.00,1.47,-0.55,0.00,5.15,-1.91,7.37,0.51,0.00,0.98,0.96,-12.42,1100,1100,1100,1100,1036,1500,1507,11961,814
81019,9,-2.74,0.11,-1.07,0.129,-0.067,0.857,-1.41,1.58,0.00,0.00,1.41,-1.58,0.00,4.93,-5.53,7.67,-5.64,0.00,1.09,-0.31,27.52,1100,1100,1100,1100,1036,1500,1507,11949,814
81031,9,0.75,2.98,-0.02,0.023,-0.132,0.868,-1.62,1.62,0.00,0.00,1.62,-1.62,0.00,5.69,-5.67,4.94,-8.65,0.00,-0.54,-1.62,2.74,1100,1100,1100,1100,1036,1500,1507,11949,814
81042,9,-0.80,0.18,-0.33,0.021,-0.054,0.884,-1.78,1.96,0.00,0.00,1.78,-1.96,0.00,6.22,-6.85,7.02,-7.03,0.00,-0.00,0.16,2.38,1100,1100,1100,1100,1036,1500,1507,11957,814
81054,9,-5.24,3.07,0.28,0.004,-0.021,0.992,-2.07,1.77,0.00,0.00,2.07,-1.77,0.00,7.25,-6.20,12.50,-9.26,0.00,1.94,-1.01,-5.88,1100,1100,1100,1100,1036,1500,1507,11965,814
81066,9,-2.61,2.28,1.20,-0.020,-0.163,0.881,-2.57,0.90,0.00,0.00,2.57,-0.90,0.00,8.99,-3.14,11.60,-5.42,0.00,0.51,-0.07,-20.89,1100,1100,1100,1100,1036,1500,1507,11965,814
81079,9,-0.92,4.02,0.17,-0.043,-0.099,0.942,-2.66,-0.10,0.00,0.00,2.66,0.10,0.00,9.33,0.34,10.25,-3.68,0.00,-0.08,-0.64,3.27,1100,1100,1100,1100,1036,1500,1507,11961,814
81091,9,2.03,0.77,0.08,-0.100,-0.016,0.902,-2.48,-0.54,0.00,0.00,2.48,0.54,0.00,8.69,1.88,6.66,1.11,0.00,-1.01,0.39,3.41,1100,1100,1100,1100,1036,1500,1507,11961,814
81102,9,1.32,-0.97,-0.45,-0.007,0.018,0.866,-2.21,-0.85,0.00,0.00,2.21,0.85,0.00,7.73,2.98,6.41,3.95,0.00,-0.58,1.08,8.08,1100,1100,1100,1100,1036,1500,1507,11965,814
81114,9,-1.38,-3.99,-1.03,0.043,-0.050,0.936,-2.43,-0.54,0.00,0.00,2.43,0.54,0.00,8.51,1.90,9.89,5.89,0.00,1.07,1.82,18.77,1100,1100,1100,1100,1036,1500,1507,11965,814
81126,9,1.54,-5.02,1.05,0.106,-0.146,0.726,-2.98,0.27,0.00,0.00,2.98,-0.27,0.00,10.42,-0.96,8.88,4.06,0.00,-0.02,1.74,-19.15,1100,1100,1100,1100,1036,1500,1507,11965,814
81139,9,1.44,-0.57,0.94,-0.028,-0.156,0.900,-3.15,0.50,0.00,0.00,3.15,-0.50,0.00,11.04,-1.76,9.60,-1.19,0.00,-0.04,-0.75,-13.15,1100,1100,1100,1100,1036,1500,1507,11953,814
81151,9,0.77,-1.44,0.24,-0.013,-0.076,1.001,-2.94,1.07,0.00,0.00,2.94,-1.07,0.00,10.31,-3.74,9.54,-2.31,0.00,0.42,-0.47,2.88,1100,1100,1100,1100,1036,1500,1507,11945,814
81162,9,0.64,-1.32,0.09,0.087,-0.037,0.833,-2.56,1.69,0.00,0.00,2.56,-1.69,0.00,8.94,-5.93,8.30,-4.61,0.00,0.40,-0.32,-0.78,1100,1100,1100,1100,1036,1500,1507,11945,814
81174,9,-1.95,0.56,-1.11,0.023,-0.040,0.907,-2.18,1.83,0.00,0.00,2.18,-1.83,0.00,7.64,-6.40,9.59,-6.95,0.00,1.61,-1.32,19.12,1100,1100,1100,1100,1036,1500,1507,11953,814
81186,9,2.33,-2.52,0.25,0.093,-0.006,0.813,-2.26,2.01,0.00,0.00,2.26,-2.01,0.00,7.92,-7.04,5.60,-4.51,0.00,-0.20,0.31,-3.72,1100,1100,1100,1100,1036,1500,1507,11953,814
81199,9,4.31,-1.61,0.34,-0.015,-0.001,0.834,-2.31,1.57,0.00,0.00,2.31,-1.57,0.00,8.10,-5.48,3.79,-3.86,0.00,-1.41,-0.04,-7.49,1100,1100,1100,1100,1036,1500,1507,11953,814
81211,9,0.77,-5.17,-0.17,0.090,0.046,0.896,-1.74,2.25,0.00,0.00,1.74,-2.25,0.00,6.07,-7.89,5.30,-2.72,0.00,0.35,1.41,4.94,1100,1100,1100,1100,1036,1500,1507,11953,814
81222,9,2.01,-1.78,0.80,0.049,-0.094,0.895,-1.98,2.41,0.00,0.00,1.98,-2.41,0.00,6.91,-8.43,4.90,-6.65,0.00,-0.18,-0.15,-17.50,1100,1100,1100,1100,1036,1500,1507,11957,814
81234,9,-2.82,1.98,-1.31,0.048,-0.219,0.863,-1.73,3.18,0.00,0.00,1.73,-3.18,0.00,6.07,-11.13,8.89,-13.10,0.00,1.84,-1.89,25.05,1100,1100,1100,1100,1036,1500,1507,11949,814
81246,9,-0.49,3.74,0.55,-0.010,-0.114,0.981,-1.67,2.36,0.00,0.00,1.67,-2.36,0.00,5.83,-8.27,6.33,-12.01,0.00,0.88,-2.21,-7.36,1100,1100,1100,1100,1036,1500,1507,11957,814
81259,9,2.33,3.60,0.99,-0.083,-0.027,0.884,-1.41,0.86,0.00,0.00,1.41,-0.86,0.00,4.93,-3.00,2.60,-6.60,0.00,-0.93,-1.13,-17.03,1100,1100,1100,1100,1036,1500,1507,11965,814
81271,9,-3.77,5.62,0.78,-0.090,0.122,0.976,-1.00,-0.80,0.00,0.00,1.00,0.80,0.00,3.50,2.81,7.27,-2.81,0.00,1.98,-1.41,-9.84,1100,1100,1100,1100,1036,1500,1507,11965,814
81282,9,1.63,-3.39,-0.19,-0.020,0.011,0.874,-1.71,-1.29,0.00,0.00,1.71,1.29,0.00,5.98,4.50,4.35,7.89,0.00,-0.51,2.84,5.78,1100,1100,1100,1100,1036,1500,1507,11965,814
81294,9,-0.45,4.26,-1.06,-0.091,-0.116,0.879,-1.89,-2.26,0.00,0.00,1.89,2.26,0.00,6.63,7.91,7.07,3.65,0.00,0.03,-0.75,21.43,1100,1100,1100,1100,1036,1500,1507,11978,814
81306,9,-1.01,-1.13,0.05,-0.020,-0.032,0.909,-1.42,-1.61,0.00,0.00,1.42,1.61,0.00,4.98,5.63,5.99,6.76,0.00,0.55,0.99,-0.88,1100,1100,1100,1100,1036,1500,1507,11965,814
81319,9,2.49,-3.12,0.99,0.071,-0.071,0.843,-1.75,-1.19,0.00,0.00,1.75,1.19,0.00,6.11,4.16,3.62,7.28,0.00,-1.41,2.19,-19.81,1100,1100,1100,1100,1036,1500,1507,11945,814
81331,9,-5.95,3.65,-0.47,0.006,-0.091,0.944,-1.32,-0.03,0.00,0.00,1.32,0.03,0.00,4.63,0.10,10.58,-3.56,0.00,2.40,-1.75,10.53,1100,1100,1100,1100,1036,1500,1507,11940,814
81342,9,-3.42,-1.48,-0.45,0.181,-0.074,0.820,-1.78,1.40,0.00,0.00,1.78,-1.40,0.00,6.23,-4.90,9.66,-3.42,0.00,1.48,0.62,8.74,1100,1100,1100,1100,1036,1500,1507,11945,814
81354,9,-0.56,6.85,-0.04,-0.125,-0.205,0.970,-2.30,0.10,0.00,0.00,2.30,-0.10,0.00,8.04,-0.36,8.59,-7.22,0.00,-0.50,-2.40,-1.66,1100,1100,1100,1100,1036,1500,1507,11953,818
81366,9,-2.62,3.03,0.62,-0.059,0.065,0.918,-1.45,0.43,0.00,0.00,1.45,-0.43,0.00,5.07,-1.49,7.69,-4.53,0.00,0.84,-0.81,-12.28,1100,1100,1100,1100,1036,1500,1507,11965,818
81379,9,4.99,-2.30,0.61,0.036,0.015,0.833,-2.05,-0.55,0.00,0.00,2.05,0.55,0.00,7.19,1.94,2.20,4.23,0.00,-2.39,2.12,-9.32,1100,1100,1100,1100,1036,1500,1507,11974,818
81391,9,-2.15,0.14,-0.68,-0.048,-0.100,0.855,-2.04,-0.21,0.00,0.00,2.04,0.21,0.00,7.14,0.75,9.29,0.61,0.00,1.08,0.16,17.45,1100,1100,1100,1100,1036,1500,1507,11982,818
81403,9,-0.53,-4.95,-0.61,0.163,0.010,0.790,-1.94,0.81,0.00,0.00,1.94,-0.81,0.00,6.79,-2.82,7.32,2.12,0.00,0.90,1.85,13.17,1100,1100,1100,1100,1036,1500,1507,11974,818
81414,9,6.09,-3.13,0.17,0.017,-0.163,0.942,-2.53,0.90,0.00,0.00,2.53,-0.90,0.00,8.85,-3.14,2.77,-0.01,0.00,-2.43,0.81,-6.27,1100,1100,1100,1100,1036,1500,1507,11965,818
81426,9,-1.46,1.33,0.82,0.009,-0.097,0.916,-1.71,2.22,0.00,0.00,1.71,-2.22,0.00,5.97,-7.76,7.43,-9.09,0.00,1.27,-1.76,-16.10,1100,1100,1100,1100,1036,1500,1507,11957,818
81439,9,0.67,-0.54,0.66,0.074,-0.031,0.937,-2.16,2.20,0.00,0.00,2.16,-2.20,0.00,7.55,-7.69,6.88,-7.16,0.00,0.56,-0.49,-8.09,1100,1100,1100,1100,1036,1500,1507,11961,818
81451,9,-2.29,3.97,-0.53,-0.032,-0.165,0.875,-2.25,1.63,0.00,0.00,2.25,-1.63,0.00,7.88,-5.69,10.17,-9.66,0.00,1.36,-1.91,15.74,1100,1100,1100,1100,1036,1500,1507,11965,814
81462,9,-3.71,4.42,-0.31,0.002,0.066,0.875,-1.48,0.86,0.00,0.00,1.48,-0.86,0.00,5.18,-3.02,8.89,-7.44,0.00,2.15,-1.76,6.60,1100,1100,1100,1100,1036,1500,1507,11970,814
81474,9,5.61,0.71,0.06,-0.048,0.048,0.965,-1.80,-0.32,0.00,0.00,1.80,0.32,0.00,6.31,1.11,0.69,0.40,0.00,-2.42,0.78,-4.21,1100,1100,1100,1100,1036,1500,1507,11961,814
81486,9,-0.92,1.04,0.72,-0.037,0.002,0.850,-1.22,-0.27,0.00,0.00,1.22,0.27,0.00,4.27,0.96,5.19,-0.08,0.00,0.30,0.44,-13.72,1100,1100,1100,1100,1036,1500,1507,11965,814
81499,9,-1.29,-1.08,-0.02,0.042,0.009,0.859,-1.34,-0.36,0.00,0.00,1.34,0.36,0.00,4.69,1.27,5.99,2.35,0.00,0.78,1.28,2.75,1100,1100,1100,1100,1036,1500,1507,11970,814
81511,9,3.33,2.39,-0.28,-0.070,-0.254,0.982,-2.19,-0.76,0.00,0.00,2.19,0.76,0.00,7.65,2.67,4.32,0.28,0.00,-1.55,-0.46,8.76,1100,1100,1100,1100,1036,1504,1503,11961,814
81522,9,-2.20,3.41,-0.28,-0.038,-0.069,0.840,-1.53,-0.59,0.00,0.00,1.53,0.59,0.00,5.35,2.05,7.56,-1.36,0.00,1.49,-1.30,5.49,1100,1100,1100,1100,1036,1500,1503,11957,814
81534,9,2.89,-2.56,-0.16,-0.020,-0.034,1.004,-2.06,-0.89,0.00,0.00,2.06,0.89,0.00,7.20,3.13,4.31,5.68,0.00,-0.59,1.54,2.15,1100,1100,1100,1100,1036,1500,1507,11961,814
81546,9,-1.58,3.24,1.20,-0.063,-0.076,0.948,-1.73,-1.65,0.00,0.00,1.73,1.65,0.00,6.06,5.77,7.64,2.53,0.00,1.14,-0.79,-21.05,1100,1100,1100,1100,1036,1500,1507,11953,814
81559,9,-0.77,1.01,0.69,-0.043,0.010,0.884,-1.59,-1.92,0.00,0.00,1.59,1.92,0.00,5.58,6.71,6.34,5.69,0.00,1.09,0.01,-10.14,1100,1100,1100,1100,1036,1500,1507,11961,814
81571,9,4.97,0.93,-0.43,-0.028,-0.084,0.975,-1.95,-2.34,0.00,0.00,1.95,2.34,0.00,6.82,8.17,1.85,7.24,0.00,-1.92,0.68,14.09,1100,1100,1100,1100,1036,1500,1507,11961,814
81582,9,-2.70,3.47,-0.23,-0.082,-0.008,0.861,-1.20,-1.90,0.00,0.00,1.20,1.90,0.00,4.21,6.65,6.91,3.19,0.00,1.59,-1.21,3.42,1100,1100,1100,1100,1036,1500,1507,11961,814
81594,9,-0.08,-5.52,-0.55,0.141,0.055,0.800,-1.07,-1.11,0.00,0.00,1.07,1.11,0.00,3.75,3.87,3.84,9.39,0.00,0.53,2.89,9.08,1100,1100,1100,1100,1036,1500,1507,11965,814
81607,9,-0.13,0.12,0.32,0.023,-0.194,0.942,-1.87,-0.61,0.00,0.00,1.87,0.61,0.00,6.54,2.13,6.67,2.02,0.00,0.22,-0.07,-5.84,1100,1100,1100,1100,1036,1500,1507,11957,814
81619,9,-3.00,-0.48,-0.22,0.142,-0.041,0.711,-1.57,1.32,0.00,0.00,1.57,-1.32,0.00,5.48,-4.60,8.49,-4.12,0.00,1.61,-0.33,7.23,1100,1100,1100,1100,1036,1500,1507,11961,814
81631,9,3.40,0.16,0.36,-0.012,-0.065,1.027,-2.29,1.11,0.00,0.00,2.29,-1.11,0.00,8.01,-3.87,4.61,-4.03,0.00,-1.55,-0.31,-6.05,1100,1100,1100,1100,1036,1500,1507,11961,814
81642,9,-3.11,2.58,0.52,0.007,-0.086,0.878,-1.74,2.20,0.00,0.00,1.74,-2.20,0.00,6.08,-7.71,9.19,-10.28,0.00,1.05,-1.11,-11.39,1100,1100,1100,1100,1036,1500,1507,11965,814
81654,9,-3.03,1.07,0.05,0.032,-0.064,0.931,-2.00,2.24,0.00,0.00,2.00,-2.24,0.00,6.99,-7.83,10.03,-8.91,0.00,1.37,-0.69,-1.91,1100,1100,1100,1100,1036,1500,1507,11965,814
81666,9,0.56,-1.93,-0.86,0.110,-0.138,0.814,-2.54,2.56,0.00,0.00,2.54,-2.56,0.00,8.90,-8.97,8.34,-7.04,0.00,-0.17,0.86,18.85,1100,1100,1100,1100,1036,1500,1507,11957,814
81679,9,-2.11,4.76,-0.13,0.038,0.011,0.728,-2.16,2.04,0.00,0.00,2.16,-2.04,0.00,7.56,-7.13,9.67,-11.89,0.00,1.39,-2.74,4.19,1100,1100,1100,1100,1036,1500,1507,11953,814
81691,9,3.45,-2.94,0.03,-0.002,0.098,0.973,-2.16,1.37,0.00,0.00,2.16,-1.37,0.00,7.56,-4.78,4.10,-1.84,0.00,-1.25,1.27,-2.06,1100,1100,1100,1100,1036,1500,1507,11949,814
81702,9,3.54,1.84,0.37,-0.069,-0.063,1.026,-2.13,0.16,0.00,0.00,2.13,-0.16,0.00,7.47,-0.56,3.92,-2.40,0.00,-1.27,-0.38,-9.67,1100,1100,1100,1100,1036,1500,1507,11953,814
81714,9,-1.06,-0.49,0.39,-0.012,-0.046,0.741,-1.77,0.18,0.00,0.00,1.77,-0.18,0.00,6.19,-0.61,7.26,-0.12,0.00,1.06,0.60,-10.15,1100,1100,1100,1100,1037,1500,1507,11957,814
81726,9,1.91,-0.61,-0.31,-0.055,-0.225,0.991,-2.67,-0.68,0.00,0.00,2.67,0.68,0.00,9.34,2.37,7.43,2.99,0.00,-0.11,0.63,10.21,1100,1100,1100,1100,1037,1500,1507,11949,814
81739,9,2.40,-0.59,0.24,-0.010,-0.115,0.944,-2.18,-0.05,0.00,0.00,2.18,0.05,0.00,7.63,0.16,5.23,0.75,0.00,-0.64,0.03,-0.86,1100,1100,1100,1100,1037,1500,1507,11949,814
81751,9,0.36,-2.71,-0.76,0.062,-0.003,0.902,-1.74,0.84,0.00,0.00,1.74,-0.84,0.00,6.08,-2.94,5.71,-0.23,0.00,0.59,0.51,11.40,1100,1100,1100,1100,1038,1500,1507,11949,814
81762,9,-1.60,-0.04,-1.13,0.132,-0.063,0.931,-1.84,1.92,0.00,0.00,1.84,-1.92,0.00,6.44,-6.72,8.03,-6.67,0.00,1.45,-0.60,17.77,1100,1100,1100,1100,1038,1500,1507,11949,814
81774,9,-2.68,4.63,1.36,-0.051,-0.063,0.813,-2.00,1.02,0.00,0.00,2.00,-1.02,0.00,6.99,-3.58,9.67,-8.21,0.00,1.69,-2.47,-27.24,1100,1100,1100,1100,1038,1500,1507,11949,814
81786,9,-1.12,2.10,1.09,-0.080,0.009,0.951,-1.48,0.13,0.00,0.00,1.48,-0.13,0.00,5.19,-0.46,6.30,-2.56,0.00,0.55,-0.35,-15.39,1100,1100,1100,1100,1040,1500,1507,11953,814
81799,9,-0.61,4.09,0.31,-0.067,0.068,1.010,-1.14,-1.13,0.00,0.00,1.14,1.13,0.00,3.99,3.95,4.60,-0.14,0.00,0.03,-0.68,2.03,1100,1100,1100,1100,1040,1500,1507,11953,814
81811,9,-2.02,-1.24,-0.57,-0.012,-0.068,0.785,-1.50,-1.00,0.00,0.00,1.50,1.00,0.00,5.24,3.50,7.26,4.73,0.00,0.51,1.90,10.29,1100,1100,1100,1100,1040,1500,1507,11949,814
81822,9,-1.96,3.36,-0.90,-0.009,-0.090,0.912,-1.70,-1.42,0.00,0.00,1.70,1.42,0.00,5.94,4.97,7.90,1.62,0.00,0.42,-0.43,15.06,1100,1100,1100,1100,1040,1500,1507,11949,814
81834,9,3.07,-1.65,1.16,-0.011,-0.111,0.841,-2.26,-1.37,0.00,0.00,2.26,1.37,0.00,7.92,4.78,4.85,6.43,0.00,-1.54,1.19,-20.79,1100,1100,1100,1100,1046,1500,1507,11957,814
81846,9,1.89,-2.91,0.70,0.048,-0.062,0.810,-2.38,-0.49,0.00,0.00,2.38,0.49,0.00,8.32,1.71,6.43,4.63,0.00,-0.49,1.23,-5.98,1100,1100,1100,1100,1046,1500,1507,11953,814
81859,9,-1.29,0.25,-0.60,-0.034,-0.061,1.053,-2.46,-0.46,0.00,0.00,2.46,0.46,0.00,8.60,1.60,9.90,1.35,0.00,1.31,-0.39,18.13,1100,1100,1100,1100,1046,1500,1507,11953,814
81871,9,0.53,1.10,0.12,-0.033,-0.076,0.963,-2.11,-0.84,0.00,0.00,2.11,0.84,0.00,7.37,2.96,6.84,1.86,0.00,0.27,-0.30,-5.39,1100,1100,1100,1100,1047,1500,1507,11949,814
81882,9,-0.14,4.33,-0.02,-0.057,-0.026,0.983,-1.48,-1.01,0.00,0.00,1.48,1.01,0.00,5.19,3.54,5.33,-0.80,0.00,0.55,-1.62,-5.70,1100,1100,1100,1100,1047,1500,1507,11953,814
81894,9,0.35,0.87,0.51,0.031,0.009,0.878,-1.43,-0.77,0.00,0.00,1.43,0.77,0.00,4.99,2.68,4.64,1.82,0.00,0.44,0.08,-6.74,1100,1100,1100,1100,1047,1500,1507,11953,814
81906,9,0.27,-0.61,0.68,0.003,-0.000,0.754,-1.30,-0.64,0.00,0.00,1.30,0.64,0.00,4.53,2.24,4.27,2.85,0.00,0.19,0.50,-6.94,1100,1100,1100,1100,1052,1500,1507,11949,814
81919,9,-1.07,-0.44,-0.77,-0.007,0.027,0.888,-1.27,-1.04,0.00,0.00,1.27,1.04,0.00,4.45,3.63,5.52,4.07,0.00,0.79,0.43,21.12,1100,1100,1100,1100,1052,1500,1507,11957,814
81931,9,3.62,-1.76,0.33,-0.001,-0.058,0.940,-1.76,-1.16,0.00,0.00,1.76,1.16,0.00,6.18,4.05,2.56,5.82,0.00,-1.36,1.28,-7.15,1100,1100,1100,1100,1052,1500,1507,11965,814
81942,9,0.57,2.78,-0.28,-0.087,-0.137,0.916,-1.96,-1.75,0.00,0.00,1.96,1.75,0.00,6.85,6.13,6.29,3.35,0.00,-0.20,-0.49,1.29,1100,1100,1100,1100,1052,1500,1507,11961,814
81954,9,-2.43,-0.05,0.17,-0.031,-0.111,0.973,-1.88,-1.43,0.00,0.00,1.88,1.43,0.00,6.56,5.02,8.99,5.07,0.00,1.41,0.55,-0.22,1100,1100,1100,1100,1067,1500,1507,11940,814
81966,9,0.93,-0.29,0.84,0.041,-0.126,0.858,-2.06,-1.24,0.00,0.00,2.06,1.24,0.00,7.20,4.35,6.28,4.64,0.00,-0.23,0.58,-11.80,1100,1100,1100,1100,1068,1500,1507,11949,814
81979,9,-2.88,-0.37,-1.46,0.071,-0.094,0.881,-1.73,0.14,0.00,0.00,1.73,-0.14,0.00,6.06,-0.50,8.94,-0.13,0.00,1.58,-0.33,29.79,1100,1100,1100,1100,1068,1500,1507,11949,814
81991,9,0.82,-4.61,-0.27,0.164,0.054,0.863,-1.60,1.79,0.00,0.00,1.60,-1.79,0.00,5.60,-6.28,4.78,-1.67,0.00,0.15,0.88,3.05,1100,1100,1100,1100,1077,1500,1507,11965,814
82002,9,2.27,0.20,0.62,0.008,-0.043,0.861,-1.97,2.01,0.00,0.00,1.97,-2.01,0.00,6.90,-7.04,4.63,-7.24,0.00,-0.75,-1.21,-17.54,1100,1100,1100,1100,1077,1500,1507,11965,814
82015,9,-2.29,-0.11,1.21,0.067,0.045,0.825,-1.38,2.49,0.00,0.00,1.38,-2.49,0.00,4.84,-8.71,7.13,-8.60,0.00,1.54,-0.85,-19.38,1100,1100,1100,1100,1078,1500,1507,11970,814
82026,9,3.83,-0.46,0.51,-0.037,-0.007,0.904,-1.87,1.06,0.00,0.00,1.87,-1.06,0.00,6.54,-3.70,2.70,-3.25,0.00,-1.26,0.13,-3.21,1100,1100,1100,1100,1093,1500,1507,11949,814
82039,9,0.56,3.83,-1.38,-0.137,-0.103,0.893,-1.85,-0.36,0.00,0.00,1.85,0.36,0.00,6.47,1.26,5.92,-2.58,0.00,-0.03,-1.02,29.74,1100,1100,1100,1100,1093,1500,1507,11945,814
82051,9,0.27,-1.81,-0.59,0.034,-0.026,0.892,-1.44,-0.68,0.00,0.00,1.44,0.68,0.00,5.05,2.39,4.78,4.20,0.00,0.43,1.31,8.04,1100,1100,1100,1100,1093,1500,1507,11957,814
82062,9,3.14,-3.93,0.57,0.036,-0.167,0.902,-2.29,-0.32,0.00,0.00,2.29,0.32,0.00,8.02,1.11,4.88,5.03,0.00,-1.20,1.95,-14.84,1100,1100,1100,1100,1093,1500,1507,11953,814
82074,9,-5.01,2.02,0.43,0.050,-0.164,0.879,-1.63,1.18,0.00,0.00,1.63,-1.18,0.00,5.71,-4.14,10.72,-6.17,0.00,2.41,-1.64,-6.36,1100,1100,1100,1100,1100,1500,1507,11965,814
82086,9,-1.44,-1.61,-0.09,0.133,0.038,0.843,-1.74,2.18,0.00,0.00,1.74,-2.18,0.00,6.10,-7.63,7.54,-6.03,0.00,0.85,0.04,6.24,1100,1100,1100,1100,1100,1500,1507,11961,814
82099,9,0.17,3.15,-0.10,-0.051,-0.120,0.975,-2.42,2.16,0.00,0.00,2.42,-2.16,0.00,8.46,-7.56,8.30,-10.71,0.00,-0.41,-1.60,0.73,1100,1100,1100,1100,1100,1500,1507,11970,814
82111,9,-5.26,4.17,-0.03,0.011,0.060,0.849,-1.49,1.99,0.00,0.00,1.49,-1.99,0.00,5.23,-6.95,10.49,-11.13,0.00,2.33,-1.93,-4.06,1100,1100,1100,1100,1102,1500,1507,11978,814
82122,9,2.18,-1.33,0.33,0.019,-0.037,0.864,-2.14,0.46,0.00,0.00,2.14,-0.46,0.00,7.49,-1.62,5.31,-0.28,0.00,-0.89,1.34,-7.12,1100,1100,1100,1100,1102,1500,1507,11965,814
82134,9,0.59,2.36,0.56,-0.040,-0.130,0.852,-2.14,-0.24,0.00,0.00,2.14,0.24,0.00,7.50,0.86,6.91,-1.51,0.00,-0.34,-0.43,-4.59,1100,1100,1100,1100,1102,1500,1507,11949,814
82146,9,0.80,-2.78,0.14,0.023,0.110,0.870,-1.43,0.31,0.00,0.00,1.43,-0.31,0.00,5.01,-1.09,4.21,1.68,0.00,0.20,0.81,4.88,1100,1100,1100,1100,1102,1500,1507,11949,814
82159,9,5.65,-4.50,-0.54,0.023,-0.039,0.891,-2.12,-0.09,0.00,0.00,2.12,0.09,0.00,7.43,0.30,1.78,4.80,0.00,-2.01,2.03,11.36,1100,1100,1100,1100,1102,1500,1507,11965,814
82171,9,-3.03,2.63,-0.89,-0.014,-0.125,0.881,-1.50,0.35,0.00,0.00,1.50,-0.35,0.00,5.25,-1.24,8.28,-3.87,0.00,1.78,-1.50,12.11,1100,1100,1100,1100,1102,1500,1507,11957,814
82182,9,-0.38,-2.49,0.49,0.097,-0.023,0.889,-1.36,0.80,0.00,0.00,1.36,-0.80,0.00,4.77,-2.82,5.15,-0.32,0.00,0.81,0.99,-10.89,1100,1100,1100,1100,1102,1500,1507,11961,814
82194,9,3.61,2.31,1.67,-0.073,-0.164,0.998,-1.52,0.10,0.00,0.00,1.52,-0.10,0.00,5.33,-0.37,1.72,-2.67,0.00,-1.60,-0.67,-27.45,1100,1100,1100,1100,1102,1500,1507,11965,814
82206,9,-4.97,4.50,-0.08,-0.021,-0.033,0.894,-0.85,0.85,0.00,0.00,0.85,-0.85,0.00,2.96,-2.97,7.93,-7.47,0.00,2.42,-2.06,6.97,1100,1100,1100,1100,1113,1500,1507,11970,814
82219,9,-0.44,0.16,-1.10,0.026,-0.026,0.918,-1.59,0.52,0.00,0.00,1.59,-0.52,0.00,5.56,-1.80,6.00,-1.97,0.00,0.40,0.22,20.79,1100,1100,1100,1100,1113,1500,1507,11965,814
82231,9,-1.19,4.15,-0.09,-0.053,-0.167,0.910,-2.19,0.31,0.00,0.00,2.19,-0.31,0.00,7.66,-1.08,8.85,-5.23,0.00,0.22,-1.30,-3.35,1100,1100,1100,1100,1113,1500,1507,11982,814
82242,9,-4.65,0.79,0.74,0.041,0.046,0.845,-1.65,0.44,0.00,0.00,1.65,-0.44,0.00,5.76,-1.54,10.41,-2.33,0.00,2.21,-0.14,-12.43,1100,1100,1100,1100,1113,1500,1507,11974,814
82254,9,4.56,-4.83,0.46,0.101,0.014,0.783,-2.16,0.49,0.00,0.00,2.16,-0.49,0.00,7.54,-1.70,2.99,3.13,0.00,-1.96,2.55,-2.60,1100,1100,1100,1100,1124,1500,1507,11974,814
82266,9,-0.96,-1.04,-0.54,0.010,-0.077,0.822,-1.98,1.07,0.00,0.00,1.98,-1.07,0.00,6.93,-3.75,7.89,-2.71,0.00,0.54,-0.05,14.06,1100,1100,1100,1100,1128,1500,1507,11978,814
82279,9,1.32,-5.88,-0.62,0.118,-0.014,0.823,-2.05,1.75,0.00,0.00,2.05,-1.75,0.00,7.17,-6.12,5.86,-0.24,0.00,0.10,1.56,9.39,1100,1100,1100,1100,1128,1500,1507,11965,814
82291,9,7.22,-3.06,0.42,-0.017,-0.172,0.942,-2.71,1.68,0.00,0.00,2.71,-1.68,0.00,9.49,-5.88,2.27,-2.81,0.00,-2.70,0.35,-12.04,1100,1100,1100,1100,1128,1500,1507,11961,814
82302,9,-1.53,1.40,1.02,-0.014,-0.071,0.861,-2.09,2.19,0.00,0.00,2.09,-2.19,0.00,7.33,-7.66,8.87,-9.06,0.00,1.48,-1.90,-16.38,1100,1100,1100,1100,1128,1500,1507,11961,814
82314,9,-0.12,-3.30,0.49,0.098,-0.066,0.953,-2.48,3.12,0.00,0.00,2.48,-3.12,0.00,8.69,-10.92,8.81,-7.62,0.00,1.01,0.29,-2.24,1100,1100,1100,1100,1132,1500,1507,11961,814
82327,9,-1.90,3.91,-0.91,0.072,-0.238,0.883,-2.63,2.71,0.00,0.00,2.63,-2.71,0.00,9.21,-9.47,11.11,-13.39,0.00,1.11,-2.37,22.40,1100,1100,1100,1100,1135,1500,1507,11961,814
82339,9,-4.89,2.54,-0.92,0.006,-0.022,0.878,-1.73,2.83,0.00,0.00,1.73,-2.83,0.00,6.05,-9.89,10.94,-12.44,0.00,2.43,-1.82,14.59,1100,1100,1100,1100,1135,1500,1507,11945,814
82351,9,3.24,-1.25,-0.08,0.076,0.130,0.932,-1.44,2.32,0.00,0.00,1.44,-2.32,0.00,5.05,-8.13,1.81,-6.88,0.00,-1.54,0.69,-2.94,1100,1100,1100,1100,1136,1500,1507,11932,814
82362,9,-3.00,1.56,1.37,-0.031,-0.030,0.815,-1.66,1.90,0.00,0.00,1.66,-1.90,0.00,5.81,-6.66,8.81,-8.22,0.00,1.12,-0.70,-26.74,1100,1100,1100,1100,1136,1500,1507,11928,814
82374,9,-1.95,-0.65,0.57,0.043,-0.095,0.845,-2.28,1.20,0.00,0.00,2.28,-1.20,0.00,7.99,-4.21,9.94,-3.56,0.00,1.21,0.46,-5.92,1100,1100,1100,1100,1139,1500,1507,11936,814
82386,9,6.04,2.32,-0.15,-0.153,-0.202,0.982,-3.20,-0.65,0.00,0.00,3.20,0.65,0.00,11.22,2.29,5.18,-0.04,0.00,-2.53,-0.45,8.37,1100,1100,1100,1100,1141,1500,1507,11940,814
82399,9,-0.32,3.71,-0.45,-0.157,0.001,0.891,-2.17,-1.24,0.00,0.00,2.17,1.24,0.00,7.60,4.33,7.92,0.62,0.00,0.55,-1.29,9.12,1100,1100,1100,1100,1141,1500,1507,11945,814
82411,9,1.60,-6.19,-0.20,0.150,0.111,0.883,-1.70,-0.61,0.00,0.00,1.70,0.61,0.00,5.95,2.14,4.35,8.33,0.00,-0.12,3.18,3.08,1100,1100,1100,1100,1143,1500,1507,11936,814
82422,9,2.15,-1.52,-0.04,0.025,-0.208,0.946,-2.18,-0.32,0.00,0.00,2.18,0.32,0.00,7.61,1.11,5.47,2.63,0.00,-0.46,0.52,0.42,1100,1100,1100,1100,1143,1500,1507,11936,814
82434,9,-0.68,-3.59,0.30,0.080,-0.063,0.748,-1.32,1.17,0.00,0.00,1.32,-1.17,0.00,4.64,-4.11,5.32,-0.52,0.00,1.30,0.51,-3.21,1100,1100,1100,1100,1147,1500,1507,11940,814
82446,9,5.61,-4.00,0.76,-0.048,-0.095,1.018,-2.39,0.63,0.00,0.00,2.39,-0.63,0.00,8.35,-2.22,2.74,1.79,0.00,-1.50,0.53,-10.47,1100,1100,1100,1100,1148,1500,1507,11957,814
82459,9,-1.29,-1.20,0.59,0.015,-0.148,0.854,-2.12,1.31,0.00,0.00,2.12,-1.31,0.00,7.42,-4.60,8.71,-3.40,0.00,1.45,-0.65,-7.08,1100,1100,1100,1100,1148,1500,1507,11961,814
82471,9,-0.64,0.88,0.20,0.065,0.028,0.895,-1.86,1.25,0.00,0.00,1.86,-1.25,0.00,6.50,-4.39,7.14,-5.27,0.00,1.35,-1.75,-2.74,1100,1100,1100,1100,1150,1500,1507,11953,814
82482,9,2.24,-2.37,-0.95,0.078,-0.040,0.933,-2.00,1.90,0.00,0.00,2.00,-1.90,0.00,7.00,-6.64,4.76,-4.27,0.00,-0.43,0.21,21.18,1100,1100,1100,1100,1150,1500,1507,11965,814
82494,9,-2.71,3.04,0.59,0.030,0.030,0.797,-1.19,2.15,0.00,0.00,1.19,-2.15,0.00,4.18,-7.51,6.89,-10.55,0.00,1.71,-2.34,-8.94,1100,1100,1100,1100,1150,1500,1507,11949,814
82506,9,2.48,-4.73,0.25,0.065,0.034,0.821,-1.47,2.08,0.00,0.00,1.47,-2.08,0.00,5.16,-7.29,2.69,-2.56,0.00,-0.72,1.62,-1.99,1100,1100,1100,1100,1152,1500,1507,11928,814
82519,9,2.73,0.57,0.61,-0.063,-0.113,0.973,-1.90,0.84,0.00,0.00,1.90,-0.84,0.00,6.64,-2.94,3.92,-3.51,0.00,-1.03,-0.28,-6.55,1100,1100,1100,1100,1152,1500,1507,11915,814
82531,9,-1.14,-2.17,0.53,0.101,0.019,0.746,-1.80,1.41,0.00,0.00,1.80,-1.41,0.00,6.29,-4.94,7.43,-2.77,0.00,0.83,0.82,-10.52,1100,1100,1100,1100,1160,1500,1507,11886,814
82542,9,2.08,-2.95,-0.64,-0.045,-0.147,0.977,-2.31,1.03,0.00,0.00,2.31,-1.03,0.00,8.09,-3.62,6.01,-0.67,0.00,-0.67,1.04,14.36,1100,1100,1100,1100,1160,1500,1507,11911,814
82554,9,3.27,0.63,1.11,0.011,-0.039,0.923,-2.05,1.37,0.00,0.00,2.05,-1.37,0.00,7.17,-4.79,3.90,-5.42,0.00,-1.37,-0.51,-17.42,1169,1147,1147,1172,1159,1500,1507,11920,815
82566,9,-0.57,-0.55,0.45,-0.060,-0.008,0.787,-1.39,0.78,0.00,0.00,1.39,-0.78,0.00,4.88,-2.73,5.44,-2.18,0.00,0.58,0.12,-6.02,1169,1147,1147,1172,1174,1500,1507,11907,815
82579,9,3.08,-0.33,-0.34,-0.050,-0.037,0.950,-1.54,0.01,0.00,0.00,1.54,-0.01,0.00,5.40,-0.03,2.32,0.30,0.00,-1.09,0.37,9.00,1169,1147,1147,1172,1174,1500,1507,11870,815
82591,9,3.02,-1.39,0.21,0.073,0.056,0.935,-1.29,0.79,0.00,0.00,1.29,-0.79,0.00,4.52,-2.78,1.50,-1.39,0.00,-1.20,0.79,-3.70,1169,1147,1147,1172,1176,1500,1507,11853,815
82602,9,-0.73,-2.65,0.49,0.021,-0.044,0.715,-1.41,2.01,0.00,0.00,1.41,-2.01,0.00,4.95,-7.03,5.68,-4.39,0.00,0.73,0.46,-13.69,1169,1147,1147,1172,1176,1500,1507,11828,815
82614,9,1.40,-0.89,0.82,-0.136,-0.033,0.953,-1.61,0.76,0.00,0.00,1.61,-0.76,0.00,5.62,-2.66,4.23,-1.77,0.00,-0.20,-0.35,-20.45,1169,1147,1147,1172,1176,1500,1507,11824,815
82626,9,0.69,1.16,0.49,-0.052,0.057,1.083,-1.95,-0.25,0.00,0.00,1.95,0.25,0.00,6.81,0.87,6.13,-0.29,0.00,0.21,-0.80,-9.06,1169,1147,1147,1172,1178,1500,1507,11824,815
82639,9,2.37,-0.57,-0.93,-0.020,-0.122,0.865,-2.67,-1.02,0.00,0.00,2.67,1.02,0.00,9.35,3.57,6.98,4.13,0.00,-0.29,0.39,23.12,1169,1147,1147,1172,1178,1500,1507,11824,815
82651,9,4.19,-3.95,-0.44,0.147,-0.078,0.733,-2.44,-0.34,0.00,0.00,2.44,0.34,0.00,8.54,1.18,4.34,5.13,0.00,-1.07,1.77,10.57,1173,1183,1183,1171,1178,1500,1507,11824,815
82662,9,0.50,1.07,0.54,-0.028,-0.004,0.972,-2.42,0.07,0.00,0.00,2.42,-0.07,0.00,8.47,-0.25,7.97,-1.32,0.00,0.98,-1.48,-12.17,1173,1183,1183,1171,1178,1500,1507,11849,815
82674,9,4.13,-3.07,0.87,-0.108,-0.015,1.093,-2.83,0.07,0.00,0.00,2.83,-0.07,0.00,9.89,-0.26,5.76,2.81,0.00,-0.21,-0.24,-16.37,1173,1183,1183,1171,1185,1500,1508,11849,815
82686,9,8.01,-9.94,0.71,-0.130,-0.194,0.925,-2.87,-0.47,0.00,0.00,2.87,0.47,0.00,10.05,1.64,2.04,11.58,0.00,-1.97,3.48,-8.30,1173,1183,1183,1171,1185,1500,1507,11845,815
82699,9,1.60,2.28,1.70,-0.005,-0.055,0.861,-2.22,-1.47,0.00,0.00,2.22,1.47,0.00,7.78,5.13,6.18,2.85,0.00,0.67,-1.57,-25.82,1173,1183,1183,1171,1185,1500,1507,11836,815
82711,9,-3.94,1.03,-0.28,0.044,-0.006,0.749,-1.82,-1.98,0.00,0.00,1.82,1.98,0.00,6.37,6.94,10.32,5.91,0.00,3.16,-0.86,8.46,1173,1183,1183,1171,1190,1500,1507,11824,815
82722,9,2.17,-4.93,-1.41,0.160,0.069,0.794,-1.11,-0.91,0.00,0.00,1.11,0.91,0.00,3.88,3.19,1.71,8.12,0.00,-0.01,1.60,25.52,1173,1183,1183,1171,1190,1500,1507,11828,815
82735,9,5.08,-4.83,-0.77,0.139,0.020,0.932,-0.72,0.79,0.00,0.00,0.72,-0.79,0.00,2.51,-2.76,-2.56,2.07,0.00,-1.57,1.21,11.90,1173,1183,1183,1171,1190,1500,1507,11820,815
82746,9,3.19,6.02,0.38,-0.069,-0.082,1.024,-0.67,1.38,0.00,0.00,0.67,-1.38,0.00,2.33,-4.83,-0.86,-10.85,0.00,-0.90,-3.70,-9.54,1173,1183,1183,1171,1191,1500,1507,11811,815
82759,9,-0.34,3.38,1.42,-0.137,-0.123,0.856,-0.75,0.24,0.00,0.00,0.75,-0.24,0.00,2.64,-0.84,2.97,-4.22,0.00,0.35,-1.55,-29.49,1185,1196,1195,1186,1191,1500,1507,11824,817
82771,9,-4.68,1.56,0.06,-0.143,-0.079,0.845,-0.47,-1.75,0.00,0.00,0.47,1.75,0.00,1.64,6.11,6.32,4.54,0.00,2.11,0.30,-2.24,1185,1196,1195,1186,1191,1500,1507,11828,817
82782,9,-5.83,2.73,0.89,-0.040,0.100,0.926,-0.54,-2.15,0.00,0.00,0.54,2.15,0.00,1.89,7.52,7.72,4.79,0.00,2.53,0.11,-10.32,1185,1196,1195,1186,1191,1500,1507,11811,817
82794,9,0.61,-0.45,1.42,0.007,-0.041,1.001,-1.61,-1.22,0.00,0.00,1.61,1.22,0.00,5.62,4.27,5.01,4.72,0.00,-0.66,1.52,-12.71,1185,1196,1195,1186,1191,1500,1507,11799,817
82806,9,1.67,4.99,-0.48,0.076,-0.110,0.897,-2.09,-0.79,0.00,0.00,2.09,0.79,0.00,7.32,2.76,5.65,-2.23,0.00,-1.76,-0.67,25.36,1185,1196,1195,1186,1192,1500,1507,11786,817
82819,9,-5.54,3.54,-0.45,0.265,-0.247,0.756,-2.43,0.96,0.00,0.00,2.43,-0.96,0.00,8.49,-3.36,14.03,-6.90,0.00,1.37,-0.94,12.43,1185,1196,1195,1186,1192,1500,1507,11795,817
82831,9,-9.32,-0.44,-1.71,0.027,-0.124,0.841,-1.60,1.54,0.00,0.00,1.60,-1.54,0.00,5.61,-5.39,14.93,-4.95,0.00,3.15,0.65,19.36,1185,1196,1195,1186,1192,1500,1507,11803,817
82842,9,-7.88,-0.54,-4.65,0.055,-0.116,0.653,-2.12,1.93,0.00,0.00,2.12,-1.93,0.00,7.42,-6.76,15.30,-6.22,0.00,2.62,1.56,56.67,1185,1196,1195,1186,1192,1500,1507,11799,817
82854,9,-5.76,9.35,-4.75,-0.347,0.062,1.147,-2.14,0.31,0.00,0.00,2.14,-0.31,0.00,7.51,-1.10,13.27,-10.45,0.00,1.30,-2.30,41.28,1146,1237,1232,1152,1192,1500,1507,11791,842
82866,9,-4.52,2.56,-5.16,-0.025,-0.054,0.949,-2.47,3.02,0.00,0.00,2.47,-3.02,0.00,8.66,-10.58,13.18,-13.14,0.00,0.66,0.52,35.61,1146,1237,1232,1152,1192,1500,1507,11778,842
82879,9,-4.35,13.92,-4.73,0.316,0.090,0.864,-2.04,2.78,0.00,0.00,2.04,-2.78,0.00,7.15,-9.73,11.50,-23.65,0.00,0.39,-4.44,22.12,1146,1237,1232,1152,1192,1500,1507,11791,842
82891,9,4.04,2.44,-4.07,0.275,-0.074,0.823,-2.41,3.36,0.00,0.00,2.41,-3.36,0.00,8.43,-11.76,4.39,-14.20,0.00,-3.90,-0.29,9.83,1146,1237,1232,1152,1192,1500,1507,11799,842
82902,9,-2.95,-7.98,-4.62,0.031,-0.349,0.656,-3.90,2.27,0.00,0.00,3.90,-2.27,0.00,13.65,-7.95,16.59,0.03,0.00,0.12,5.24,15.13,1146,1237,1232,1152,1192,1500,1507,11799,842
82914,9,-7.89,3.63,-7.23,-0.479,-0.030,1.037,-2.06,1.26,0.00,0.00,2.06,-1.26,0.00,7.22,-4.42,15.11,-8.05,0.00,2.95,-0.35,56.34,1146,1237,1232,1152,1197,1500,1507,11791,842
82926,9,-2.96,-2.22,-6.78,0.044,0.107,0.808,-1.60,3.96,0.00,0.00,1.60,-3.96,0.00,5.60,-13.86,8.56,-11.64,0.00,1.56,1.94,37.89,1146,1237,1232,1152,1197,1500,1507,11803,842
82939,9,1.85,14.95,-8.21,0.016,0.051,1.134,-1.84,2.78,0.00,0.00,1.84,-2.78,0.00,6.42,-9.72,4.57,-24.67,0.00,-0.30,-6.80,55.74,1146,1237,1232,1152,1197,1500,1507,11807,842
82951,9,11.23,-8.67,-4.19,0.301,-0.019,0.707,-3.32,3.48,0.00,0.00,3.32,-3.48,0.00,11.62,-12.18,0.39,-3.51,0.00,-4.63,3.34,-19.72,1213,1188,1189,1203,1199,1500,1507,11807,842
82962,9,3.85,-3.61,-4.91,0.039,-0.378,0.816,-4.13,0.51,0.00,0.00,4.13,-0.51,0.00,14.44,-1.78,10.59,1.83,0.00,-0.62,1.05,4.64,1213,1188,1189,1203,1199,1500,1507,11795,842
82974,9,-7.14,-10.59,-4.43,-0.271,-0.150,0.961,-2.60,0.64,0.00,0.00,2.60,-0.64,0.00,9.09,-2.24,16.23,8.35,0.00,5.10,4.02,3.80,1213,1188,1189,1203,1199,1500,1507,11799,842
82986,9,-0.28,-3.19,-4.33,-0.237,0.175,0.931,-1.04,1.05,0.00,0.00,1.04,-1.05,0.00,3.65,-3.68,3.93,-0.49,0.00,2.13,0.70,6.02,1213,1188,1189,1203,1199,1500,1507,11803,842
82999,9,7.77,2.59,-5.77,0.258,0.166,0.914,-1.79,3.57,0.00,0.00,1.79,-3.57,0.00,6.26,-12.49,-1.51,-15.09,0.00,-1.62,-2.95,35.93,1213,1188,1189,1203,1199,1500,1507,11782,842
83011,1,11.29,7.14,-5.38,0.025,0.026,1.040,-2.26,3.69,0.00,0.00,2.26,-3.69,0.00,7.93,-12.92,-3.36,-20.07,0.00,-4.02,-6.17,22.94,1213,1188,1189,1203,1200,1500,1507,11786,842
83022,1,2.46,-9.29,-7.15,0.385,-0.285,0.551,-3.17,3.88,0.00,0.00,3.17,-3.88,0.00,11.14,-13.61,8.67,-4.31,0.00,0.10,3.29,50.16,1213,1188,1189,1203,1200,1500,1507,11774,842
83034,9,-8.72,-1.60,-6.17,-0.474,-0.187,1.143,-2.44,0.44,0.00,0.00,2.44,-0.44,0.00,8.54,-1.54,17.27,0.06,0.00,5.24,0.47,26.98,1213,1188,1189,1203,1199,1500,1507,11786,842
83046,1,-7.02,-4.32,-8.09,-0.177,0.093,0.859,-0.85,1.39,0.00,0.00,0.85,-1.39,0.00,2.96,-4.88,9.98,-0.56,0.00,4.38,2.49,51.71,1213,1188,1189,1203,1201,1500,1507,11782,842
83059,1,0.41,7.77,-6.89,0.052,0.209,0.838,-1.58,3.70,0.00,0.00,1.58,-3.70,0.00,5.54,-12.99,5.14,-20.76,0.00,0.49,-4.25,20.53,1153,1242,1252,1154,1201,1500,1507,11816,851
83071,1,5.11,0.41,-8.17,0.363,0.087,0.779,-2.34,5.94,0.00,0.00,2.34,-5.94,0.00,8.24,-20.85,3.13,-21.26,0.00,-2.31,-1.31,38.96,1153,1242,1252,1154,1202,1500,1507,11807,851
83082,1,1.24,3.60,-7.34,0.051,-0.030,0.849,-3.11,4.49,0.00,0.00,3.11,-4.49,0.00,10.96,-15.83,9.72,-19.43,0.00,-0.97,-2.15,27.72,1153,1242,1252,1154,1202,1500,1507,11791,851
83094,1,-1.61,6.20,-6.87,-0.181,-0.172,1.073,-2.52,1.35,0.00,0.00,2.52,-1.35,0.00,8.91,-4.85,10.52,-11.06,0.00,-0.01,-1.83,24.40,1153,1242,1252,1154,1205,1500,1507,11786,851
83106,1,-7.30,-6.37,-5.54,0.000,-0.254,0.772,-3.07,3.56,0.00,0.00,3.07,-3.56,0.00,10.85,-12.62,18.15,-6.25,0.00,2.79,3.99,3.59,1153,1242,1252,1154,1205,1500,1507,11791,851
83119,1,-5.45,17.36,-6.42,-0.179,0.030,1.048,-2.34,1.67,0.00,0.00,2.34,-1.67,0.00,8.35,-6.06,13.80,-23.42,0.00,1.78,-6.95,23.00,1153,1242,1252,1154,1205,1500,1507,11786,851
83131,1,1.07,4.16,-6.67,0.155,0.039,0.735,-2.51,3.99,0.00,0.00,2.51,-3.99,0.00,8.97,-14.17,7.90,-18.33,0.00,-1.53,-0.71,57.03,1153,1242,1252,1154,1207,1500,1507,11782,851
83143,1,-2.38,6.21,-6.61,0.012,-0.145,0.930,-3.20,1.33,0.00,0.00,3.20,-1.33,0.00,11.42,-4.88,13.80,-11.09,0.00,0.17,-1.58,61.07,1153,1242,1252,1154,1207,1505,1507,11778,851
83154,1,-1.07,-5.21,-5.72,0.140,-0.039,0.908,-2.57,0.98,0.00,0.00,2.57,-0.98,0.00,9.22,-3.68,10.29,1.53,0.00,0.17,3.33,50.62,1174,1243,1245,1171,1209,1505,1502,11786,846
83166,1,0.94,-7.83,-3.15,-0.034,-0.045,0.849,-2.69,0.85,0.00,0.00,2.69,-0.85,0.00,9.67,-3.23,8.73,4.60,0.00,0.27,3.75,16.49,1174,1243,1245,1171,1210,1500,1507,11799,846
83179,1,2.27,-0.87,-3.58,-0.064,0.038,0.901,-2.52,0.01,0.00,0.00,2.52,-0.01,0.00,9.11,-0.29,6.84,0.58,0.00,0.42,0.06,36.42,1174,1243,1245,1171,1210,1500,1507,11803,846
83191,1,8.34,-12.31,-2.16,0.047,0.020,0.839,-2.46,0.67,0.00,0.00,2.46,-0.67,0.00,8.93,-2.62,0.58,9.69,0.00,-2.02,4.27,12.35,1174,1243,1245,1171,1210,1500,1507,11786,846
83202,1,8.83,-11.58,-1.58,-0.158,-0.100,0.964,-2.31,0.24,0.00,0.00,2.31,-0.24,0.00,8.43,-1.13,-0.41,10.45,0.00,-1.76,3.01,18.99,1174,1243,1245,1171,1210,1500,1507,11774,846
83214,1,8.29,-3.06,-0.30,-0.046,-0.110,0.992,-1.17,0.05,0.00,0.00,1.17,-0.05,0.00,4.45,-0.47,-3.85,2.59,0.00,-1.18,-0.75,13.90,1174,1243,1245,1171,1210,1500,1507,11766,846
83226,1,6.45,-7.25,1.59,-0.057,-0.325,0.893,-1.66,1.68,0.00,0.00,1.66,-1.68,0.00,6.17,-6.19,-0.28,1.06,0.00,0.20,-0.00,-3.42,1174,1243,1245,1171,1210,1500,1507,11774,846
83239,1,3.19,-1.60,0.58,0.211,-0.062,0.739,-0.96,1.44,0.00,0.00,0.96,-1.44,0.00,3.70,-5.33,0.52,-3.74,0.00,2.06,-2.73,30.56,1174,1243,1245,1171,1210,1500,1507,11774,846
83251,1,-1.63,-7.41,1.30,0.413,-0.010,0.713,-0.34,4.63,0.00,0.00,0.34,-4.63,0.00,1.54,-16.52,3.17,-9.11,0.00,4.01,-0.85,-72.22,1314,1205,1212,1318,1268,1500,1507,11761,854
83262,1,-3.43,-2.94,0.30,0.094,0.191,0.806,0.10,3.96,0.00,0.00,-0.10,-3.96,0.00,0.03,-14.24,3.45,-11.30,0.00,3.87,-1.63,-43.41,1314,1205,1212,1318,1268,1500,1507,11757,854
83274,1,-0.61,-4.76,1.22,0.074,0.070,0.795,-0.84,4.08,0.00,0.00,0.84,-4.08,0.00,3.33,-14.70,3.94,-9.94,0.00,1.52,0.63,20.73,1314,1205,1212,1318,1213,1500,1507,11749,854
83286,1,2.43,0.31,1.73,0.060,-0.010,0.981,-1.97,3.78,0.00,0.00,1.97,-3.78,0.00,7.30,-13.66,4.87,-13.97,0.00,-1.12,-0.80,-9.62,1314,1205,1212,1318,1220,1500,1507,11757,854
83299,1,-0.53,3.67,-0.98,0.052,-0.110,0.935,-1.69,3.41,0.00,0.00,1.69,-3.41,0.00,6.32,-12.42,6.86,-16.10,0.00,-0.44,-1.67,28.96,1314,1205,1212,1318,1220,1500,1507,11749,854
83311,1,-2.66,4.85,-0.82,-0.072,-0.125,0.859,-1.98,1.89,0.00,0.00,1.98,-1.89,0.00,7.37,-7.10,10.03,-11.96,0.00,0.12,-1.12,10.55,1314,1205,1212,1318,1220,1500,1507,11745,854
83322,1,-7.59,2.61,-2.90,0.023,-0.242,0.817,-1.75,1.70,0.00,0.00,1.75,-1.70,0.00,6.57,-6.46,14.17,-9.07,0.00,2.21,0.20,31.80,1314,1205,1212,1318,1220,1500,1507,11736,854
83334,1,-14.52,6.59,-2.55,-0.190,-0.124,0.835,-1.84,1.66,0.00,0.00,1.84,-1.66,0.00,6.92,-6.36,21.44,-12.95,0.00,5.37,-1.61,16.89,1314,1205,1212,1318,1221,1500,1507,11728,854
83347,1,-17.17,8.95,-1.83,-0.100,0.028,0.756,-2.18,1.39,0.00,0.00,2.18,-1.39,0.00,8.13,-5.43,25.30,-14.38,0.00,6.19,-2.18,8.94,1314,1205,1212,1318,1225,1500,1507,11757,854
83359,1,-10.60,11.15,-2.16,-0.054,0.185,0.924,-1.87,1.93,0.00,0.00,1.87,-1.93,0.00,7.07,-7.33,17.68,-18.49,0.00,2.82,-2.76,19.57,1237,1208,1211,1240,1225,1500,1507,11732,902
83371,1,1.92,4.81,-2.75,0.067,0.035,1.129,-3.28,1.95,0.00,0.00,3.28,-1.95,0.00,12.02,-7.41,10.10,-12.22,0.00,-2.85,-0.04,24.86,1237,1208,1211,1240,1226,1500,1507,11741,902
83382,1,6.13,5.29,-4.78,0.327,-0.011,0.832,-3.76,2.46,0.00,0.00,3.76,-2.46,0.00,13.76,-9.22,7.63,-14.50,0.00,-4.07,-0.58,50.51,1237,1208,1211,1240,1226,1500,1507,11741,902
83395,1,6.18,-8.56,-5.29,0.332,-0.113,0.533,-4.30,3.61,0.00,0.00,4.30,-3.61,0.00,15.68,-13.25,9.50,-4.69,0.00,-3.78,4.19,35.51,1237,1208,1211,1240,1231,1500,1507,11728,902
83406,1,2.99,3.97,-4.70,-0.035,-0.367,1.037,-4.00,0.41,0.00,0.00,4.00,-0.41,0.00,14.65,-2.07,11.66,-6.04,0.00,-2.35,-0.80,9.72,1237,1208,1211,1240,1231,1500,1507,11736,902
83419,1,-3.83,-9.14,-5.91,0.148,-0.519,0.748,-3.65,1.87,0.00,0.00,3.65,-1.87,0.00,13.43,-7.19,17.26,1.95,0.00,1.60,5.60,28.56,1237,1208,1211,1240,1231,1500,1507,11732,902
83431,1,-12.08,-11.08,-4.06,-0.249,-0.271,0.825,-2.59,4.09,0.00,0.00,2.59,-4.09,0.00,9.77,-15.03,21.84,-3.94,0.00,6.53,3.49,1.50,1237,1208,1211,1240,1231,1500,1507,11720,902
83442,1,-9.78,4.93,-3.81,-0.395,0.217,1.028,-1.05,2.32,0.00,0.00,1.05,-2.32,0.00,4.40,-8.86,14.18,-13.79,0.00,5.93,-3.84,13.32,1237,1208,1211,1240,1231,1500,1507,11724,902
83455,1,-1.30,5.85,-3.89,-0.035,0.349,1.015,-0.28,3.07,0.00,0.00,0.28,-3.07,0.00,1.70,-11.52,3.01,-17.37,0.00,2.05,-3.46,17.51,1230,1239,1228,1226,1231,1500,1507,11724,1283
83466,1,9.63,2.50,-2.22,0.433,0.330,0.780,-1.23,5.74,0.00,0.00,1.23,-5.74,0.00,5.07,-20.90,-4.56,-23.40,0.00,-3.29,-2.54,-10.53,1230,1239,1228,1226,1232,1500,1507,11728,1283
83479,1,13.21,0.74,-2.73,0.192,0.250,0.795,-1.65,4.74,0.00,0.00,1.65,-4.74,0.00,6.53,-17.43,-6.68,-18.17,0.00,-5.64,-1.91,4.81,1230,1239,1228,1226,1232,1500,1507,11720,1283
83491,1,10.34,6.32,-3.36,0.035,-0.092,0.879,-1.94,1.70,0.00,0.00,1.94,-1.70,0.00,7.57,-6.82,-2.76,-13.15,0.00,-5.17,-2.58,13.34,1230,1239,1228,1226,1232,1500,1507,11720,1283
83502,1,5.49,-4.73,-4.64,0.107,-0.485,0.745,-3.80,2.34,0.00,0.00,3.80,-2.34,0.00,14.10,-9.08,8.61,-4.35,0.00,-3.09,3.20,32.61,1230,1239,1228,1226,1232,1500,1507,11707,1283
83514,1,-2.54,-3.27,-5.94,-0.133,-0.596,0.777,-3.36,3.14,0.00,0.00,3.36,-3.14,0.00,12.59,-11.91,15.13,-8.64,0.00,0.87,1.23,48.10,1230,1239,1228,1226,1240,1500,1507,11728,1283
83526,1,-10.01,1.51,-6.39,-0.119,-0.513,0.848,-2.34,3.29,0.00,0.00,2.34,-3.29,0.00,9.03,-12.50,19.04,-14.01,0.00,4.49,-1.36,45.33,1230,1239,1228,1226,1240,1500,1507,11736,1283
83539,1,-12.85,3.19,-6.65,-0.132,-0.248,0.929,-1.39,2.50,0.00,0.00,1.39,-2.50,0.00,5.71,-9.74,18.56,-12.93,0.00,6.27,-2.34,40.30,1230,1239,1228,1226,1240,1500,1507,11724,1283
83551,1,-10.68,10.80,-5.25,-0.082,-0.061,0.964,-1.08,0.21,0.00,0.00,1.08,-0.21,0.00,4.64,-1.75,15.32,-12.55,0.00,5.60,-5.19,9.57,1222,1253,1251,1235,1241,1500,1508,11732,916
83562,1,-6.70,3.27,-4.37,0.411,0.275,0.646,0.20,1.84,0.00,0.00,-0.20,-1.84,0.00,0.18,-7.43,6.88,-10.70,0.00,3.76,-1.21,-0.06,1222,1253,1251,1235,1241,1500,1508,11720,916
83574,1,1.79,-8.73,-3.19,0.408,0.393,0.647,0.47,3.38,0.00,0.00,-0.47,-3.38,0.00,-0.76,-12.85,-2.55,-4.12,0.00,-0.52,3.27,-15.92,1222,1253,1251,1235,1241,1500,1507,11724,916
83586,1,7.15,-2.16,-1.54,-0.063,0.160,1.003,-0.79,0.44,0.00,0.00,0.79,-0.44,0.00,3.68,-2.57,-3.48,-0.41,0.00,-2.97,0.38,-34.82,1222,1253,1251,1235,1244,1500,1507,11745,916
83599,1,7.09,-3.70,-2.80,0.073,-0.090,0.824,-1.91,-0.81,0.00,0.00,1.91,0.81,0.00,7.59,1.80,0.50,5.50,0.00,-3.02,2.97,1.41,1222,1253,1251,1235,1244,1500,1507,11720,916
83611,1,4.62,-10.32,-3.60,0.012,-0.190,0.890,-1.86,1.26,0.00,0.00,1.86,-1.26,0.00,7.44,-5.43,2.82,4.89,0.00,-1.68,4.85,20.39,1222,1253,1251,1235,1244,1500,1507,11724,916
83622,1,1.56,-2.44,-2.83,-0.283,-0.225,1.068,-1.76,1.32,0.00,0.00,1.76,-1.32,0.00,7.10,-5.68,5.54,-3.24,0.00,-0.10,0.27,8.03,1222,1253,1251,1235,1244,1500,1507,11724,916
83634,1,-1.27,3.36,-3.49,-0.195,-0.130,0.962,-1.41,1.26,0.00,0.00,1.41,-1.26,0.00,5.89,-5.49,7.17,-8.85,0.00,1.13,-1.80,50.39,1222,1253,1251,1235,1252,1500,1507,11732,916
83646,1,-2.27,4.56,-3.44,-0.073,-0.152,1.002,-1.36,2.56,0.00,0.00,1.36,-2.56,0.00,5.72,-10.05,7.98,-14.62,0.00,1.26,-2.79,21.25,1222,1253,1251,1235,1253,1500,1507,11724,916
83659,1,-1.11,7.97,-3.83,-0.161,-0.157,1.057,-1.56,1.52,0.00,0.00,1.56,-1.52,0.00,6.42,-6.45,7.53,-14.41,0.00,0.56,-4.12,26.21,1228,1276,1277,1228,1253,1500,1507,11720,818
83671,1,-0.20,8.39,-4.44,0.033,-0.133,0.916,-1.85,0.02,0.00,0.00,1.85,-0.02,0.00,7.47,-1.19,7.67,-9.59,0.00,0.32,-3.27,33.16,1228,1276,1277,1228,1253,1500,1507,11687,818
83682,1,-0.95,2.30,-5.30,0.161,-0.069,0.773,-1.80,-0.10,0.00,0.00,1.80,0.10,0.00,7.30,-0.78,8.26,-3.08,0.00,0.69,-0.02,39.26,1228,1276,1277,1228,1253,1500,1507,11703,818
83694,1,0.68,-3.76,-4.58,0.074,-0.049,0.791,-2.10,-0.48,0.00,0.00,2.10,0.48,0.00,8.36,0.58,7.68,4.33,0.00,-0.18,2.74,15.33,1228,1276,1277,1228,1254,1500,1507,11687,818
83706,1,0.80,-2.68,-4.10,-0.088,-0.091,0.869,-2.33,-1.03,0.00,0.00,2.33,1.03,0.00,9.19,2.50,8.38,5.18,0.00,-0.06,1.88,5.01,1228,1276,1277,1228,1254,1500,1507,11682,818
83719,1,-1.57,-0.92,-5.20,-0.266,-0.168,0.927,-2.27,-1.04,0.00,0.00,2.27,1.04,0.00,9.01,2.52,10.58,3.45,0.00,1.38,0.59,23.73,1228,1276,1277,1228,1254,1500,1507,11657,818
83731,1,-4.87,3.75,-5.68,-0.316,-0.167,0.970,-2.10,-0.71,0.00,0.00,2.10,0.71,0.00,8.44,1.36,13.31,-2.39,0.00,3.24,-1.93,27.94,1228,1276,1277,1228,1258,1500,1507,11662,818
83742,1,-7.42,7.23,-5.59,-0.205,0.003,0.909,-2.06,0.01,0.00,0.00,2.06,-0.01,0.00,8.31,-1.14,15.73,-8.37,0.00,4.38,-3.69,27.02,1228,1276,1277,1228,1258,1500,1507,11670,818
83755,1,-4.07,5.36,-5.57,-0.015,0.215,0.852,-2.09,1.99,0.00,0.00,2.09,-1.99,0.00,8.47,-8.09,12.53,-13.45,0.00,2.67,-3.47,25.11,1238,1279,1278,1235,1258,1500,1507,11682,823
83766,1,1.96,5.97,-5.07,-0.022,0.353,0.911,-2.17,2.73,0.00,0.00,2.17,-2.73,0.00,8.76,-10.69,6.80,-16.66,0.00,-0.23,-4.34,13.43,1238,1279,1278,1235,1259,1500,1507,11670,823
83779,1,7.92,8.18,-5.23,-0.034,0.380,0.940,-1.99,1.56,0.00,0.00,1.99,-1.56,0.00,8.14,-6.61,0.22,-14.78,0.00,-3.22,-4.92,17.51,1238,1279,1278,1235,1259,1500,1507,11645,823
83791,1,12.82,9.94,-4.56,0.048,0.337,0.907,-1.81,-0.69,0.00,0.00,1.81,0.69,0.00,7.55,1.27,-5.28,-8.68,0.00,-5.57,-4.18,4.99,1238,1279,1278,1235,1264,1500,1507,11649,823
83802,1,16.16,5.47,-3.93,0.222,0.159,0.743,-2.29,-1.53,0.00,0.00,2.29,1.53,0.00,9.26,4.23,-6.90,-1.24,0.00,-7.33,-1.36,-1.75,1238,1279,1278,1235,1264,1500,1507,11662,823
83814,1,16.01,3.39,-3.41,0.256,-0.032,0.837,-2.48,-2.24,0.00,0.00,2.48,2.24,0.00,9.95,6.74,-6.06,3.35,0.00,-7.38,0.59,-5.84,1238,1279,1278,1235,1266,1500,1507,11657,823
83826,1,16.97,-2.36,-3.20,0.445,-0.353,0.729,-3.88,-0.70,0.00,0.00,3.88,0.70,0.00,14.86,1.38,-2.10,3.74,0.00,-7.56,3.58,18.94,1238,1279,1278,1235,1279,1500,1507,11674,823
83839,1,11.14,-3.58,-2.81,0.335,-0.563,0.747,-5.00,0.55,0.00,0.00,5.00,-0.55,0.00,18.81,-3.01,7.67,0.57,0.00,-4.66,3.35,17.47,1238,1279,1278,1235,1279,1500,1507,11674,823
83851,1,2.74,-1.71,-4.27,0.204,-0.636,0.811,-4.58,1.79,0.00,0.00,4.58,-1.79,0.00,17.36,-7.36,14.62,-5.65,0.00,-0.96,2.29,23.00,1254,1300,1305,1255,1279,1500,1507,11666,827
83863,1,-0.62,-2.30,-4.61,0.323,-0.794,0.709,-4.59,5.78,0.00,0.00,4.59,-5.78,0.00,17.41,-21.35,18.03,-19.05,0.00,0.35,1.30,28.20,1254,1300,1305,1255,1279,1500,1507,11641,827
83874,1,-9.95,-4.10,-6.22,0.120,-0.697,0.842,-3.78,7.12,0.00,0.00,3.78,-7.12,0.00,14.61,-26.14,24.56,-22.03,0.00,4.27,0.65,55.43,1254,1300,1305,1255,1284,1500,1507,11637,827
83886,1,-10.40,-6.66,-7.53,0.404,-0.635,0.617,-4.74,9.06,0.00,0.00,4.74,-9.06,0.00,17.98,-32.98,28.38,-26.32,0.00,4.64,0.91,72.24,1254,1300,1305,1255,1284,1500,1507,11637,827
83899,1,-8.38,-9.36,-7.60,0.400,-0.450,0.513,-6.00,12.52,0.00,0.00,6.00,-12.52,0.00,22.46,-45.21,30.84,-35.86,0.00,4.82,0.10,68.19,1254,1300,1305,1255,1284,1500,1507,11616,827
83911,1,-8.68,-15.90,-8.31,0.495,-0.341,0.525,-6.45,16.82,0.00,0.00,6.45,-16.82,0.00,24.07,-60.41,32.76,-44.51,0.00,5.93,1.46,75.78,1254,1300,1305,1255,1284,1500,1507,11603,827
83922,1,-6.91,-14.76,-8.04,0.514,-0.167,0.559,-5.57,18.71,0.00,0.00,5.57,-18.71,0.00,21.08,-67.17,27.98,-52.41,0.00,5.34,0.28,64.20,1254,1300,1305,1255,1284,1500,1507,11603,827
83934,1,-4.23,-14.81,-6.53,0.359,-0.156,0.733,-5.18,19.78,0.00,0.00,5.18,-19.78,0.00,19.74,-71.13,23.97,-56.31,0.00,4.09,-0.57,33.51,1254,1300,1305,1255,1285,1500,1507,11595,827
83946,1,-1.65,-11.75,-6.28,0.385,-0.150,0.785,-4.61,18.31,0.00,0.00,4.61,-18.31,0.00,17.80,-66.16,19.45,-54.41,0.00,2.78,-1.47,30.93,1254,1300,1305,1255,1285,1500,1507,11587,827
83959,1,0.56,-6.76,-5.21,0.141,-0.119,0.892,-4.24,15.10,0.00,0.00,4.24,-15.10,0.00,16.54,-55.07,15.98,-48.31,0.00,1.70,-2.68,18.46,1258,1309,1303,1268,1285,1500,1507,11599,815
83971,1,1.01,-6.86,-4.23,0.130,-0.146,0.820,-4.25,11.60,0.00,0.00,4.25,-11.60,0.00,16.62,-42.93,15.61,-36.07,0.00,1.35,-1.05,12.11,1258,1309,1303,1268,1287,1500,1507,11620,815
83982,1,2.22,-2.02,-3.65,-0.111,-0.127,0.935,-4.09,6.88,0.00,0.00,4.09,-6.88,0.00,16.11,-26.51,13.90,-24.49,0.00,0.49,-1.42,14.42,1258,1309,1303,1268,1287,1500,1507,11620,815
83994,1,1.02,-3.04,-2.81,-0.223,-0.167,0.965,-3.75,2.76,0.00,0.00,3.75,-2.76,0.00,14.96,-12.12,13.94,-9.07,0.00,0.77,0.83,9.34,1258,1309,1303,1268,1287,1500,1507,11620,815
84006,1,1.04,-4.62,-2.04,-0.184,-0.230,0.938,-3.54,0.17,0.00,0.00,3.54,-0.17,0.00,14.23,-3.09,13.20,1.53,0.00,0.72,2.37,3.53,1258,1309,1303,1268,1288,1500,1507,11645,815
84019,1,0.97,-2.66,-1.62,-0.249,-0.290,1.010,-3.28,-1.08,0.00,0.00,3.28,1.08,0.00,13.37,1.30,12.40,3.96,0.00,0.84,1.62,1.23,1258,1309,1303,1268,1288,1500,1507,11603,815
84031,1,1.50,-3.09,-2.05,-0.262,-0.330,1.042,-3.11,-0.75,0.00,0.00,3.11,0.75,0.00,12.80,0.15,11.30,3.24,0.00,0.77,1.83,12.91,1258,1309,1303,1268,1288,1500,1507,11612,815
84042,1,0.38,-5.24,-2.26,-0.121,-0.338,0.947,-2.71,0.89,0.00,0.00,2.71,-0.89,0.00,11.40,-5.62,11.03,-0.38,0.00,1.73,3.04,15.73,1258,1309,1303,1268,1288,1500,1507,11612,815
84054,1,-2.02,-3.92,-2.86,-0.249,-0.332,1.112,-2.00,1.01,0.00,0.00,2.00,-1.01,0.00,8.95,-6.04,10.96,-2.12,0.00,2.52,2.40,22.91,1269,1304,1303,1277,1289,1500,1507,11603,815
84067,1,-3.99,-10.73,-3.23,-0.052,-0.321,0.927,-1.92,2.34,0.00,0.00,1.92,-2.34,0.00,8.68,-10.73,12.68,-0.00,0.00,2.68,4.97,24.49,1269,1304,1303,1277,1289,1500,1507,11628,815
84079,1,-4.51,-8.30,-3.64,-0.046,-0.309,0.973,-1.87,3.76,0.00,0.00,1.87,-3.76,0.00,8.52,-15.74,13.04,-7.44,0.00,2.05,3.02,26.73,1269,1304,1303,1277,1289,1500,1507,11670,815
84091,1,-4.87,-8.48,-3.37,0.058,-0.338,0.921,-2.37,6.05,0.00,0.00,2.37,-6.05,0.00,10.29,-23.82,15.16,-15.34,0.00,1.47,2.71,43.86,1269,1304,1303,1277,1293,1500,1507,11687,815
84102,1,-5.04,-7.52,-3.19,0.089,-0.333,0.924,-2.72,7.88,0.00,0.00,2.72,-7.88,0.00,11.53,-30.30,16.58,-22.78,0.00,0.97,2.04,37.94,1269,1304,1303,1277,1293,1500,1507,11687,815
84114,1,-7.28,-8.87,-2.54,0.028,-0.260,0.994,-2.85,8.73,0.00,0.00,2.85,-8.73,0.00,12.01,-33.38,19.29,-24.51,0.00,1.29,2.60,24.35,1269,1304,1303,1277,1293,1500,1507,11670,815
84126,1,-7.30,-8.77,-1.69,0.028,-0.255,1.019,-3.04,8.67,0.00,0.00,3.04,-8.67,0.00,12.68,-33.26,19.98,-24.49,0.00,0.89,3.07,8.19,1269,1304,1303,1277,1294,1500,1507,11637,815
84139,1,-5.90,-6.24,-1.21,0.069,-0.193,0.924,-2.86,8.15,0.00,0.00,2.86,-8.15,0.00,12.09,-31.51,17.99,-25.26,0.00,-0.10,2.71,4.21,1269,1304,1303,1277,1294,1500,1507,11599,815
84151,1,-10.58,-5.87,-0.41,0.035,-0.230,0.893,-2.84,6.77,0.00,0.00,2.84,-6.77,0.00,12.05,-26.77,22.62,-20.90,0.00,1.55,3.17,-2.29,1282,1302,1307,1284,1294,1500,1507,11607,814
84162,1,-11.37,-3.63,-0.43,0.149,-0.189,0.870,-2.48,6.34,0.00,0.00,2.48,-6.34,0.00,10.79,-25.31,22.15,-21.68,0.00,1.32,2.61,4.65,1282,1302,1307,1284,1294,1500,1507,11607,814
84174,1,-9.51,-3.80,0.02,0.060,-0.191,0.843,-3.51,5.47,0.00,0.00,3.51,-5.47,0.00,14.42,-22.33,23.94,-18.53,0.00,0.32,1.95,3.69,1282,1302,1307,1284,1294,1500,1507,11587,814
84186,1,-9.69,3.42,-0.46,-0.066,-0.200,0.971,-3.86,3.69,0.00,0.00,3.86,-3.69,0.00,15.69,-16.15,25.38,-19.57,0.00,0.42,-0.94,18.28,1282,1302,1307,1284,1300,1500,1507,11582,814
84199,1,-13.66,1.78,-0.86,-0.133,-0.215,0.995,-4.07,2.62,0.00,0.00,4.07,-2.62,0.00,16.45,-12.42,30.11,-14.21,0.00,2.20,-0.08,27.26,1282,1302,1307,1284,1300,1500,1507,11582,814
84211,1,-17.77,4.49,-0.80,-0.214,-0.180,0.991,-3.89,1.16,0.00,0.00,3.89,-1.16,0.00,15.87,-7.34,33.64,-11.82,0.00,3.77,-1.07,27.32,1282,1302,1307,1284,1300,1500,1507,11570,814
84222,1,-22.09,7.79,-0.87,-0.280,-0.183,1.080,-3.73,-0.71,0.00,0.00,3.73,0.71,0.00,15.33,-0.80,37.42,-8.59,0.00,5.09,-2.11,30.04,1282,1302,1307,1284,1300,1500,1507,11574,814
84234,1,-28.01,1.24,-0.67,-0.147,-0.242,0.943,-3.75,0.06,0.00,0.00,3.75,-0.06,0.00,15.45,-3.49,43.47,-4.73,0.00,7.08,0.66,29.13,1282,1302,1307,1284,1302,1500,1507,11582,814
84246,1,-26.93,-1.11,0.13,0.068,-0.153,0.840,-3.77,1.41,0.00,0.00,3.77,-1.41,0.00,15.54,-8.24,42.47,-7.13,0.00,6.26,1.41,21.84,1282,1302,1307,1284,1302,1500,1507,11603,814
84259,1,-26.76,-0.67,1.33,0.075,-0.124,0.731,-3.14,3.45,0.00,0.00,3.14,-3.45,0.00,13.40,-15.39,40.15,-14.72,0.00,6.52,0.17,12.91,1309,1294,1294,1308,1302,1500,1507,11582,816
84271,1,-29.74,-1.32,2.07,0.162,-0.121,0.648,-3.17,6.14,0.00,0.00,3.17,-6.14,0.00,13.51,-24.85,43.25,-23.53,0.00,8.17,-0.41,13.24,1309,1294,1294,1308,1302,1500,1507,11553,816
84282,1,-31.87,6.04,1.98,-0.052,-0.102,0.878,-2.94,6.37,0.00,0.00,2.94,-6.37,0.00,12.74,-25.71,44.61,-31.75,0.00,8.92,-3.69,24.03,1309,1294,1294,1308,1302,1500,1507,11553,816
84294,1,-33.36,8.99,2.42,-0.177,-0.127,0.915,-3.12,5.49,0.00,0.00,3.12,-5.49,0.00,13.42,-22.72,46.79,-31.71,0.00,9.13,-4.63,21.81,1309,1294,1294,1308,1308,1500,1507,11570,816
84306,1,-32.45,9.99,1.85,-0.178,-0.148,1.000,-3.45,5.18,0.00,0.00,3.45,-5.18,0.00,14.62,-21.67,47.08,-31.66,0.00,8.29,-5.15,38.36,1309,1294,1294,1308,1311,1500,1507,11562,816
84319,1,-31.88,10.61,2.12,-0.328,-0.217,1.167,-4.16,5.45,0.00,0.00,4.16,-5.45,0.00,17.13,-22.69,49.01,-33.29,0.00,8.00,-5.65,36.57,1309,1294,1294,1308,1311,1500,1507,11578,816
84331,1,-30.68,7.73,1.85,-0.253,-0.238,1.170,-4.23,5.67,0.00,0.00,4.23,-5.67,0.00,17.43,-23.53,48.11,-31.26,0.00,7.60,-4.03,45.46,1309,1294,1294,1308,1311,1500,1507,11566,816
84342,1,-30.65,0.96,2.02,-0.136,-0.306,1.024,-4.48,6.28,0.00,0.00,4.48,-6.28,0.00,18.35,-25.72,49.00,-26.69,0.00,7.77,-0.81,43.63,1309,1294,1294,1308,1311,1500,1507,11549,816
84354,1,-30.70,-2.27,1.80,0.146,-0.385,0.866,-4.98,6.47,0.00,0.00,4.98,-6.47,0.00,20.16,-26.44,50.86,-24.17,0.00,7.91,0.94,46.07,1288,1335,1329,1294,1312,1500,1507,11553,821
84366,1,-29.73,-2.95,1.68,0.312,-0.443,0.772,-5.82,7.95,0.00,0.00,5.82,-7.95,0.00,23.12,-31.69,52.86,-28.73,0.00,7.60,0.76,44.77,1288,1335,1329,1294,1312,1500,1507,11537,821
84379,1,-27.69,4.32,1.36,0.306,-0.458,0.744,-6.52,7.59,0.00,0.00,6.52,-7.59,0.00,25.65,-30.51,53.35,-34.82,0.00,6.55,-1.97,47.73,1288,1335,1329,1294,1312,1500,1507,11549,821
84391,1,-26.15,6.01,1.77,0.105,-0.433,0.912,-6.43,5.96,0.00,0.00,6.43,-5.96,0.00,25.38,-24.84,51.53,-30.85,0.00,5.43,-2.63,36.77,1288,1335,1329,1294,1312,1500,1507,11545,821
84402,1,-25.78,5.47,2.27,0.089,-0.329,0.946,-5.95,4.53,0.00,0.00,5.95,-4.53,0.00,23.74,-19.89,49.53,-25.36,0.00,4.62,-2.80,28.98,1288,1335,1329,1294,1312,1500,1507,11532,821
84414,1,-25.48,2.83,3.15,0.107,-0.250,0.939,-5.22,5.78,0.00,0.00,5.22,-5.78,0.00,21.24,-24.34,46.71,-27.17,0.00,3.91,-2.92,15.24,1288,1335,1329,1294,1312,1500,1507,11537,821
84426,1,-27.23,4.82,3.60,0.038,-0.213,0.928,-4.64,7.74,0.00,0.00,4.64,-7.74,0.00,19.27,-31.26,46.50,-36.08,0.00,4.12,-4.61,9.93,1288,1335,1329,1294,1313,1500,1507,11549,821
84439,1,-31.50,4.83,4.16,0.027,-0.179,0.815,-4.83,8.49,0.00,0.00,4.83,-8.49,0.00,19.96,-33.98,51.45,-38.81,0.00,5.37,-3.80,4.33,1288,1335,1329,1294,1313,1500,1507,11553,821
84451,1,-34.82,7.32,4.26,-0.031,-0.154,0.823,-4.86,7.71,0.00,0.00,4.86,-7.71,0.00,20.13,-31.30,54.95,-38.62,0.00,6.13,-3.94,4.51,1295,1320,1324,1311,1313,1500,1507,11557,818
84462,1,-37.44,6.16,3.55,0.069,-0.126,0.692,-4.89,7.59,0.00,0.00,4.89,-7.59,0.00,20.26,-30.97,57.70,-37.12,0.00,6.53,-2.89,17.08,1295,1320,1324,1311,1313,1500,1507,11578,818
84475,1,-39.25,11.28,2.89,0.021,-0.117,0.774,-4.75,6.65,0.00,0.00,4.75,-6.65,0.00,19.81,-27.74,59.06,-39.02,0.00,6.61,-5.05,25.04,1295,1320,1324,1311,1313,1500,1507,11541,818
84486,1,-42.15,15.10,2.01,-0.274,-0.135,1.074,-4.74,5.57,0.00,0.00,4.74,-5.57,0.00,19.85,-24.04,61.99,-39.13,0.00,7.13,-6.72,36.43,1295,1320,1324,1311,1313,1500,1507,11528,818
84499,1,-43.63,16.34,1.38,-0.386,-0.203,1.171,-5.00,4.10,0.00,0.00,5.00,-4.10,0.00,20.78,-18.92,64.41,-35.26,0.00,6.93,-6.39,44.51,1295,1320,1324,1311,1313,1500,1507,11524,818
84511,1,-45.02,15.49,0.72,-0.639,-0.221,1.380,-5.59,2.41,0.00,0.00,5.59,-2.41,0.00,22.91,-13.06,67.93,-28.55,0.00,6.80,-5.40,55.98,1295,1320,1324,1311,1313,1500,1507,11524,818
84522,1,-47.84,4.26,-0.02,-0.475,-0.225,1.298,-5.56,1.35,0.00,0.00,5.56,-1.35,0.00,22.87,-9.36,70.71,-13.62,0.00,7.25,-0.31,68.15,1295,1320,1324,1311,1313,1500,1507,11545,818
84534,1,-49.30,-7.00,0.56,-0.135,-0.285,1.108,-6.16,3.17,0.00,0.00,6.16,-3.17,0.00,25.04,-15.79,74.34,-8.79,0.00,7.35,3.12,55.59,1295,1320,1324,1311,1313,1500,1507,11545,818
84546,1,-48.39,-8.38,0.87,0.082,-0.327,0.964,-6.70,6.24,0.00,0.00,6.70,-6.24,0.00,26.99,-26.58,75.38,-18.20,0.00,6.71,2.04,49.11,1295,1320,1324,1311,1313,1500,1507,11549,818
84559,1,-47.92,-6.58,1.34,0.042,-0.329,0.952,-6.92,7.60,0.00,0.00,6.92,-7.60,0.00,27.80,-31.42,75.73,-24.85,0.00,6.50,0.59,41.16,1319,1303,1307,1321,1313,1500,1507,11549,826
84571,1,-45.72,-2.64,1.56,0.018,-0.267,0.927,-6.26,5.92,0.00,0.00,6.26,-5.92,0.00,25.55,-25.59,71.27,-22.95,0.00,5.49,-0.43,36.49,1319,1303,1307,1321,1313,1500,1507,11553,826
84582,1,-44.22,-9.20,2.45,0.255,-0.276,0.746,-5.70,6.01,0.00,0.00,5.70,-6.01,0.00,23.67,-25.99,67.89,-16.79,0.00,4.98,2.40,18.84,1319,1303,1307,1321,1313,1500,1507,11549,826
84594,1,-42.71,-4.85,3.36,0.215,-0.252,0.810,-5.42,6.44,0.00,0.00,5.42,-6.44,0.00,22.73,-27.55,65.44,-22.71,0.00,4.46,-0.99,6.04,1319,1303,1307,1321,1313,1500,1507,11532,826
84606,1,-43.80,-2.22,4.29,0.150,-0.294,0.864,-5.97,7.12,0.00,0.00,5.97,-7.12,0.00,24.71,-30.00,68.51,-27.79,0.00,5.07,-2.64,-6.58,1319,1303,1307,1321,1313,1500,1507,11545,826
84619,1,-45.29,0.12,4.45,-0.085,-0.285,0.972,-6.47,5.79,0.00,0.00,6.47,-5.79,0.00,26.50,-25.40,71.79,-25.52,0.00,5.78,-3.03,-5.81,1319,1303,1307,1321,1313,1500,1507,11541,826
84631,1,-47.38,2.06,4.00,-0.197,-0.197,1.036,-6.02,2.60,0.00,0.00,6.02,-2.60,0.00,24.99,-14.27,72.37,-16.33,0.00,6.56,-2.53,2.17,1319,1303,1307,1321,1313,1500,1507,11545,826
84642,1,-49.06,-1.70,3.64,-0.130,-0.233,0.958,-5.54,1.77,0.00,0.00,5.54,-1.77,0.00,23.36,-11.40,72.42,-9.70,0.00,7.20,-0.86,4.71,1319,1303,1307,1321,1313,1500,1507,11520,826
84654,1,-47.46,-1.22,3.31,-0.235,-0.334,0.958,-5.21,1.14,0.00,0.00,5.21,-1.14,0.00,22.25,-9.20,69.70,-7.98,0.00,6.47,-1.10,8.22,1275,1346,1349,1281,1313,1500,1507,11516,817
84666,1,-46.04,-2.39,2.85,-0.249,-0.437,0.939,-5.31,0.04,0.00,0.00,5.31,-0.04,0.00,22.67,-5.35,68.71,-2.97,0.00,5.88,-0.16,17.21,1275,1346,1349,1281,1313,1500,1507,11524,817
84679,1,-43.40,-4.03,2.05,-0.186,-0.501,0.911,-5.74,-0.33,0.00,0.00,5.74,0.33,0.00,24.19,-4.06,67.59,-0.03,0.00,4.85,0.84,31.73,1275,1346,1349,1281,1313,1500,1507,11532,817
84691,1,-40.80,-5.41,0.46,-0.070,-0.498,0.843,-5.99,0.61,0.00,0.00,5.99,-0.61,0.00,25.14,-7.37,65.94,-1.96,0.00,3.97,1.20,57.35,1275,1346,1349,1281,1313,1500,1507,11537,817
84702,1,-37.53,-0.76,-1.09,-0.050,-0.441,0.818,-5.71,1.69,0.00,0.00,5.71,-1.69,0.00,24.20,-11.17,61.73,-10.41,0.00,2.72,-0.92,77.33,1275,1346,1349,1281,1313,1500,1507,11528,817
84714,1,-35.50,7.68,-2.01,-0.210,-0.392,0.963,-4.88,1.25,0.00,0.00,4.88,-1.25,0.00,21.35,-9.64,56.85,-17.32,0.00,2.09,-3.95,83.45,1275,1346,1349,1281,1313,1500,1507,11532,817
84726,1,-34.68,11.60,-2.11,-0.355,-0.298,1.101,-4.46,-0.67,0.00,0.00,4.46,0.67,0.00,19.88,-2.92,54.56,-14.52,0.00,2.17,-4.30,77.38,1275,1346,1349,1281,1313,1500,1507,11549,817
84739,1,-33.40,6.44,-2.11,-0.205,-0.196,1.092,-4.33,-1.64,0.00,0.00,4.33,1.64,0.00,19.48,0.48,52.88,-5.96,0.00,2.13,-1.43,71.31,1275,1346,1349,1281,1313,1500,1507,11553,817
84751,1,-32.60,1.40,-1.84,0.150,-0.042,0.918,-3.95,2.62,0.00,0.00,3.95,-2.62,0.00,18.18,-14.45,50.78,-15.85,0.00,2.42,-0.60,59.82,1252,1369,1373,1256,1313,1500,1507,11553,818
84763,1,-33.18,3.64,-0.36,0.222,0.010,0.828,-3.19,9.08,0.00,0.00,3.19,-9.08,0.00,15.57,-37.14,48.75,-40.78,0.00,3.30,-2.97,26.98,1252,1369,1373,1256,1313,1500,1507,11541,818
84774,1,-34.63,9.66,1.26,0.143,0.010,0.773,-2.36,11.54,0.00,0.00,2.36,-11.54,0.00,12.70,-45.86,47.33,-55.52,0.00,4.27,-4.42,0.01,1252,1369,1373,1256,1313,1500,1507,11524,818
84786,1,-35.62,11.29,1.91,0.368,-0.117,0.635,-2.86,12.96,0.00,0.00,2.86,-12.96,0.00,14.45,-50.94,50.07,-62.23,0.00,4.99,-3.30,-6.75,1252,1369,1373,1256,1313,1500,1507,11520,818
84799,1,-35.78,20.59,1.70,0.223,-0.143,0.712,-4.05,14.28,0.00,0.00,4.05,-14.28,0.00,18.65,-55.71,54.44,-76.30,0.00,5.38,-6.52,3.00,1252,1369,1373,1256,1313,1500,1507,11516,818
84811,1,-36.40,37.95,0.28,-0.269,-0.021,1.082,-3.87,10.42,0.00,0.00,3.87,-10.42,0.00,18.07,-42.32,54.47,-80.27,0.00,5.92,-11.52,31.08,1252,1369,1373,1256,1313,1500,1507,11532,818
84822,1,-37.17,30.60,-0.17,-0.226,0.070,0.896,-3.06,7.38,0.00,0.00,3.06,-7.38,0.00,15.29,-31.74,52.46,-62.34,0.00,6.44,-5.59,35.28,1252,1369,1373,1256,1313,1500,1507,11512,818
84834,1,-36.81,30.59,-0.24,-0.228,0.130,0.907,-2.77,5.38,0.00,0.00,2.77,-5.38,0.00,14.31,-24.79,51.12,-55.38,0.00,6.42,-5.20,34.21,1252,1369,1373,1256,1313,1500,1507,11524,818
84846,1,-36.36,32.31,-0.67,-0.139,0.161,0.894,-2.61,5.49,0.00,0.00,2.61,-5.49,0.00,13.77,-25.24,50.13,-57.55,0.00,6.37,-5.97,40.74,1252,1369,1373,1256,1313,1500,1507,11516,818
84859,1,-34.08,34.97,-0.99,-0.193,0.183,0.928,-2.27,6.28,0.00,0.00,2.27,-6.28,0.00,12.62,-28.08,46.70,-63.05,0.00,5.51,-7.13,44.68,1271,1349,1353,1277,1313,1500,1507,11516,814
84871,1,-32.87,40.18,-0.96,-0.367,0.167,1.073,-2.25,6.18,0.00,0.00,2.25,-6.18,0.00,12.59,-27.78,45.46,-67.96,0.00,5.28,-8.84,44.87,1271,1349,1353,1277,1313,1500,1507,11503,814
84883,1,-31.63,38.85,-0.63,-0.448,0.194,1.129,-2.24,5.12,0.00,0.00,2.24,-5.12,0.00,12.57,-24.13,44.20,-62.98,0.00,5.18,-6.82,41.95,1271,1349,1353,1277,1313,1500,1507,11516,814
84894,1,-30.27,35.87,-0.17,-0.353,0.219,1.132,-2.04,2.36,0.00,0.00,2.04,-2.36,0.00,11.91,-14.53,42.18,-50.39,0.00,5.15,-4.09,39.30,1271,1349,1353,1277,1313,1500,1507,11503,814
84906,1,-26.69,19.83,0.02,0.249,0.146,0.750,-2.37,4.93,0.00,0.00,2.37,-4.93,0.00,13.10,-23.55,39.79,-43.38,0.00,4.25,2.41,41.74,1271,1349,1353,1277,1313,1500,1507,11499,814
84919,1,-21.96,26.32,-0.88,0.610,0.172,0.659,-2.78,9.89,0.00,0.00,2.78,-9.89,0.00,14.58,-40.97,36.54,-67.29,0.00,2.83,-2.43,63.02,1271,1349,1353,1277,1313,1500,1507,11495,814
84931,1,-16.91,34.90,-1.07,0.404,0.177,0.770,-3.89,14.51,0.00,0.00,3.89,-14.51,0.00,18.52,-57.28,35.43,-92.17,0.00,1.61,-7.05,67.47,1271,1349,1353,1277,1313,1500,1507,11491,814
84942,1,-9.86,45.44,-0.82,0.080,0.194,0.983,-4.03,12.67,0.00,0.00,4.03,-12.67,0.00,19.05,-50.98,28.91,-96.42,0.00,-0.34,-9.73,66.08,1271,1349,1353,1277,1313,1500,1507,11483,814
84955,1,-6.29,42.65,0.42,0.217,0.085,0.787,-4.66,11.61,0.00,0.00,4.66,-11.61,0.00,21.28,-47.38,27.57,-90.03,0.00,-0.14,-6.50,47.81,1321,1308,1296,1325,1313,1500,1507,11478,814
84966,1,2.99,44.99,0.02,0.378,0.107,0.769,-5.07,11.94,0.00,0.00,5.07,-11.94,0.00,22.77,-48.61,19.78,-93.61,0.00,-2.74,-6.68,60.07,1321,1308,1296,1325,1313,1500,1505,11503,814
84979,1,9.65,49.33,0.65,0.435,0.144,0.568,-4.36,13.13,0.00,0.00,4.36,-13.13,0.00,20.36,-52.89,10.71,-102.22,0.00,-3.87,-7.35,45.26,1321,1308,1296,1325,1313,1500,1505,11541,814
84991,1,10.51,66.67,3.17,0.270,0.237,0.720,-2.31,11.88,0.00,0.00,2.31,-11.88,0.00,13.21,-48.62,2.70,-115.29,0.00,-2.61,-12.75,3.69,1321,1308,1296,1325,1313,1500,1505,11532,814
85002,1,11.45,71.60,4.06,0.197,0.259,0.851,-2.70,11.64,0.00,0.00,2.70,-11.64,0.00,14.61,-47.90,3.16,-119.50,0.00,-1.75,-13.46,-9.16,1321,1308,1296,1325,1313,1502,1505,11516,814
85014,1,11.94,74.60,4.57,-0.055,0.276,1.035,-2.89,10.81,0.00,-2.16,2.89,-12.97,0.00,15.31,-52.69,3.38,-127.29,0.00,-1.08,-13.52,-20.48,1321,1308,1296,1325,1313,1502,1476,11516,814
85026,1,15.36,73.79,5.72,-0.152,0.179,1.037,-2.64,7.47,0.00,0.00,2.64,-7.47,0.00,14.47,-33.52,-0.89,-107.31,0.00,-1.78,-9.87,-41.76,1321,1308,1296,1325,1313,1501,1482,11545,814
85039,1,18.48,66.20,6.56,0.027,-0.013,0.892,-3.71,4.65,0.00,0.00,3.71,-4.65,0.00,18.25,-23.69,-0.24,-89.90,0.00,-2.03,-4.08,-43.34,1321,1308,1296,1325,1313,1501,1482,11545,814
85051,1,35.90,42.88,3.80,0.300,-0.321,1.042,-7.65,3.01,0.00,0.00,7.65,-3.01,0.00,32.08,-17.99,-3.83,-60.87,0.00,-7.12,5.70,14.62,1306,1331,1325,1287,1313,1500,1480,11537,817
85062,1,55.91,26.46,-1.04,0.207,-0.065,1.019,-9.19,2.28,0.00,0.00,9.19,-2.28,0.00,37.57,-15.47,-18.34,-41.93,0.00,-10.27,8.40,75.56,1306,1331,1325,1287,1313,1500,1480,11520,817
85074,1,70.76,39.61,-3.70,0.355,-0.039,0.605,-8.86,3.41,0.00,0.00,8.86,-3.41,0.00,36.52,-19.43,-34.24,-59.03,0.00,-11.79,0.13,92.65,1306,1331,1325,1287,1313,1500,1480,11524,817
85087,1,80.94,41.92,-4.98,-0.039,-0.115,0.896,-6.83,1.76,0.00,-1.89,6.83,-3.65,0.00,29.45,-20.31,-51.49,-62.23,0.00,-12.37,-2.42,85.30,1306,1331,1325,1287,1313,1499,1479,11516,817
85099,1,82.74,51.53,-4.44,-0.145,-0.138,0.992,-5.73,-1.58,0.00,-1.89,5.73,-0.31,0.00,25.67,-8.62,-57.07,-60.14,0.00,-9.91,-5.99,65.95,1306,1331,1325,1287,1313,1499,1479,11499,817
85111,1,88.31,44.36,-2.88,0.045,-0.007,0.751,-5.69,-0.10,0.00,-1.89,5.69,-1.79,0.00,25.60,-13.81,-62.71,-58.18,0.00,-10.15,-2.92,37.92,1306,1331,1325,1287,1313,1499,1479,11495,817
85122,1,91.83,47.24,0.70,0.050,0.081,0.637,-4.79,-0.60,0.00,-1.89,4.79,-1.29,0.00,22.49,-12.06,-69.34,-59.31,0.00,-10.27,-3.44,-14.64,1306,1331,1325,1287,1313,1499,1479,11483,817
85134,1,91.73,48.50,2.71,0.512,0.099,0.555,-3.62,2.51,0.00,-1.89,3.62,-4.40,0.00,18.40,-22.99,-73.33,-71.49,0.00,-9.12,-4.25,-28.06,1306,1331,1325,1287,1313,1499,1479,11495,817
85147,1,86.24,59.35,4.35,-0.049,0.174,0.917,-3.23,4.59,0.00,-1.89,3.23,-6.48,0.00,17.10,-30.31,-69.14,-89.65,0.00,-5.59,-9.37,-40.62,1306,1331,1325,1287,1313,1499,1479,11499,817
85159,1,83.14,58.02,5.93,-0.055,-0.006,0.885,-2.64,0.80,0.00,-1.89,2.64,-2.69,0.00,15.04,-17.07,-68.10,-75.09,0.00,-3.50,-5.02,-55.87,1317,1312,1287,1335,1313,1499,1479,11512,841
85171,1,84.23,44.09,5.33,0.490,-0.114,0.605,-3.80,3.81,0.00,-1.89,3.80,-5.70,0.00,19.16,-27.67,-65.07,-71.76,0.00,-3.48,0.68,-36.41,1317,1312,1287,1335,1313,1499,1479,11516,841
85182,1,88.66,50.53,2.37,0.208,-0.222,0.783,-3.63,6.96,0.00,-1.89,3.63,-8.85,0.00,18.57,-38.75,-70.09,-89.29,0.00,-4.72,-4.06,15.02,1317,1312,1287,1335,1313,1499,1479,11532,841
85195,1,90.35,47.53,1.69,0.134,-0.484,0.833,-3.71,7.67,0.00,-1.89,3.71,-9.56,0.00,18.90,-41.34,-71.45,-88.86,0.00,-4.38,-2.46,16.04,1317,1312,1287,1335,1313,1499,1479,11528,841
85206,1,94.43,48.14,-0.02,0.268,-0.472,0.770,-4.40,8.64,0.00,-1.89,4.40,-10.53,0.00,21.34,-44.81,-73.09,-92.95,0.00,-4.73,-2.34,37.45,1317,1312,1287,1335,1313,1499,1479,11549,841
85219,1,100.55,51.91,-0.31,0.124,-0.378,0.748,-4.64,6.43,0.00,-1.89,4.64,-8.32,0.00,22.21,-37.18,-78.33,-89.09,0.00,-5.61,-2.68,34.25,1317,1312,1287,1335,1313,1499,1479,11545,841
85231,1,102.75,56.45,-0.64,-0.085,-0.517,0.939,-4.17,4.44,0.00,-1.89,4.17,-6.33,0.00,20.60,-30.27,-82.16,-86.72,0.00,-5.30,-4.68,30.38,1317,1312,1287,1335,1313,1499,1479,11532,841
85242,1,102.85,55.28,-0.66,-0.069,-0.575,1.055,-3.67,4.14,0.00,-1.89,3.67,-6.03,0.00,18.89,-29.31,-83.96,-84.59,0.00,-4.38,-4.12,23.99,1317,1312,1287,1335,1313,1499,1479,11516,841
85254,1,103.41,50.82,-0.40,-0.079,-0.611,1.034,-2.68,4.27,0.00,-1.89,2.68,-6.16,0.00,15.45,-29.80,-87.96,-80.63,0.00,-4.13,-2.16,15.17,1249,1378,1367,1256,1313,1499,1479,11520,817
85266,1,106.08,42.92,-0.79,0.246,-0.665,0.749,-2.36,5.20,0.00,-1.89,2.36,-7.09,0.00,14.34,-33.14,-91.74,-76.06,0.00,-4.95,1.50,19.54,1249,1378,1367,1256,1313,1499,1479,11537,817
85279,1,108.58,51.97,-1.58,0.165,-0.643,0.850,-1.87,5.47,0.00,-1.89,1.87,-7.36,0.00,12.61,-34.15,-95.97,-86.12,0.00,-5.95,-3.05,35.60,1249,1378,1367,1256,1313,1499,1479,11516,817
85291,1,111.10,50.72,-1.75,0.055,-0.607,0.838,-1.47,5.87,0.00,-1.89,1.47,-7.76,0.00,11.23,-35.64,-99.87,-86.36,0.00,-6.94,-2.36,40.74,1249,1378,1367,1256,1313,1499,1479,11537,817
85302,1,111.53,45.43,-2.00,0.191,-0.549,0.758,-2.01,7.61,0.00,-1.89,2.01,-9.50,0.00,13.09,-41.81,-98.44,-87.24,0.00,-6.60,-0.64,49.72,1249,1378,1367,1256,1313,1499,1479,11532,817
85314,1,110.61,53.40,-3.20,0.148,-0.422,0.672,-1.99,8.28,0.00,-1.89,1.99,-10.17,0.00,13.03,-44.26,-97.58,-97.66,0.00,-5.67,-3.92,71.36,1249,1378,1367,1256,1313,1499,1479,11537,817
85326,1,69.56,27.51,-20.81,0.048,-0.512,1.247,-1.41,5.49,0.00,-1.89,1.41,-7.38,0.00,11.00,-34.57,-58.56,-62.08,0.00,11.28,7.80,350.00,1249,1378,1367,1256,1313,1499,1479,11520,817
85339,1,17.81,-31.94,-47.51,-0.085,-0.326,1.487,-3.42,5.23,0.00,-1.89,3.42,-7.12,0.00,18.07,-33.71,0.27,-1.78,0.00,25.54,21.02,350.00,1249,1378,1367,1256,1313,1499,1479,11532,817
85351,1,2.67,-11.16,-59.78,-0.411,0.020,1.005,-4.30,1.42,0.00,-1.89,4.30,-3.31,0.00,21.21,-20.44,18.54,-9.28,0.00,19.81,1.30,350.00,1100,1499,1499,1100,1313,1499,1479,11503,821
85362,1,-6.34,-33.71,-63.74,0.347,-0.138,0.751,-4.44,6.46,0.00,-1.89,4.44,-8.35,0.00,21.74,-38.15,28.08,-4.44,0.00,15.89,7.55,350.00,1100,1499,1499,1100,1313,1499,1479,11474,821
85374,1,-6.51,-34.50,-59.63,-0.042,-0.058,0.956,-6.09,8.36,0.00,-1.89,6.09,-10.25,0.00,27.59,-44.90,34.11,-10.40,0.00,10.89,2.03,319.76,1100,1499,1499,1100,1313,1499,1479,11416,821
85386,1,4.34,-14.32,-55.29,-0.292,0.179,0.812,-2.82,3.91,0.00,0.00,2.82,-3.91,0.00,16.17,-22.79,11.83,-8.47,0.00,4.26,-6.10,202.80,1100,1499,1499,1100,1313,1499,1480,11395,821
85399,1,15.36,-20.15,-51.49,-0.025,0.315,1.068,-2.51,4.30,0.00,0.00,2.51,-4.30,0.00,15.12,-24.20,-0.24,-4.05,0.00,-0.39,-2.44,145.39,1100,1499,1499,1100,1313,1499,1480,11279,821
85411,1,19.13,-25.46,-47.66,0.082,0.469,1.095,-3.29,6.03,0.00,0.00,3.29,-6.03,0.00,17.89,-30.28,-1.23,-4.81,0.00,-0.71,-0.93,117.04,1100,1499,1499,1100,1313,1500,1481,11241,821
85422,1,32.41,-4.45,-41.24,0.302,0.489,0.771,-3.05,4.72,0.00,0.00,3.05,-4.72,0.00,17.12,-25.76,-15.29,-21.31,0.00,-5.97,-9.82,61.04,1100,1499,1499,1100,1313,1500,1481,11233,821
85434,1,49.15,-10.04,-36.23,0.279,0.389,0.963,-2.68,4.08,0.00,0.00,2.68,-4.08,0.00,15.86,-23.55,-33.29,-13.51,0.00,-12.21,-4.69,26.98,1100,1499,1499,1100,1313,1500,1481,11254,821
85446,1,47.82,-26.04,-33.89,0.438,-0.121,0.818,-3.15,6.69,0.00,0.00,3.15,-6.69,0.00,17.52,-32.74,-30.30,-6.70,0.00,-9.01,2.60,44.67,1100,1499,1499,1100,1313,1500,1482,11274,821
85459,1,45.92,-3.42,-32.56,-0.043,-0.344,0.931,-3.56,4.15,0.00,0.00,3.56,-4.15,0.00,18.97,-23.90,-26.95,-20.48,0.00,-5.98,-7.24,79.87,1274,1362,1344,1270,1313,1500,1482,11395,815
85471,1,48.96,6.55,-32.17,-0.320,-0.280,1.322,-2.19,1.12,0.00,-1.89,2.19,-3.01,0.00,14.18,-19.92,-34.77,-26.48,0.00,-5.28,-7.42,114.71,1274,1362,1344,1270,1313,1500,1479,11412,815
85482,1,50.52,-7.44,-29.32,-0.149,-0.552,1.158,-2.31,3.44,0.00,-1.89,2.31,-5.33,0.00,14.64,-28.10,-35.88,-20.66,0.00,-3.05,-1.43,85.09,1274,1362,1344,1270,1313,1500,1479,11453,815
85494,1,55.23,18.79,-29.58,0.061,-0.237,1.108,-2.20,0.74,0.00,0.00,2.20,-0.74,0.00,14.28,-12.05,-40.96,-30.83,0.00,-2.71,-11.58,113.59,1274,1362,1344,1270,1313,1500,1485,11462,815
85507,1,63.12,-9.77,-27.24,0.380,-0.381,0.625,-3.47,4.84,0.00,0.00,3.47,-4.84,0.00,18.73,-26.41,-44.39,-16.64,0.00,-3.69,1.85,74.49,1274,1362,1344,1270,1313,1500,1500,11462,815
85519,1,68.14,-9.68,-27.58,-0.015,-0.163,0.939,-3.26,3.24,0.00,0.00,3.26,-3.24,0.00,18.02,-20.87,-50.12,-11.18,0.00,-3.73,0.75,103.51,1274,1362,1344,1270,1313,1500,1500,11424,815
85531,1,66.84,-19.11,-25.54,-0.128,-0.058,0.844,-3.15,4.07,0.00,0.00,3.15,-4.07,0.00,17.66,-23.82,-49.17,-4.71,0.00,-0.29,4.08,77.46,1274,1362,1344,1270,1314,1500,1501,11424,815
85542,1,73.48,5.21,-25.03,-0.540,0.268,1.264,-1.97,0.38,0.00,0.00,1.97,-0.38,0.00,13.59,-10.91,-59.89,-16.12,0.00,-1.02,-5.80,92.93,1274,1362,1344,1270,1314,1500,1501,11412,815
85554,1,87.77,-8.89,-21.64,-0.313,0.209,1.114,-1.94,-0.17,0.00,0.00,1.94,0.17,0.00,13.51,-8.99,-74.26,-0.10,0.00,-5.29,0.60,55.54,1276,1368,1351,1259,1314,1500,1501,11441,822
85566,1,99.17,0.01,-20.52,0.065,0.330,1.130,-2.03,-0.08,0.00,0.00,2.03,0.08,0.00,13.87,-9.31,-85.30,-9.31,0.00,-8.70,-5.39,63.98,1276,1368,1351,1259,1314,1500,1501,11428,822
85579,1,109.39,-6.80,-16.48,-0.071,0.351,0.962,-2.35,-1.12,0.00,0.00,2.35,1.12,0.00,15.02,-5.68,-94.37,1.12,0.00,-11.72,-3.17,16.68,1276,1368,1351,1259,1314,1500,1501,11462,822
85591,1,114.97,-25.61,-13.93,0.314,-0.042,0.739,-2.56,-1.55,0.00,0.00,2.56,1.55,0.00,15.75,-4.15,-99.22,21.46,0.00,-12.94,4.28,-29.07,1276,1368,1351,1259,1314,1500,1502,11474,822
85603,1,114.02,-30.19,-14.85,0.416,-0.418,0.691,-3.56,-0.03,0.00,0.00,3.56,0.03,0.00,19.29,-9.45,-94.73,20.73,0.00,-11.25,4.24,17.42,1276,1368,1351,1259,1314,1500,1502,11483,822
85614,1,108.62,-32.87,-15.60,-0.126,-0.680,0.837,-3.00,0.54,0.00,0.00,3.00,-0.54,0.00,17.31,-11.44,-91.31,21.43,0.00,-7.44,3.77,52.79,1276,1368,1351,1259,1310,1500,1501,11499,822
85626,1,93.79,-36.63,-17.01,-0.445,-0.711,1.177,-1.95,-3.70,0.00,0.00,1.95,3.70,0.00,13.64,3.41,-80.14,40.04,0.00,-0.31,4.95,93.55,1276,1368,1351,1259,1269,1500,1501,11499,822
85639,1,86.32,-35.82,-19.54,-0.089,-0.680,0.939,-1.05,-5.04,0.00,0.00,1.05,5.04,0.00,10.50,8.16,-75.82,43.98,0.00,2.26,4.03,121.35,1276,1368,1351,1259,1269,1500,1501,11524,822
85651,1,78.68,-38.49,-21.75,-0.161,-0.593,1.060,-0.25,-5.89,0.00,0.00,0.25,5.89,0.00,7.69,11.16,-70.99,49.65,0.00,4.92,4.24,133.66,1126,1380,1391,1125,1255,1500,1502,11503,823
85662,1,75.22,-49.97,-26.14,-0.433,-0.468,1.250,-0.11,-8.05,0.00,0.00,0.11,8.05,0.00,7.23,18.82,-67.99,68.79,0.00,4.83,7.62,173.43,1126,1380,1391,1125,1255,1500,1502,11528,823
85674,1,77.51,-54.26,-28.18,-0.273,-0.257,1.097,0.40,-8.93,0.00,0.00,-0.40,8.93,0.00,5.42,21.97,-72.09,76.23,0.00,2.03,6.51,170.98,1126,1380,1391,1125,1248,1500,1502,11512,823
85686,1,79.24,-51.30,-28.27,0.005,-0.096,0.952,0.36,-5.56,0.00,0.00,-0.36,5.56,0.00,5.55,10.23,-73.69,61.53,0.00,0.40,2.53,148.04,1126,1380,1391,1125,1247,1500,1502,11524,823
85699,1,80.98,-45.80,-26.11,-0.272,0.108,1.234,0.12,-6.13,0.00,0.00,-0.12,6.13,0.00,6.42,12.28,-74.56,58.08,0.00,-0.41,-1.17,109.43,1126,1380,1391,1125,1247,1500,1502,11478,823
85711,1,83.39,-53.23,-20.71,-0.181,0.178,1.069,-0.40,-6.26,0.00,0.00,0.40,6.26,0.00,8.25,12.78,-75.15,66.01,0.00,-0.54,1.31,65.55,1126,1380,1391,1125,1247,1500,1502,11478,823
85722,1,90.94,-64.56,-14.47,0.347,0.063,0.588,-0.42,-2.18,0.00,0.00,0.42,2.18,0.00,8.34,-1.46,-82.59,63.10,0.00,-2.87,5.52,-16.64,1126,1380,1391,1125,1247,1500,1502,11524,823
85734,1,104.53,-58.62,-11.15,0.230,-0.034,0.544,-0.39,-0.01,0.00,0.00,0.39,0.01,0.00,8.22,-9.03,-96.32,49.59,0.00,-7.26,1.65,-74.71,1126,1380,1391,1125,1247,1500,1502,11516,823
85746,1,112.90,-48.00,-8.71,-0.416,-0.118,1.012,-0.98,-3.97,0.00,0.00,0.98,3.97,0.00,10.30,4.85,-102.60,52.85,0.00,-8.72,-2.47,-69.54,1126,1380,1391,1125,1247,1500,1502,11545,823
85759,1,118.28,-45.22,-7.98,-0.573,-0.060,1.112,-1.34,-6.25,0.00,0.00,1.34,6.25,0.00,11.59,12.89,-106.70,58.11,0.00,-8.24,-1.40,-35.65,1285,1224,1203,1274,1247,1500,1502,11587,818
85771,1,114.21,-54.31,-13.82,-0.030,-0.082,1.200,-0.57,-7.33,0.00,0.00,0.57,7.33,0.00,8.89,16.72,-105.32,71.02,0.00,-5.35,3.76,90.56,1285,1224,1203,1274,1248,1500,1502,11603,818
85782,1,108.91,-73.96,-16.51,0.059,-0.054,0.729,-2.60,-2.25,0.00,0.00,2.60,2.25,0.00,16.00,-1.03,-92.91,72.93,0.00,-3.23,6.33,116.62,1285,1224,1203,1274,1248,1500,1502,11616,818
85794,1,115.24,-61.45,-18.30,0.136,0.203,0.791,-2.50,-3.75,0.00,0.00,2.50,3.75,0.00,15.68,4.29,-99.56,65.74,0.00,-6.66,-2.14,130.65,1285,1224,1203,1274,1248,1500,1502,11603,818
85807,1,106.64,-68.70,-22.68,-0.265,0.242,1.256,-0.89,-8.15,0.00,0.00,0.89,8.15,0.00,10.07,19.76,-96.57,88.46,0.00,-2.36,2.31,175.16,1285,1224,1203,1274,1248,1500,1502,11607,818
85819,1,99.99,-83.99,-26.05,-0.066,0.206,1.122,0.75,-11.33,0.00,0.00,-0.75,11.33,0.00,4.35,30.99,-95.64,114.99,0.00,-2.03,6.96,181.77,1285,1224,1203,1274,1248,1500,1502,11607,818
85831,1,103.35,-116.42,-26.36,0.311,-0.009,0.393,0.22,-8.73,0.00,0.00,-0.22,8.73,0.00,6.19,21.96,-97.15,138.39,0.00,-5.89,17.55,138.59,1285,1224,1203,1274,1271,1500,1502,11591,818
85842,1,105.41,-108.84,-26.04,0.158,-0.400,0.836,-0.08,-10.08,0.00,0.00,0.08,10.08,0.00,7.22,26.80,-98.18,135.64,0.00,-7.53,11.16,105.69,1285,1224,1203,1274,1271,1500,1502,11603,818
85854,1,100.66,-104.82,-22.13,-0.149,-0.756,1.023,-0.56,-10.28,0.00,0.00,0.56,10.28,0.00,8.90,27.58,-91.76,132.40,0.00,-4.42,8.42,35.85,1219,1344,1350,1205,1281,1500,1502,11570,818
85867,1,98.33,-104.55,-18.77,-0.025,-0.815,0.538,-0.28,-9.59,0.00,0.00,0.28,9.59,0.00,7.92,25.28,-90.41,129.83,0.00,-1.42,8.75,2.12,1219,1344,1350,1205,1282,1500,1502,11524,818
85879,1,106.71,-103.59,-15.55,-0.098,-0.480,0.721,0.25,-9.71,0.00,0.00,-0.25,9.71,0.00,6.04,25.77,-100.67,129.36,0.00,-2.49,7.65,-7.72,1219,1344,1350,1205,1282,1500,1502,11520,818
85891,1,122.27,-94.87,-13.00,-0.184,0.158,0.935,2.11,-7.20,0.00,0.00,-2.11,7.20,0.00,-0.48,17.08,-122.75,111.95,0.00,-6.81,2.04,-15.81,1219,1344,1350,1205,1282,1500,1502,11537,818
85902,1,108.24,-105.11,-14.34,-0.859,0.679,1.639,3.28,-9.23,0.00,0.00,-3.28,9.23,0.00,-4.57,24.27,-112.80,129.38,0.00,1.09,6.25,36.39,1219,1344,1350,1205,1282,1500,1502,11557,818
85914,1,107.68,-132.56,-15.23,-0.370,0.964,1.709,3.80,-10.43,0.00,0.00,-3.80,10.43,0.00,-6.42,28.54,-114.10,161.10,0.00,-0.22,14.52,59.05,1219,1344,1350,1205,1264,1500,1502,11549,818
85926,1,109.91,-150.99,-16.55,-0.139,0.474,0.854,4.52,-11.77,0.00,0.00,-4.52,11.77,0.00,-8.96,33.36,-118.87,184.35,0.00,-4.91,16.16,67.74,1219,1344,1350,1205,1231,1500,1502,11541,818
85939,1,109.15,-158.28,-18.86,-0.430,-0.011,0.782,3.69,-16.27,0.00,0.00,-3.69,16.27,0.00,-6.11,49.24,-115.26,207.53,0.00,-7.27,16.36,94.47,1219,1344,1350,1205,1231,1500,1502,11541,818
85951,1,108.77,-154.64,-21.15,-0.373,-0.475,1.068,3.27,-17.86,0.00,0.00,-3.27,17.86,0.00,-4.66,54.97,-113.43,209.62,0.00,-6.93,13.43,116.52,1128,1329,1340,1105,1223,1500,1502,11549,819
85962,1,103.26,-146.32,-20.64,-0.519,-0.526,1.175,3.40,-15.64,0.00,0.00,-3.40,15.64,0.00,-5.17,47.33,-108.43,193.66,0.00,-2.31,7.96,98.27,1128,1329,1340,1105,1223,1500,1502,11545,819
85974,9,105.17,-141.10,-26.38,-0.117,0.236,0.936,5.56,-10.56,0.00,0.00,-5.56,10.56,0.00,-19.46,36.96,-124.62,178.06,0.00,-0.18,5.59,192.59,1128,1329,1340,1105,1195,1500,1502,11537,819
85986,9,21.20,-95.40,-50.90,-0.017,1.046,1.896,11.64,-8.86,0.00,0.00,-11.64,8.86,0.00,-40.73,31.01,-61.94,126.41,0.00,32.61,-9.20,350.00,1128,1329,1340,1105,1184,1500,1502,11553,819
85999,9,-50.33,-51.78,-72.29,0.108,1.263,1.151,14.58,-8.03,0.00,0.00,-14.58,8.03,0.00,-51.01,28.12,-0.69,79.89,0.00,44.32,-17.42,350.00,1128,1329,1340,1105,1184,1500,1502,11566,819
86011,9,-69.16,-22.50,-84.42,0.487,0.688,0.042,17.16,-6.17,0.00,0.00,-17.16,6.17,0.00,-60.07,21.60,9.09,44.09,0.00,29.19,-16.83,350.00,1128,1329,1340,1105,1148,1500,1502,11549,819
86022,9,-64.05,-9.59,-86.70,0.577,0.060,0.617,11.32,-4.60,0.00,0.00,-11.32,4.60,0.00,-39.62,16.09,24.43,25.68,0.00,13.05,-14.24,350.00,1128,1329,1340,1105,1148,1500,1502,11537,819
86034,9,-49.51,-5.86,-84.81,0.654,-0.165,0.512,7.34,-0.39,0.00,0.00,-7.34,0.39,0.00,-25.68,1.38,23.83,7.24,0.00,0.75,-9.05,350.00,1128,1329,1340,1105,1135,1500,1502,11541,819
86046,9,-41.89,-9.15,-79.96,0.191,-0.606,0.125,0.85,4.27,0.00,0.00,-0.85,-4.27,0.00,-2.96,-14.94,38.94,-5.79,0.00,-2.33,-3.14,257.36,1128,1329,1340,1105,1135,1500,1502,11549,819
86059,9,-61.37,-18.17,-76.99,-0.850,-0.086,1.632,3.29,-1.32,0.00,0.00,-3.29,1.32,0.00,-11.53,4.62,49.84,22.80,0.00,7.83,4.93,227.33,1100,1100,1100,1100,1135,1500,1502,11557,814
86071,9,-57.78,-19.47,-73.41,-0.448,0.124,1.330,4.58,-4.75,0.00,0.00,-4.58,4.75,0.00,-16.02,16.64,41.76,36.11,0.00,5.64,5.84,185.94,1100,1100,1100,1100,1135,1500,1502,11591,814
86082,9,-41.76,-30.77,-73.61,0.141,0.132,0.556,4.92,-3.37,0.00,0.00,-4.92,3.37,0.00,-17.21,11.78,24.55,42.54,0.00,-2.25,6.78,224.78,1100,1100,1100,1100,1135,1500,1502,11612,814
86094,9,-41.57,-48.01,-72.99,0.637,0.001,0.487,3.09,4.15,0.00,0.00,-3.09,-4.15,0.00,-10.81,-14.52,30.77,33.49,0.00,-1.36,9.58,235.19,1100,1100,1100,1100,1132,1500,1502,11637,814
86106,9,-43.80,-34.58,-70.23,-0.394,0.444,1.253,3.21,2.41,0.00,0.00,-3.21,-2.41,0.00,-11.25,-8.42,32.55,26.16,0.00,2.05,1.82,213.67,1100,1100,1100,1100,1132,1500,1502,11649,814
86119,9,-54.34,-65.34,-70.63,-0.385,0.673,1.024,7.88,0.94,0.00,0.00,-7.88,-0.94,0.00,-27.57,-3.29,26.77,62.05,0.00,7.14,13.73,234.36,1100,1100,1100,1100,1132,1500,1502,11707,814
86131,9,-55.26,-62.71,-68.95,-0.153,0.441,0.824,7.43,-0.80,0.00,0.00,-7.43,0.80,0.00,-25.99,2.79,29.27,65.50,0.00,4.84,7.67,218.15,1100,1100,1100,1100,1100,1500,1502,11720,814
86142,9,-53.59,-58.22,-70.51,0.249,0.145,0.334,5.24,1.79,0.00,0.00,-5.24,-1.79,0.00,-18.35,-6.26,35.24,51.96,0.00,2.03,3.43,258.64,1100,1100,1100,1100,1100,1500,1502,11741,814
86154,9,-52.49,-53.33,-68.46,-0.165,0.036,0.691,2.13,1.68,0.00,0.00,-2.13,-1.68,0.00,-7.44,-5.88,45.05,47.45,0.00,1.71,0.72,180.60,1100,1100,1100,1100,1056,1500,1502,11766,819
86166,9,-69.22,-72.45,-69.19,-0.234,0.070,0.908,3.70,-2.12,0.00,0.00,-3.70,2.12,0.00,-12.93,7.41,56.29,79.87,0.00,9.73,11.37,200.87,1100,1100,1100,1100,1056,1500,1503,11778,819
86179,9,-75.20,-79.97,-69.22,-0.037,0.173,0.738,6.05,-4.33,0.00,0.00,-6.05,4.33,0.00,-21.17,15.15,54.03,95.12,0.00,8.99,12.55,205.76,1100,1100,1100,1100,1056,1500,1503,11811,819
86191,9,-83.88,-85.08,-68.05,0.296,-0.330,0.389,2.76,-2.44,0.00,0.00,-2.76,2.44,0.00,-9.64,8.53,74.24,93.60,0.00,9.06,9.96,176.44,1100,1100,1100,1100,1032,1500,1502,11820,819
86202,9,-95.07,-87.73,-69.01,0.101,-0.237,0.518,2.33,1.11,0.00,0.00,-2.33,-1.11,0.00,-8.17,-3.90,86.90,83.83,0.00,9.60,5.56,183.54,1100,1100,1100,1100,1032,1500,1502,11824,819
86215,9,-103.29,-90.21,-71.06,-0.139,-0.165,0.399,-4.00,6.15,0.00,0.00,4.00,-6.15,0.00,13.99,-21.53,117.29,68.69,0.00,11.14,3.70,207.46,1100,1100,1100,1100,1032,1500,1502,11828,819
86226,9,-109.53,-93.83,-72.53,0.114,-0.014,0.608,0.47,4.25,0.00,0.00,-0.47,-4.25,0.00,-1.65,-14.87,107.88,78.95,0.00,10.65,5.24,219.25,1100,1100,1100,1100,1032,1500,1502,11836,819
86239,9,-124.22,-108.12,-71.62,-0.052,-0.224,0.578,1.12,-0.34,0.00,0.00,-1.12,0.34,0.00,-3.93,1.20,120.29,109.32,0.00,12.63,9.69,197.80,1100,1100,1100,1100,1032,1500,1502,11849,819
86251,9,-156.18,-93.38,-77.90,0.138,0.039,0.629,5.36,-1.56,0.00,0.00,-5.36,1.56,0.00,-18.77,5.48,137.41,98.86,0.00,20.92,0.93,306.56,1100,1100,1100,1100,1032,1500,1502,11849,815
86262,9,-193.92,-70.36,-89.71,0.181,0.386,0.891,6.55,-0.95,0.00,0.00,-6.55,0.95,0.00,-22.93,3.31,170.99,73.68,0.00,27.41,-5.51,350.00,1100,1100,1100,1100,1032,1500,1502,11836,815
86274,9,-218.93,-43.17,-97.88,0.203,-0.043,0.074,1.24,7.26,0.00,0.00,-1.24,-7.26,0.00,-4.35,-25.41,214.57,17.75,0.00,26.78,-10.65,350.00,1100,1100,1100,1100,1032,1500,1502,11836,815
86286,9,-226.30,-9.42,-101.40,-0.461,-0.130,0.368,0.46,-0.93,0.00,0.00,-0.46,0.93,0.00,-1.62,3.26,224.68,12.68,0.00,19.82,-15.02,350.00,1100,1100,1100,1100,1032,1500,1502,11841,815
86299,9,-224.65,4.41,-102.95,-0.422,0.322,0.729,1.14,-6.66,0.00,0.00,-1.14,6.66,0.00,-3.99,23.31,220.66,18.90,0.00,14.68,-11.55,350.00,1100,1100,1100,1100,1032,1500,1502,11845,815
86311,9,-213.28,-6.87,-108.71,0.071,-0.198,0.411,-4.10,-6.84,0.00,0.00,4.10,6.84,0.00,14.36,23.94,227.64,30.80,0.00,6.34,-0.96,350.00,1100,1100,1100,1100,1037,1500,1502,11845,815
86322,9,-111.13,-147.17,-124.41,-0.800,-1.073,1.812,-13.89,-9.88,0.00,0.00,13.89,9.88,0.00,48.61,34.59,159.74,181.76,0.00,-28.37,43.96,350.00,1100,1100,1100,1100,1037,1500,1502,11824,815
86334,9,-27.47,-3.12,-111.89,1.300,-0.585,3.780,-13.47,-9.52,0.00,0.00,13.47,9.52,0.00,47.16,33.32,74.63,36.44,0.00,-37.34,-30.39,276.60,1100,1100,1100,1100,1042,1500,1502,11824,815
86346,9,-1.59,-35.29,-140.45,0.577,-0.724,-0.798,-26.14,-3.86,0.00,0.00,26.14,3.86,0.00,91.51,13.50,93.10,48.79,0.00,-25.86,4.54,350.00,1100,1100,1100,1100,1044,1500,1502,11807,815
86359,9,42.82,15.85,-160.71,-0.413,0.198,1.200,-34.49,-6.01,0.00,0.00,34.49,6.01,0.00,120.70,21.03,77.88,5.18,0.00,-21.88,-9.11,350.00,1100,1100,1100,1100,1044,1500,1502,11820,827
86371,9,89.66,30.81,-161.95,-0.119,-0.127,1.169,-28.09,-3.12,0.00,0.00,28.09,3.12,0.00,98.30,10.91,8.64,-19.90,0.00,-30.28,-12.06,350.00,1100,1100,1100,1100,1076,1500,1502,11803,827
86382,9,52.28,35.00,-167.14,-0.571,-0.174,-0.204,-40.77,-4.21,0.00,0.00,40.77,4.21,0.00,142.69,14.73,90.41,-20.27,0.00,-5.92,-11.92,350.00,1100,1100,1100,1100,1076,1500,1502,11791,827
86394,9,18.18,22.58,-170.21,-0.030,0.492,1.485,-28.08,-1.56,0.00,0.00,28.08,1.56,0.00,98.27,5.48,80.09,-17.11,0.00,8.95,-6.88,350.00,1100,1100,1100,1100,1084,1500,1502,11807,827
86406,9,0.15,-43.61,-171.04,0.581,-0.174,-0.093,-28.99,3.59,0.00,0.00,28.99,-3.59,0.00,101.45,-12.58,101.30,31.02,0.00,13.68,23.97,350.00,1100,1100,1100,1100,1096,1500,1502,11803,827
86419,9,-31.47,-21.43,-168.45,0.145,-0.282,-0.521,-26.36,-2.60,0.00,0.00,26.36,2.60,0.00,92.25,9.10,123.72,30.53,0.00,18.36,12.97,350.00,1100,1100,1100,1100,1096,1500,1502,11807,827
86431,9,-45.98,-15.75,-164.44,-0.282,-0.430,0.876,-19.60,-7.35,0.00,0.00,19.60,7.35,0.00,68.60,25.74,114.58,41.48,0.00,16.34,7.82,350.00,1100,1100,1100,1100,1096,1500,1502,11811,827
86442,9,-45.30,-8.30,-151.36,-0.962,-0.697,0.223,-21.98,-11.00,0.00,0.00,21.98,11.00,0.00,76.94,38.48,122.24,46.78,0.00,10.38,2.94,310.24,1100,1100,1100,1100,1096,1500,1502,11803,827
86454,9,-53.52,-18.88,-133.38,0.326,-0.499,-0.547,-30.14,-3.76,0.00,0.00,30.14,3.76,0.00,105.48,13.17,159.00,32.05,0.00,10.44,5.73,131.57,1100,1100,1100,1100,1096,1500,1502,11795,827
86466,9,-82.64,-13.25,-116.59,0.723,0.237,0.349,-14.83,4.82,0.00,0.00,14.83,-4.82,0.00,51.92,-16.88,134.56,-3.63,0.00,21.68,-3.72,55.33,1100,1100,1100,1100,1101,1500,1502,11820,827
86479,9,-10.80,-52.01,-94.23,-0.116,-0.771,1.086,-17.72,-0.34,0.00,0.00,17.72,0.34,0.00,62.01,1.18,72.82,53.19,0.00,-11.93,8.30,-154.44,1100,1100,1100,1100,1101,1500,1502,11832,827
86491,9,39.77,-58.13,-40.01,-1.299,-0.721,1.809,-16.96,-4.75,0.00,0.00,16.96,4.75,0.00,59.35,16.61,19.59,74.75,0.00,-27.29,10.65,-350.00,1100,1100,1100,1100,1101,1500,1502,11836,827
86502,9,-37.22,-1.69,-25.48,-0.854,-0.246,2.232,-11.60,-6.80,0.00,0.00,11.60,6.80,0.00,40.61,23.78,77.83,25.47,0.00,14.35,-12.62,-350.00,1100,1100,1100,1100,1101,1500,1502,11832,827
86514,9,-37.48,10.81,-12.21,-0.502,0.467,1.298,-8.88,-6.55,0.00,0.00,8.88,6.55,0.00,31.08,22.91,68.56,12.10,0.00,13.26,-16.50,-350.00,1100,1100,1100,1100,1103,1500,1502,11824,827
86527,9,-23.87,-4.48,-2.30,-0.167,0.755,0.055,0.32,-5.91,0.00,0.00,-0.32,5.91,0.00,-1.12,20.68,22.75,25.16,0.00,3.39,-2.31,-350.00,1100,1100,1100,1100,1103,1501,1501,11824,827
86539,9,-40.73,0.68,1.12,-0.754,0.143,0.820,-1.87,-9.58,0.00,0.00,1.87,9.58,0.00,6.54,33.52,47.27,32.84,0.00,7.91,-3.56,-230.67,1100,1100,1100,1100,1103,1501,1501,11845,827
86551,9,-19.98,-33.67,10.12,-0.157,0.139,0.680,-2.31,-11.54,0.00,0.00,2.31,11.54,0.00,8.09,40.41,28.07,74.07,0.00,-0.68,9.58,-266.31,1100,1100,1100,1100,1103,1500,1502,11861,814
86562,9,-17.46,-19.39,17.80,-0.466,0.095,1.490,-1.20,-8.60,0.00,0.00,1.20,8.60,0.00,4.19,30.11,21.65,49.50,0.00,0.88,-1.08,-277.73,1100,1100,1100,1100,1103,1500,1502,11870,814
86574,9,-21.59,-10.67,14.03,-0.955,0.534,1.529,2.28,-11.46,0.00,0.00,-2.28,11.46,0.00,-7.97,40.13,13.61,50.80,0.00,2.90,-4.29,-83.15,1100,1100,1100,1100,1103,1500,1502,11836,814
86586,9,-2.03,8.88,-14.84,-0.227,1.136,0.854,12.29,-13.34,0.00,0.00,-12.29,13.34,0.00,-43.03,46.70,-41.01,37.82,0.00,-4.58,-9.52,350.00,1100,1100,1100,1100,1104,1500,1502,11816,814
86599,9,4.21,-12.64,-38.46,-0.248,0.337,0.951,14.75,-15.79,0.00,0.00,-14.75,15.79,0.00,-51.61,55.27,-55.82,67.91,0.00,-6.27,5.59,350.00,1100,1100,1100,1100,1104,1500,1502,11832,814
86611,9,-9.22,-12.22,-47.51,-0.156,0.244,0.212,20.77,-19.33,0.00,0.00,-20.77,19.33,0.00,-72.70,67.65,-63.48,79.87,0.00,-0.47,4.01,350.00,1100,1100,1100,1100,1104,1500,1502,11824,814
86623,9,-6.62,-16.02,-40.64,-0.088,-0.260,0.912,15.52,-18.59,0.00,0.00,-15.52,18.59,0.00,-54.30,65.05,-47.69,81.07,0.00,-2.20,2.41,222.80,1100,1100,1100,1100,1104,1500,1502,11836,814
86634,9,11.00,-12.90,-28.99,-0.107,-0.421,1.073,10.24,-15.22,0.00,0.00,-10.24,15.22,0.00,-35.82,53.27,-46.83,66.17,0.00,-8.22,3.06,-13.51,1100,1100,1100,1100,1099,1500,1506,11836,814
86646,9,14.27,7.01,-17.17,-0.420,-0.271,0.486,6.92,-17.20,0.00,0.00,-6.92,17.20,0.00,-24.23,60.19,-38.49,53.18,0.00,-5.08,-3.21,-132.68,1100,1100,1100,1100,1103,1500,1502,11845,814
86659,9,10.66,5.55,-14.61,-0.316,-0.190,0.809,6.49,-17.52,0.00,0.00,-6.49,17.52,0.00,-22.70,61.33,-33.36,55.78,0.00,-0.89,-0.45,-77.97,1100,1100,1100,1100,1103,1500,1502,11845,818
86671,9,-6.39,-0.22,-18.85,-0.514,-0.019,1.474,5.88,-17.96,0.00,0.00,-5.88,17.96,0.00,-20.58,62.85,-14.19,63.08,0.00,6.17,4.21,56.86,1100,1100,1100,1100,1103,1500,1502,11811,818
86682,9,-8.94,-3.35,-18.27,-0.309,0.090,0.711,5.62,-18.63,0.00,0.00,-5.62,18.63,0.00,-19.67,65.19,-10.73,68.55,0.00,4.43,4.70,53.04,1100,1100,1100,1100,1103,1500,1502,11807,818
86694,9,-7.50,-5.67,-15.92,-0.387,0.148,0.974,5.63,-18.39,0.00,0.00,-5.63,18.39,0.00,-19.71,64.37,-12.21,70.04,0.00,1.23,3.52,23.98,1100,1100,1100,1100,1103,1500,1502,11774,818
86706,9,-8.27,-4.80,-10.16,-0.125,0.082,0.935,5.15,-16.71,0.00,0.00,-5.15,16.71,0.00,-18.02,58.47,-9.75,63.27,0.00,0.50,2.48,-47.66,1100,1100,1100,1100,1103,1500,1502,11778,818
