time_ms,flags,gyro_x,gyro_y,gyro_z,accel_x,accel_y,accel_z,roll,pitch,angle_sp_roll,angle_sp_pitch,angle_err_roll,angle_err_pitch,angle_i_roll,rate_sp_roll,rate_sp_pitch,rate_err_roll,rate_err_pitch,rate_i_roll,pid_roll,pid_pitch,pid_yaw,m1,m2,m3,m4,rc_thr,rc_roll,rc_pitch,battery_mv,loop_us
112919,9,0.08,-0.01,0.03,0.004,-0.057,0.888,-2.22,-0.01,0.00,0.00,2.22,0.01,0.00,7.78,0.04,7.70,0.04,0.00,0.30,0.00,-0.21,1000,1000,1000,1000,1031,1500,1502,12061,820
112931,9,0.12,0.03,0.09,0.005,-0.058,0.890,-2.22,0.00,0.00,0.00,2.22,-0.00,0.00,7.76,-0.00,7.64,-0.03,0.00,0.29,-0.01,-1.01,1000,1000,1000,1000,1031,1500,1502,12061,820
112943,9,0.12,0.03,0.07,0.006,-0.058,0.890,-2.23,0.01,0.00,0.00,2.23,-0.01,0.00,7.80,-0.03,7.67,-0.07,0.00,0.30,-0.01,-0.22,1000,1000,1000,1000,1031,1500,1502,12061,820
112954,9,0.12,-0.03,0.05,0.005,-0.058,0.891,-2.23,0.02,0.00,0.00,2.23,-0.02,0.00,7.80,-0.07,7.68,-0.04,0.00,0.30,0.01,0.13,1100,1100,1100,1100,1031,1500,1502,12061,828
112966,9,0.12,-0.04,0.07,0.006,-0.058,0.889,-2.24,0.04,0.00,0.00,2.24,-0.04,0.00,7.82,-0.14,7.70,-0.10,0.00,0.31,0.01,-0.44,1100,1100,1100,1100,1031,1500,1502,12061,828
112979,9,0.13,-0.05,0.04,0.004,-0.058,0.889,-2.23,0.04,0.00,0.00,2.23,-0.04,0.00,7.82,-0.14,7.68,-0.09,0.00,0.31,0.00,0.06,1100,1100,1100,1100,1031,1500,1502,12061,828
112991,9,0.18,-0.03,0.07,0.003,-0.059,0.889,-2.24,0.02,0.00,0.00,2.24,-0.02,0.00,7.84,-0.05,7.66,-0.02,0.00,0.29,-0.00,-0.56,1100,1100,1100,1100,1031,1500,1502,12061,828
113002,9,0.13,0.00,0.10,0.004,-0.059,0.890,-2.25,-0.00,0.00,0.00,2.25,0.00,0.00,7.89,0.01,7.76,0.01,0.00,0.32,-0.01,-0.79,1100,1100,1100,1100,1031,1500,1502,12061,828
113014,9,0.11,0.04,0.10,0.003,-0.058,0.890,-2.26,-0.01,0.00,0.00,2.26,0.01,0.00,7.89,0.03,7.78,-0.00,0.00,0.32,-0.02,-0.62,1100,1100,1100,1100,1031,1500,1502,12057,828
113026,9,0.10,0.01,0.05,0.003,-0.059,0.891,-2.25,-0.02,0.00,0.00,2.25,0.02,0.00,7.88,0.06,7.78,0.05,0.00,0.32,-0.01,0.28,1100,1100,1100,1100,1031,1500,1502,12057,828
113039,9,0.12,-0.01,0.03,0.003,-0.057,0.891,-2.23,-0.02,0.00,0.00,2.23,0.02,0.00,7.80,0.06,7.68,0.06,0.00,0.31,0.00,0.35,1100,1100,1100,1100,1031,1500,1502,12044,828
113051,9,0.09,-0.06,0.17,0.003,-0.059,0.894,-2.22,-0.02,0.00,0.00,2.22,0.02,0.00,7.78,0.06,7.70,0.12,0.00,0.31,0.03,-2.14,1100,1100,1100,1100,1031,1500,1502,12049,828
113062,9,0.05,-0.13,0.22,0.003,-0.061,0.891,-2.25,-0.02,0.00,0.00,2.25,0.02,0.00,7.88,0.08,7.83,0.21,0.00,0.33,0.04,-2.08,1100,1100,1100,1100,1031,1500,1502,12044,828
113074,9,0.12,-0.06,0.05,0.003,-0.057,0.893,-2.24,-0.02,0.00,0.00,2.24,0.02,0.00,7.83,0.08,7.71,0.13,0.00,0.29,0.00,1.16,1100,1100,1100,1100,1031,1500,1502,12049,828
113086,9,0.21,-0.03,-0.12,0.005,-0.057,0.889,-2.22,-0.01,0.00,0.00,2.22,0.01,0.00,7.78,0.05,7.58,0.08,0.00,0.26,-0.00,3.34,1100,1100,1100,1100,1031,1500,1502,12040,828
113099,9,0.15,0.01,-0.29,0.006,-0.054,0.889,-2.19,0.00,0.00,0.00,2.19,-0.00,0.00,7.68,-0.01,7.53,-0.02,0.00,0.30,-0.02,4.54,1100,1100,1100,1100,1031,1500,1502,12036,828
113111,9,0.12,0.01,-0.12,0.007,-0.057,0.894,-2.16,0.03,0.00,0.00,2.16,-0.03,0.00,7.57,-0.10,7.45,-0.10,0.00,0.30,-0.01,-0.16,1100,1100,1100,1100,1031,1500,1502,12032,828
113122,9,0.01,-0.01,0.31,0.002,-0.057,0.890,-2.18,0.05,0.00,0.00,2.18,-0.05,0.00,7.63,-0.16,7.63,-0.15,0.00,0.34,-0.00,-6.62,1100,1100,1100,1100,1031,1500,1502,12032,828
113134,9,0.00,-0.10,0.35,0.001,-0.054,0.887,-2.19,-0.01,0.00,0.00,2.19,0.01,0.00,7.67,0.03,7.67,0.13,0.00,0.32,0.08,-4.38,1100,1100,1100,1100,1031,1500,1503,12032,828
113147,9,0.22,-0.21,0.21,0.007,-0.062,0.891,-2.19,0.06,0.00,0.00,2.19,-0.06,0.00,7.68,-0.22,7.46,-0.01,0.00,0.21,0.10,-0.53,1100,1100,1100,1100,1031,1500,1502,12032,828
113159,9,0.46,-0.23,-0.09,0.006,-0.053,0.886,-2.15,0.08,0.00,0.00,2.15,-0.08,0.00,7.52,-0.27,7.06,-0.04,0.00,0.13,0.08,4.48,1100,1100,1100,1100,1031,1500,1502,12011,840
113171,9,0.40,0.03,-0.66,0.002,-0.057,0.904,-2.17,0.04,0.00,0.00,2.17,-0.04,0.00,7.61,-0.14,7.21,-0.17,0.00,0.18,0.02,11.14,1100,1100,1100,1100,1031,1500,1502,11995,840
113182,9,0.12,0.14,-0.22,0.005,-0.048,0.895,-2.08,0.02,0.00,0.00,2.08,-0.02,0.00,7.27,-0.07,7.15,-0.21,0.00,0.30,0.02,-0.45,1100,1100,1100,1100,1031,1500,1502,11978,840
113194,9,0.28,0.62,0.69,0.003,-0.068,0.887,-2.08,-0.02,0.00,0.00,2.08,0.02,0.00,7.28,0.07,7.00,-0.55,0.00,0.20,-0.13,-14.29,1100,1100,1100,1100,1031,1500,1502,11990,840
113206,9,0.22,0.49,0.41,-0.007,-0.060,0.900,-2.26,-0.21,0.00,0.00,2.26,0.21,0.00,7.92,0.74,7.70,0.25,0.00,0.22,0.04,-4.12,1100,1100,1100,1100,1031,1500,1502,11986,840
113219,9,0.21,-0.31,-0.41,0.013,-0.057,0.884,-2.34,-0.27,0.00,0.00,2.34,0.27,0.00,8.18,0.94,7.98,1.25,0.00,0.26,0.37,10.75,1100,1100,1100,1100,1031,1500,1502,11970,840
113231,9,0.40,-0.21,-0.34,0.006,-0.042,0.887,-2.24,-0.28,0.00,0.00,2.24,0.28,0.00,7.84,0.99,7.44,1.20,0.00,0.18,0.21,4.45,1100,1100,1100,1100,1031,1500,1502,11957,840
113242,9,0.03,-0.36,0.21,0.013,-0.047,0.891,-2.12,-0.10,0.00,0.00,2.12,0.10,0.00,7.42,0.34,7.39,0.70,0.00,0.34,0.18,-6.18,1100,1100,1100,1100,1031,1500,1502,11932,840
113254,9,-0.22,-0.28,0.61,0.017,-0.062,0.883,-2.16,0.09,0.00,0.00,2.16,-0.09,0.00,7.58,-0.32,7.80,-0.04,0.00,0.43,0.07,-9.06,1100,1100,1100,1100,1031,1500,1502,11945,922
113266,9,-0.56,0.61,0.08,-0.004,-0.070,0.901,-2.29,-0.04,0.00,0.00,2.29,0.04,0.00,8.01,0.13,8.57,-0.48,0.00,0.55,-0.26,3.27,1100,1100,1100,1100,1031,1500,1502,11911,922
113279,9,-0.20,0.51,-0.31,-0.005,-0.063,0.888,-2.27,0.08,0.00,0.00,2.27,-0.08,0.00,7.94,-0.28,8.14,-0.79,0.00,0.34,-0.23,7.27,1100,1100,1100,1100,1031,1500,1502,11928,922
113291,9,0.19,0.12,-0.26,0.008,-0.051,0.885,-2.21,0.11,0.00,0.00,2.21,-0.11,0.00,7.74,-0.39,7.55,-0.51,0.00,0.19,0.00,2.76,1100,1100,1100,1100,1031,1500,1502,11924,922
113302,9,0.30,-0.54,0.03,0.008,-0.066,0.884,-2.17,0.29,0.00,0.00,2.17,-0.29,0.00,7.60,-1.01,7.29,-0.48,0.00,0.21,0.16,-2.33,1100,1100,1100,1100,1031,1500,1502,11928,922
113314,9,0.25,-0.65,0.19,-0.016,-0.066,0.899,-2.31,0.09,0.00,0.00,2.31,-0.09,0.00,8.10,-0.31,7.85,0.34,0.00,0.30,0.14,-3.97,1100,1100,1100,1100,1031,1500,1502,11928,922
113326,9,-0.04,0.20,0.49,0.007,-0.062,0.894,-2.36,0.01,0.00,0.00,2.36,-0.01,0.00,8.25,-0.05,8.30,-0.25,0.00,0.40,-0.18,-6.79,1100,1100,1100,1100,1031,1500,1502,11936,922
113339,9,-0.78,0.91,-0.23,0.027,-0.053,0.914,-2.28,0.25,0.00,0.00,2.28,-0.25,0.00,7.99,-0.86,8.77,-1.77,0.00,0.59,-0.36,8.01,1100,1100,1100,1100,1031,1500,1502,11957,922
113351,9,-0.14,0.59,-0.53,-0.002,-0.034,0.856,-1.95,0.26,0.00,0.00,1.95,-0.26,0.00,6.84,-0.90,6.98,-1.49,0.00,0.20,-0.12,7.57,1100,1100,1100,1100,1031,1500,1502,11945,918
113362,9,0.18,-0.13,0.86,-0.006,-0.084,0.874,-2.21,0.11,0.00,0.00,2.21,-0.11,0.00,7.75,-0.38,7.57,-0.25,0.00,0.13,0.25,-17.39,1100,1100,1100,1100,1031,1500,1502,11945,918
113374,9,-0.43,0.29,0.60,-0.010,-0.077,0.954,-2.39,-0.04,0.00,0.00,2.39,0.04,0.00,8.36,0.16,8.79,-0.14,0.00,0.49,-0.06,-4.39,1100,1100,1100,1100,1031,1500,1502,11940,918
113386,9,0.57,1.11,-0.87,-0.032,-0.046,0.861,-2.31,-0.49,0.00,0.00,2.31,0.49,0.00,8.07,1.72,7.51,0.61,0.00,0.07,-0.39,18.31,1100,1100,1100,1100,1031,1500,1502,11940,918
113399,9,0.48,0.04,0.01,0.008,-0.065,0.893,-2.52,-0.41,0.00,0.00,2.52,0.41,0.00,8.81,1.44,8.33,1.40,0.00,0.19,0.33,-3.72,1100,1100,1100,1100,1031,1500,1502,11928,918
113411,9,-0.78,-0.39,0.30,0.024,-0.038,0.919,-2.06,0.02,0.00,0.00,2.06,-0.02,0.00,7.20,-0.07,7.97,0.33,0.00,0.50,0.48,-6.08,1100,1100,1100,1100,1031,1500,1502,11932,918
113422,9,-0.36,0.43,0.59,0.007,-0.093,0.806,-2.20,0.16,0.00,0.00,2.20,-0.16,0.00,7.69,-0.57,8.05,-1.00,0.00,0.37,-0.08,-7.78,1100,1100,1100,1100,1031,1500,1502,11924,918
113434,9,-1.64,-0.12,-0.17,0.030,-0.047,0.922,-1.99,0.59,0.00,0.00,1.99,-0.59,0.00,6.96,-2.08,8.61,-1.96,0.00,1.08,-0.20,9.17,1100,1100,1100,1100,1031,1500,1502,11928,918
113446,9,0.73,0.43,-0.67,-0.017,-0.087,0.893,-2.35,0.21,0.00,0.00,2.35,-0.21,0.00,8.22,-0.72,7.48,-1.15,0.00,-0.09,-0.27,10.96,1100,1100,1100,1100,1031,1500,1502,11932,918
113459,9,-0.90,0.04,0.13,0.007,-0.015,0.883,-2.29,0.16,0.00,0.00,2.29,-0.16,0.00,8.02,-0.56,8.92,-0.61,0.00,0.77,-0.09,-6.06,1100,1100,1100,1100,1031,1500,1502,11915,813
113471,9,-0.51,2.16,0.32,-0.009,-0.102,0.919,-2.41,-0.14,0.00,0.00,2.41,0.14,0.00,8.42,0.50,8.93,-1.66,0.00,0.30,-0.69,-6.17,1100,1100,1100,1100,1031,1500,1502,11928,813
113482,9,0.91,-0.82,0.75,0.033,0.005,0.847,-2.07,0.15,0.00,0.00,2.07,-0.15,0.00,7.24,-0.53,6.33,0.29,0.00,-0.13,0.60,-10.42,1100,1100,1100,1100,1031,1500,1502,11932,813
113494,9,-0.29,0.02,-0.37,-0.027,-0.137,0.912,-2.36,0.07,0.00,0.00,2.36,-0.07,0.00,8.27,-0.25,8.56,-0.27,0.00,0.32,0.15,10.69,1100,1100,1100,1100,1031,1500,1502,11928,813
113506,9,1.12,-1.13,0.09,-0.000,-0.014,0.908,-2.27,0.01,0.00,0.00,2.27,-0.01,0.00,7.94,-0.03,6.82,1.10,0.00,-0.11,0.51,-3.07,1100,1100,1100,1100,1031,1500,1502,11949,813
113519,9,-0.13,1.43,0.16,-0.053,-0.154,0.914,-2.59,-0.37,0.00,0.00,2.59,0.37,0.00,9.05,1.29,9.18,-0.15,0.00,0.41,-0.54,-2.62,1100,1100,1100,1100,1031,1500,1502,11945,813
113531,9,0.12,-1.39,0.95,-0.008,-0.027,0.892,-2.45,-0.21,0.00,0.00,2.45,0.21,0.00,8.57,0.74,8.44,2.12,0.00,0.42,0.63,-16.28,1100,1100,1100,1100,1031,1500,1502,11945,813
113542,9,1.08,-0.50,-0.18,-0.026,-0.161,0.943,-2.88,-0.35,0.00,0.00,2.88,0.35,0.00,10.07,1.24,8.99,1.74,0.00,-0.18,0.31,9.32,1100,1100,1100,1100,1031,1500,1502,11945,813
113555,9,0.03,-0.90,-0.03,0.040,0.003,0.813,-2.07,0.16,0.00,0.00,2.07,-0.16,0.00,7.25,-0.55,7.22,0.35,0.00,0.38,0.38,0.95,1100,1100,1100,1100,1031,1500,1502,11936,813
113566,9,1.80,-0.64,-0.57,0.001,-0.131,0.958,-2.54,0.10,0.00,0.00,2.54,-0.10,0.00,8.90,-0.37,7.10,0.28,0.00,-0.43,0.37,39.58,1100,1100,1100,1100,1031,1500,1502,11940,813
113579,9,-1.08,1.13,0.53,-0.051,-0.009,0.840,-2.02,-0.46,0.00,0.00,2.02,0.46,0.00,7.07,1.62,8.16,0.49,0.00,0.88,-0.39,17.39,1100,1100,1100,1100,1031,1500,1502,11945,813
113591,9,1.22,-0.07,-0.14,0.031,-0.093,0.955,-2.48,-0.52,0.00,0.00,2.48,0.52,0.00,8.66,1.82,7.44,1.89,0.00,-0.28,0.52,33.22,1100,1100,1100,1100,1031,1500,1502,11949,813
113602,9,-1.77,-0.00,0.60,-0.005,-0.069,0.832,-2.11,-0.25,0.00,0.00,2.11,0.25,0.00,7.39,0.86,9.16,0.87,0.00,1.00,0.12,19.98,1100,1100,1100,1100,1031,1500,1502,11949,813
113614,9,0.60,1.45,-0.58,0.001,-0.008,0.915,-2.26,-0.76,0.00,0.00,2.26,0.76,0.00,7.91,2.66,7.31,1.22,0.00,-0.01,-0.31,41.43,1100,1100,1100,1100,1031,1500,1502,11945,813
113626,9,0.15,2.18,0.83,-0.026,-0.114,0.907,-2.37,-0.90,0.00,0.00,2.37,0.90,0.00,8.29,3.14,8.15,0.96,0.00,0.21,-0.52,-13.67,1100,1100,1100,1100,1031,1500,1502,11953,813
113639,9,-0.42,0.46,-0.32,0.020,-0.071,0.845,-2.08,-0.40,0.00,0.00,2.08,0.40,0.00,7.26,1.39,7.69,0.93,0.00,0.65,0.23,6.09,1100,1100,1100,1100,1031,1500,1502,11957,813
113651,9,0.69,-1.38,-0.21,0.082,-0.019,0.908,-1.98,0.66,0.00,0.00,1.98,-0.66,0.00,6.94,-2.30,6.25,-0.92,0.00,0.21,0.52,8.29,1100,1100,1100,1100,1031,1500,1502,11961,813
113662,9,0.22,-1.71,0.67,0.010,-0.031,0.752,-1.85,0.96,0.00,0.00,1.85,-0.96,0.00,6.47,-3.36,6.26,-1.64,0.00,0.39,0.22,-13.46,1100,1100,1100,1100,1031,1500,1502,11940,813
113674,9,-1.09,-0.29,-1.35,0.013,-0.066,0.976,-1.93,0.82,0.00,0.00,1.93,-0.82,0.00,6.77,-2.85,7.86,-2.57,0.00,0.75,-0.26,25.62,1100,1100,1100,1100,1031,1500,1502,11928,813
113686,9,1.96,-1.91,1.09,0.086,-0.029,0.858,-1.61,1.08,0.00,0.00,1.61,-1.08,0.00,5.64,-3.78,3.68,-1.87,0.00,-0.65,0.52,-23.87,1100,1100,1100,1100,1031,1500,1502,11928,813
113699,9,0.39,-1.64,0.01,0.005,-0.064,0.808,-1.73,1.29,0.00,0.00,1.73,-1.29,0.00,6.06,-4.51,5.67,-2.87,0.00,0.19,0.09,0.12,1100,1100,1100,1100,1031,1500,1502,11924,813
113711,9,-2.22,1.40,-0.12,-0.031,-0.047,0.958,-1.94,0.56,0.00,0.00,1.94,-0.56,0.00,6.78,-1.94,9.00,-3.34,0.00,1.26,-0.99,6.72,1100,1100,1100,1100,1031,1500,1502,11920,813
113722,9,0.43,1.90,-0.56,-0.072,-0.064,0.975,-2.06,-0.31,0.00,0.00,2.06,0.31,0.00,7.20,1.10,6.77,-0.81,0.00,-0.16,-0.79,6.72,1100,1100,1100,1100,1031,1500,1502,11928,813
113734,9,-0.42,-0.05,0.23,0.018,-0.032,0.817,-1.90,-0.47,0.00,0.00,1.90,0.47,0.00,6.64,1.65,7.07,1.70,0.00,0.47,0.46,-5.33,1100,1100,1100,1100,1031,1500,1502,11928,813
113746,9,1.25,1.87,0.87,-0.009,-0.123,0.885,-2.42,-0.65,0.00,0.00,2.42,0.65,0.00,8.47,2.28,7.22,0.42,0.00,-0.43,0.03,-17.00,1100,1100,1100,1100,1031,1500,1502,11936,813
113759,9,-1.05,0.89,-0.60,0.017,-0.039,0.956,-1.85,0.31,0.00,0.00,1.85,-0.31,0.00,6.49,-1.08,7.53,-1.97,0.00,0.50,-0.04,15.46,1100,1100,1100,1100,1031,1500,1502,11936,813
113771,9,1.71,-3.79,0.23,0.124,0.031,0.788,-1.77,1.17,0.00,0.00,1.77,-1.17,0.00,6.18,-4.09,4.47,-0.30,0.00,-0.24,1.66,-3.14,1100,1100,1100,1100,1031,1500,1502,11936,813
113782,9,0.25,0.10,-0.84,0.078,-0.095,0.812,-1.90,1.58,0.00,0.00,1.90,-1.58,0.00,6.65,-5.52,6.41,-5.63,0.00,0.18,-0.22,12.66,1100,1100,1100,1100,1031,1500,1502,11940,813
113794,9,-3.04,1.50,-0.28,0.074,0.002,0.915,-1.50,2.37,0.00,0.00,1.50,-2.37,0.00,5.26,-8.30,8.30,-9.80,0.00,1.74,-1.29,1.94,1100,1100,1100,1100,1031,1500,1502,11936,813
113806,9,4.21,-0.41,0.92,0.002,-0.083,0.856,-2.32,1.76,0.00,0.00,2.32,-1.76,0.00,8.11,-6.15,3.90,-5.74,0.00,-1.81,0.07,-19.66,1100,1100,1100,1100,1031,1500,1502,11928,813
113819,9,-2.11,3.04,0.35,-0.030,-0.073,0.893,-1.86,1.50,0.00,0.00,1.86,-1.50,0.00,6.51,-5.25,8.62,-8.29,0.00,0.90,-1.18,-0.76,1100,1100,1100,1100,1031,1500,1502,11928,813
113831,9,0.38,-4.16,0.14,0.017,-0.035,0.947,-2.33,1.31,0.00,0.00,2.33,-1.31,0.00,8.17,-4.59,7.79,-0.44,0.00,0.15,2.09,1.01,1100,1100,1100,1100,1031,1500,1502,11928,813
113842,9,-0.17,2.58,-0.31,-0.100,-0.195,0.925,-2.68,0.38,0.00,0.00,2.68,-0.38,0.00,9.39,-1.31,9.56,-3.89,0.00,0.30,-1.15,7.80,1100,1100,1100,1100,1031,1500,1502,11928,813
113854,9,-2.19,-0.66,0.01,0.045,0.013,0.873,-1.95,0.11,0.00,0.00,1.95,-0.11,0.00,6.83,-0.40,9.03,0.26,0.00,1.64,0.16,-2.28,1100,1100,1100,1100,1031,1500,1502,11932,813
113867,9,3.49,-0.63,-0.25,0.030,-0.048,0.919,-2.51,-0.40,0.00,0.00,2.51,0.40,0.00,8.77,1.39,5.28,2.02,0.00,-1.03,0.45,4.26,1100,1100,1100,1100,1031,1500,1502,11940,813
113879,9,-1.57,2.88,0.63,-0.045,-0.074,0.861,-2.03,-0.07,0.00,0.00,2.03,0.07,0.00,7.11,0.23,8.68,-2.64,0.00,1.07,-1.61,-10.76,1100,1100,1100,1100,1031,1500,1502,11932,813
113891,9,0.35,-2.17,-0.30,0.108,0.061,0.783,-1.67,0.64,0.00,0.00,1.67,-0.64,0.00,5.84,-2.23,5.50,-0.07,0.00,0.34,0.79,7.04,1100,1100,1100,1100,1031,1500,1502,11928,813
113902,9,2.03,0.16,-0.08,0.016,-0.075,0.897,-1.95,0.72,0.00,0.00,1.95,-0.72,0.00,6.83,-2.51,4.81,-2.68,0.00,-0.82,-0.02,4.02,1100,1100,1100,1100,1031,1500,1502,11940,813
113914,9,-0.92,-3.37,0.11,0.071,0.029,0.843,-1.33,1.51,0.00,0.00,1.33,-1.51,0.00,4.65,-5.30,5.57,-1.93,0.00,0.69,1.16,-3.55,1100,1100,1100,1100,1031,1500,1502,11940,813
113926,9,1.79,-3.42,-0.59,0.024,-0.157,0.910,-2.43,1.01,0.00,0.00,2.43,-1.01,0.00,8.51,-3.53,6.73,-0.11,0.00,-0.31,1.17,11.49,1100,1100,1100,1100,1031,1500,1502,11949,813
113939,9,-2.28,3.43,0.63,-0.056,-0.196,0.846,-2.74,0.40,0.00,0.00,2.74,-0.40,0.00,9.59,-1.40,11.87,-4.83,0.00,1.37,-1.92,-12.06,1100,1100,1100,1100,1031,1500,1502,11928,813
113951,9,0.44,-0.11,-0.41,-0.006,-0.042,0.937,-2.57,0.12,0.00,0.00,2.57,-0.12,0.00,8.98,-0.42,8.54,-0.31,0.00,-0.03,0.06,5.58,1100,1100,1100,1100,1031,1500,1502,11936,813
113962,9,1.83,-0.28,0.41,-0.017,0.001,0.914,-2.28,0.17,0.00,0.00,2.28,-0.17,0.00,8.00,-0.58,6.16,-0.30,0.00,-0.51,-0.04,-4.79,1100,1100,1100,1100,1031,1500,1502,11928,813
113974,9,-0.65,-1.78,1.26,0.032,-0.031,0.768,-2.54,0.88,0.00,0.00,2.54,-0.88,0.00,8.89,-3.07,9.53,-1.30,0.00,0.73,0.38,-23.02,1100,1100,1100,1100,1031,1500,1502,11936,813
113986,9,-1.33,-0.06,-0.51,-0.022,-0.134,1.040,-2.78,1.22,0.00,0.00,2.78,-1.22,0.00,9.75,-4.28,11.07,-4.21,0.00,1.01,-0.52,13.08,1100,1100,1100,1100,1031,1500,1502,11945,813
113999,9,2.88,-4.73,-0.36,0.106,-0.063,0.786,-2.96,1.59,0.00,0.00,2.96,-1.59,0.00,10.37,-5.55,7.49,-0.82,0.00,-0.45,1.14,8.33,1100,1100,1100,1100,1031,1500,1502,11936,813
114011,9,1.91,0.47,-0.38,-0.039,-0.105,0.732,-3.29,0.61,0.00,0.00,3.29,-0.61,0.00,11.53,-2.13,9.62,-2.61,0.00,0.13,-1.18,5.96,1100,1100,1100,1100,1031,1500,1502,11936,813
114022,9,-0.48,-1.37,0.43,0.040,0.001,0.936,-2.53,0.74,0.00,0.00,2.53,-0.74,0.00,8.86,-2.60,9.34,-1.23,0.00,0.96,-0.05,-4.94,1100,1100,1100,1100,1031,1500,1502,11936,813
114034,9,3.62,-0.91,0.64,0.026,-0.050,0.984,-2.59,0.71,0.00,0.00,2.59,-0.71,0.00,9.05,-2.48,5.43,-1.58,0.00,-1.32,0.31,-9.15,1100,1100,1100,1100,1031,1500,1502,11936,813
114046,9,-2.32,4.27,-0.98,0.011,-0.103,0.898,-1.77,1.44,0.00,0.00,1.77,-1.44,0.00,6.20,-5.05,8.52,-9.33,0.00,1.23,-2.05,20.22,1100,1100,1100,1100,1031,1500,1502,11936,813
114059,9,-3.53,2.54,0.15,0.045,-0.031,0.841,-1.81,1.04,0.00,0.00,1.81,-1.04,0.00,6.33,-3.65,9.86,-6.20,0.00,1.92,-0.55,-2.95,1100,1100,1100,1100,1031,1500,1502,11928,813
114071,9,1.08,2.18,0.06,-0.138,-0.245,1.007,-2.85,-0.86,0.00,0.00,2.85,0.86,0.00,9.98,3.00,8.90,0.81,0.00,-0.79,0.58,0.15,1100,1100,1100,1100,1031,1500,1502,11920,813
114082,9,-2.91,1.88,0.19,-0.060,-0.100,0.881,-2.46,-1.10,0.00,0.00,2.46,1.10,0.00,8.60,3.86,11.51,1.98,0.00,1.39,-0.12,-1.73,1100,1100,1100,1100,1031,1500,1502,11920,813
114094,9,3.85,-2.87,-0.07,0.021,0.006,0.892,-3.02,-1.28,0.00,0.00,3.02,1.28,0.00,10.56,4.49,6.71,7.36,0.00,-1.10,1.62,2.19,1100,1100,1100,1100,1031,1500,1502,11920,813
114106,9,-1.31,0.92,0.19,0.013,-0.050,0.832,-2.54,-0.37,0.00,0.00,2.54,0.37,0.00,8.89,1.30,10.20,0.38,0.00,0.85,-0.36,-2.05,1100,1100,1100,1100,1031,1500,1502,11915,813
114119,9,-1.49,-3.14,0.69,0.084,0.135,0.868,-1.76,0.18,0.00,0.00,1.76,-0.18,0.00,6.15,-0.63,7.64,2.52,0.00,1.23,1.06,-11.95,1100,1100,1100,1100,1031,1500,1502,11928,813
114131,9,4.29,0.24,0.03,-0.011,-0.104,0.854,-2.33,-0.56,0.00,0.00,2.33,0.56,0.00,8.16,1.96,3.87,1.72,0.00,-1.57,0.16,3.46,1100,1100,1100,1100,1031,1500,1502,11932,813
114142,9,-2.81,5.52,0.56,-0.061,-0.094,0.871,-2.26,-1.07,0.00,0.00,2.26,1.07,0.00,7.92,3.73,10.73,-1.79,0.00,1.64,-2.22,-5.68,1100,1100,1100,1100,1031,1500,1502,11932,813
114154,9,0.28,-3.96,-0.77,0.057,-0.031,0.857,-2.60,-0.62,0.00,0.00,2.60,0.62,0.00,9.10,2.15,8.82,6.12,0.00,0.31,2.10,16.44,1100,1100,1100,1100,1031,1500,1502,11928,813
114166,9,3.01,-0.48,0.24,-0.028,-0.047,0.885,-2.38,-0.96,0.00,0.00,2.38,0.96,0.00,8.31,3.35,5.30,3.84,0.00,-1.30,0.35,-3.42,1100,1100,1100,1100,1031,1500,1502,11932,813
114179,9,-1.70,-0.11,0.56,-0.003,-0.029,0.796,-2.05,-0.42,0.00,0.00,2.05,0.42,0.00,7.18,1.45,8.89,1.56,0.00,1.30,-0.25,-11.07,1100,1100,1100,1100,1031,1500,1502,11920,813
114191,9,1.15,-0.44,-0.54,-0.083,-0.136,1.052,-2.75,-1.29,0.00,0.00,2.75,1.29,0.00,9.63,4.52,8.48,4.95,0.00,-0.09,0.49,13.12,1100,1100,1100,1100,1031,1500,1502,11932,813
114202,9,-0.62,1.27,0.62,-0.061,-0.085,0.917,-2.28,-2.14,0.00,0.00,2.28,2.14,0.00,7.99,7.49,8.60,6.22,0.00,0.70,-0.15,-8.89,1100,1100,1100,1100,1031,1500,1502,11928,813
114214,9,-0.16,-0.58,-0.23,-0.003,-0.064,0.779,-2.21,-1.81,0.00,0.00,2.21,1.81,0.00,7.74,6.34,7.90,6.93,0.00,0.77,0.23,6.54,1100,1100,1100,1100,1031,1500,1502,11928,813
114226,9,-0.80,2.39,0.27,0.014,0.001,0.955,-1.77,-1.69,0.00,0.00,1.77,1.69,0.00,6.18,5.91,6.98,3.52,0.00,0.77,-0.86,-1.97,1100,1100,1100,1100,1031,1500,1502,11928,813
114239,9,2.42,-1.53,0.66,-0.039,-0.033,0.963,-2.08,-1.61,0.00,0.00,2.08,1.61,0.00,7.28,5.62,4.86,7.15,0.00,-0.84,1.01,-13.84,1100,1100,1100,1100,1031,1500,1502,11924,813
114251,9,-0.49,1.24,-0.20,-0.041,-0.045,0.850,-1.99,-1.66,0.00,0.00,1.99,1.66,0.00,6.97,5.82,7.46,4.58,0.00,0.84,-0.50,5.04,1100,1100,1100,1100,1031,1500,1502,11928,813
114262,9,-0.57,-0.03,0.05,0.032,0.062,0.825,-1.85,-1.88,0.00,0.00,1.85,1.88,0.00,6.46,6.56,7.03,6.59,0.00,0.86,0.32,-0.33,1100,1100,1100,1100,1031,1500,1502,11928,813
114275,9,-0.53,1.41,0.33,0.018,-0.087,0.928,-2.05,-1.48,0.00,0.00,2.05,1.48,0.00,7.18,5.17,7.72,3.76,0.00,0.26,-0.12,-6.83,1100,1100,1100,1100,1031,1500,1502,11924,813
114286,9,0.10,-2.02,0.30,0.107,0.003,0.822,-1.49,-0.01,0.00,0.00,1.49,0.01,0.00,5.20,0.04,5.11,2.06,0.00,0.19,0.87,-2.56,1100,1100,1100,1100,1031,1500,1502,11928,813
114299,9,4.31,-0.71,0.44,-0.066,-0.043,0.836,-2.32,-0.25,0.00,0.00,2.32,0.25,0.00,8.10,0.86,3.80,1.58,0.00,-1.67,0.57,-5.56,1100,1100,1100,1100,1031,1500,1502,11932,813
114311,9,-3.83,7.37,-0.89,-0.170,-0.143,0.971,-2.09,-1.05,0.00,0.00,2.09,1.05,0.00,7.33,3.69,11.16,-3.68,0.00,1.56,-2.51,19.11,1100,1100,1100,1100,1031,1500,1502,11915,813
114322,9,-0.70,-0.33,-0.05,-0.013,-0.002,0.969,-1.94,-2.04,0.00,0.00,1.94,2.04,0.00,6.81,7.15,7.51,7.48,0.00,0.68,1.21,-0.65,1100,1100,1100,1100,1031,1500,1502,11928,813
114334,9,3.59,-2.54,0.16,0.010,-0.235,0.824,-3.01,-2.06,0.00,0.00,3.01,2.06,0.00,10.54,7.21,6.95,9.76,0.00,-1.35,2.18,-5.03,1100,1100,1100,1100,1031,1500,1502,11928,813
114346,9,-4.96,2.93,0.60,-0.044,-0.101,0.950,-2.18,-0.77,0.00,0.00,2.18,0.77,0.00,7.63,2.71,12.60,-0.23,0.00,2.53,-1.40,-9.17,1100,1100,1100,1100,1031,1500,1502,11924,813
114359,9,1.98,-2.35,0.19,0.024,-0.027,0.961,-2.58,-0.79,0.00,0.00,2.58,0.79,0.00,9.05,2.75,7.07,5.10,0.00,-0.43,1.05,1.37,1100,1100,1100,1100,1031,1500,1502,11924,813
114371,9,-0.67,4.00,-0.33,-0.018,-0.100,0.850,-2.25,-0.94,0.00,0.00,2.25,0.94,0.00,7.88,3.28,8.55,-0.72,0.00,0.42,-1.50,9.33,1100,1100,1100,1100,1031,1500,1502,11928,813
114382,9,-2.54,-0.24,-0.24,0.012,0.105,0.875,-0.61,-0.33,0.00,0.00,0.61,0.33,0.00,2.15,1.14,4.69,1.38,0.00,1.16,0.34,1.07,1100,1100,1100,1100,1031,1500,1502,11928,813
114394,9,2.61,-1.93,0.46,0.042,-0.056,0.972,-1.43,-0.33,0.00,0.00,1.43,0.33,0.00,5.01,1.16,2.40,3.09,0.00,-1.24,1.41,-10.87,1100,1100,1100,1100,1031,1500,1502,11928,813
114406,9,-2.19,0.59,0.74,0.043,-0.099,0.752,-1.51,0.80,0.00,0.00,1.51,-0.80,0.00,5.29,-2.80,7.48,-3.39,0.00,0.98,-0.81,-13.20,1100,1100,1100,1100,1031,1500,1502,11928,813
114419,9,0.17,-2.75,-0.33,0.071,-0.049,0.804,-2.18,1.42,0.00,0.00,2.18,-1.42,0.00,7.63,-4.98,7.46,-2.24,0.00,0.27,0.37,8.08,1100,1100,1100,1100,1031,1500,1502,11940,813
114431,9,3.29,-2.37,-0.21,0.080,-0.073,0.880,-2.67,1.53,0.00,0.00,2.67,-1.53,0.00,9.33,-5.36,6.04,-2.99,0.00,-1.12,0.43,5.73,1100,1100,1100,1100,1031,1500,1502,11940,813
114442,9,-0.42,-3.53,0.59,0.047,0.011,0.721,-2.43,2.11,0.00,0.00,2.43,-2.11,0.00,8.51,-7.37,8.93,-3.84,0.00,0.85,0.29,-12.74,1100,1100,1100,1100,1031,1500,1502,11936,813
114454,9,2.37,-2.59,0.62,0.030,-0.046,0.965,-2.17,2.29,0.00,0.00,2.17,-2.29,0.00,7.60,-8.02,5.23,-5.42,0.00,-0.70,0.01,-9.56,1100,1100,1100,1100,1031,1500,1502,11928,813
114466,9,2.94,-0.80,0.29,0.029,-0.105,0.913,-1.91,2.19,0.00,0.00,1.91,-2.19,0.00,6.70,-7.67,3.76,-6.87,0.00,-0.77,-0.66,1.63,1100,1100,1100,1100,1031,1500,1502,11932,813
114479,9,-0.47,-0.49,-0.84,-0.034,-0.168,0.674,-2.58,1.66,0.00,0.00,2.58,-1.66,0.00,9.03,-5.79,9.50,-5.30,0.00,1.01,-0.49,19.44,1100,1100,1100,1100,1031,1500,1502,11911,813
114491,9,-2.95,0.05,-1.65,0.020,-0.048,0.951,-2.29,1.08,0.00,0.00,2.29,-1.08,0.00,8.00,-3.79,10.95,-3.84,0.00,1.77,-0.32,30.04,1100,1100,1100,1100,1031,1500,1502,11920,813
114502,9,4.02,-4.46,0.52,0.012,-0.048,0.908,-2.55,0.62,0.00,0.00,2.55,-0.62,0.00,8.94,-2.15,4.92,2.30,0.00,-1.55,1.71,-16.25,1100,1100,1100,1100,1031,1500,1502,11915,813
114514,9,0.48,0.84,0.75,-0.047,-0.150,0.803,-2.57,0.86,0.00,0.00,2.57,-0.86,0.00,8.99,-3.01,8.51,-3.85,0.00,0.18,-0.83,-13.91,1100,1100,1100,1100,1031,1500,1502,11928,813
114526,9,-3.87,2.88,0.52,-0.041,-0.101,0.936,-2.78,0.18,0.00,0.00,2.78,-0.18,0.00,9.72,-0.62,13.59,-3.50,0.00,2.31,-1.35,-1.15,1100,1100,1100,1100,1031,1500,1502,11924,813
114539,9,3.54,-1.40,0.08,-0.042,-0.145,0.993,-2.97,-0.86,0.00,0.00,2.97,0.86,0.00,10.40,3.01,6.86,4.41,0.00,-1.45,1.29,7.14,1100,1100,1100,1100,1031,1500,1502,11924,813
114551,9,-2.53,0.21,-0.75,0.044,-0.047,0.799,-1.86,0.41,0.00,0.00,1.86,-0.41,0.00,6.52,-1.44,9.05,-1.65,0.00,1.53,-0.64,14.90,1100,1100,1100,1100,1031,1501,1502,11928,813
114562,9,-0.14,-3.28,-0.13,0.080,0.027,0.896,-2.01,1.04,0.00,0.00,2.01,-1.04,0.00,7.05,-3.64,7.19,-0.36,0.00,0.65,0.82,-2.43,1100,1100,1100,1100,1031,1500,1502,11932,813
114574,9,-0.53,2.70,0.54,-0.088,-0.172,1.035,-2.30,0.70,0.00,0.00,2.30,-0.70,0.00,8.05,-2.45,8.58,-5.15,0.00,0.12,-1.30,-13.11,1100,1100,1100,1100,1031,1500,1502,11924,813
114586,9,-6.17,5.44,0.72,-0.062,-0.004,0.843,-1.78,-0.19,0.00,0.00,1.78,0.19,0.00,6.22,0.67,12.39,-4.77,0.00,2.98,-2.43,-10.69,1100,1100,1100,1100,1031,1500,1502,11924,813
114599,9,2.78,-0.47,-0.20,0.053,-0.018,0.893,-2.18,-0.73,0.00,0.00,2.18,0.73,0.00,7.63,2.56,4.86,3.03,0.00,-1.34,1.10,8.48,1100,1100,1100,1100,1031,1500,1502,11928,813
114611,9,0.59,1.91,0.42,-0.014,-0.069,0.887,-1.84,-0.55,0.00,0.00,1.84,0.55,0.00,6.45,1.94,5.86,0.03,0.00,-0.40,-0.41,-7.38,1100,1100,1100,1100,1031,1500,1502,11915,813
114622,9,0.32,-2.68,0.33,-0.003,0.014,0.797,-1.98,-0.17,0.00,0.00,1.98,0.17,0.00,6.93,0.60,6.61,3.28,0.00,0.45,1.33,-6.74,1100,1100,1100,1100,1031,1500,1502,11924,813
114634,9,3.06,-1.49,-0.17,-0.035,-0.110,1.008,-2.74,-0.59,0.00,0.00,2.74,0.59,0.00,9.61,2.07,6.55,3.56,0.00,-0.85,0.81,5.49,1100,1100,1100,1100,1031,1500,1502,11920,813
114646,9,-3.59,3.93,0.25,-0.024,-0.034,0.732,-2.38,-1.03,0.00,0.00,2.38,1.03,0.00,8.31,3.61,11.91,-0.32,0.00,2.25,-1.82,-2.83,1100,1100,1100,1100,1031,1500,1502,11924,813
114659,9,1.69,-0.84,0.01,0.076,-0.011,0.907,-2.15,-0.51,0.00,0.00,2.15,0.51,0.00,7.53,1.80,5.84,2.64,0.00,-0.43,0.94,0.85,1100,1100,1100,1100,1031,1500,1502,11928,813
114671,9,1.97,0.61,0.48,-0.010,-0.132,0.950,-2.28,-0.45,0.00,0.00,2.28,0.45,0.00,7.97,1.58,6.00,0.97,0.00,-0.67,0.27,-5.75,1100,1100,1100,1100,1031,1500,1502,11940,813
114683,9,-1.05,1.86,-0.19,-0.077,-0.087,0.753,-2.23,-0.56,0.00,0.00,2.23,0.56,0.00,7.79,1.97,8.84,0.11,0.00,1.00,-0.65,4.04,1100,1100,1100,1100,1031,1500,1502,11945,813
114694,9,-0.66,0.89,-1.35,-0.058,-0.084,1.060,-2.37,-1.13,0.00,0.00,2.37,1.13,0.00,8.30,3.94,8.96,3.05,0.00,0.57,0.04,24.10,1100,1100,1100,1100,1031,1500,1502,11940,813
114706,9,0.99,-0.71,1.08,-0.044,-0.111,0.940,-2.71,-1.44,0.00,0.00,2.71,1.44,0.00,9.48,5.03,8.49,5.73,0.00,0.08,0.49,-22.91,1100,1100,1100,1100,1034,1500,1502,11932,813
114719,9,-1.02,-1.19,0.39,0.031,-0.091,0.739,-2.87,-0.63,0.00,0.00,2.87,0.63,0.00,10.06,2.19,11.08,3.38,0.00,1.10,0.39,-4.38,1100,1100,1100,1100,1034,1500,1502,11924,813
114731,9,-3.06,2.47,0.11,0.027,-0.043,1.005,-2.82,-0.25,0.00,0.00,2.82,0.25,0.00,9.88,0.88,12.94,-1.59,0.00,1.86,-1.40,3.34,1100,1100,1100,1100,1040,1500,1502,11924,813
114742,9,3.44,0.76,0.45,0.008,-0.094,0.925,-2.70,-0.19,0.00,0.00,2.70,0.19,0.00,9.44,0.68,6.00,-0.09,0.00,-1.21,-0.28,-5.63,1100,1100,1100,1100,1040,1500,1502,11924,813
114754,9,-1.44,0.82,-0.33,0.001,-0.064,0.877,-2.56,0.21,0.00,0.00,2.56,-0.21,0.00,8.95,-0.74,10.39,-1.56,0.00,1.38,-0.84,5.75,1100,1100,1100,1100,1046,1500,1502,11920,813
114766,9,-2.04,-3.51,-0.14,0.127,0.050,0.829,-2.43,0.82,0.00,0.00,2.43,-0.82,0.00,8.51,-2.88,10.55,0.63,0.00,1.73,1.10,1.16,1100,1100,1100,1100,1047,1500,1502,11920,813
114779,9,1.33,3.26,0.41,-0.052,-0.049,0.986,-2.26,0.46,0.00,0.00,2.26,-0.46,0.00,7.90,-1.60,6.56,-4.86,0.00,-0.56,-1.58,-10.34,1100,1100,1100,1100,1047,1500,1502,11911,813
114791,9,-1.65,1.53,0.32,-0.012,-0.009,0.846,-2.05,0.29,0.00,0.00,2.05,-0.29,0.00,7.17,-1.03,8.82,-2.56,0.00,1.26,-0.77,-6.18,1100,1100,1100,1100,1048,1500,1502,11928,813
114802,9,4.37,-2.70,0.54,-0.003,-0.076,0.824,-2.86,-0.69,0.00,0.00,2.86,0.69,0.00,10.00,2.40,5.63,5.10,0.00,-1.26,1.71,-7.91,1100,1100,1100,1100,1048,1500,1502,11932,813
114814,9,-2.11,2.23,0.02,-0.072,-0.107,0.908,-2.59,-0.61,0.00,0.00,2.59,0.61,0.00,9.06,2.14,11.17,-0.09,0.00,1.07,-0.81,3.55,1100,1100,1100,1100,1048,1500,1502,11924,813
114826,9,-1.47,-3.84,-0.66,0.113,0.104,0.876,-1.46,0.54,0.00,0.00,1.46,-0.54,0.00,5.09,-1.88,6.57,1.96,0.00,1.10,1.22,12.91,1100,1100,1100,1100,1050,1500,1502,11924,813
114839,9,4.92,-1.19,0.08,0.059,-0.055,0.821,-2.15,0.38,0.00,0.00,2.15,-0.38,0.00,7.51,-1.34,2.59,-0.15,0.00,-2.03,0.49,-1.96,1100,1100,1100,1100,1050,1500,1502,11920,813
114851,9,-4.30,4.51,0.67,-0.054,-0.183,0.850,-2.20,0.88,0.00,0.00,2.20,-0.88,0.00,7.69,-3.06,11.98,-7.58,0.00,1.97,-1.99,-11.32,1100,1100,1100,1100,1050,1500,1502,11915,813
114862,9,-0.35,-2.23,-0.10,0.011,-0.089,0.960,-2.43,0.69,0.00,0.00,2.43,-0.69,0.00,8.52,-2.41,8.87,-0.18,0.00,0.29,1.23,6.49,1100,1100,1100,1100,1050,1500,1502,11915,813
114874,9,1.84,2.20,-0.20,-0.035,-0.153,0.864,-2.78,0.25,0.00,0.00,2.78,-0.25,0.00,9.74,-0.88,7.90,-3.09,0.00,-0.82,-0.90,9.13,1100,1100,1100,1100,1062,1500,1502,11928,813
114887,9,-2.16,-0.79,-0.26,0.054,-0.008,0.807,-2.03,1.53,0.00,0.00,2.03,-1.53,0.00,7.12,-5.35,9.28,-4.57,0.00,1.35,0.01,3.99,1100,1100,1100,1100,1062,1500,1502,11928,813
114899,9,2.34,-2.13,-0.66,0.079,0.003,0.967,-2.33,1.48,0.00,0.00,2.33,-1.48,0.00,8.15,-5.18,5.81,-3.06,0.00,-0.70,0.92,10.51,1100,1100,1100,1100,1062,1500,1502,11936,813
114911,9,0.31,4.24,1.25,-0.117,-0.157,0.954,-2.18,0.60,0.00,0.00,2.18,-0.60,0.00,7.63,-2.10,7.32,-6.34,0.00,0.32,-1.99,-23.95,1100,1100,1100,1100,1070,1500,1502,11936,813
114922,9,-0.48,0.80,0.24,0.059,-0.031,0.816,-1.83,0.92,0.00,0.00,1.83,-0.92,0.00,6.39,-3.22,6.88,-4.02,0.00,1.10,-0.43,-2.25,1100,1100,1100,1100,1070,1500,1502,11936,813
114934,9,-0.48,1.42,-0.47,0.015,-0.009,0.938,-2.20,0.75,0.00,0.00,2.20,-0.75,0.00,7.69,-2.64,8.16,-4.06,0.00,0.67,-0.55,12.67,1100,1100,1100,1100,1071,1500,1502,11936,813
114946,9,-0.38,-1.62,0.21,0.041,0.001,0.883,-1.80,1.28,0.00,0.00,1.80,-1.28,0.00,6.32,-4.47,6.69,-2.84,0.00,0.37,0.65,-5.77,1100,1100,1100,1100,1071,1500,1502,11932,813
114959,9,0.47,-0.70,0.01,0.068,-0.021,0.797,-2.00,1.16,0.00,0.00,2.00,-1.16,0.00,6.99,-4.06,6.52,-3.36,0.00,0.17,0.15,-2.42,1100,1100,1100,1100,1071,1500,1502,11924,813
114971,9,-0.43,0.87,0.67,0.020,-0.078,0.869,-2.53,1.12,0.00,0.00,2.53,-1.12,0.00,8.86,-3.93,9.29,-4.80,0.00,0.42,-0.46,-10.81,1100,1100,1100,1100,1075,1500,1502,11940,813
114982,9,1.03,-1.17,0.47,-0.017,-0.098,0.930,-2.71,0.57,0.00,0.00,2.71,-0.57,0.00,9.47,-2.01,8.44,-0.84,0.00,-0.29,0.39,-8.21,1100,1100,1100,1100,1075,1500,1502,11940,813
114994,9,1.15,-2.12,-0.52,0.086,-0.011,0.766,-2.55,1.11,0.00,0.00,2.55,-1.11,0.00,8.93,-3.87,7.78,-1.75,0.00,0.16,0.43,15.13,1100,1100,1100,1100,1075,1500,1502,11936,813
115006,9,2.37,-4.99,-0.01,0.112,-0.015,0.784,-2.69,2.15,0.00,0.00,2.69,-2.15,0.00,9.41,-7.53,7.03,-2.55,0.00,-0.30,1.33,2.27,1100,1100,1100,1100,1085,1500,1502,11940,813
115019,9,-0.07,-1.40,-0.64,0.050,-0.157,0.908,-2.95,2.15,0.00,0.00,2.95,-2.15,0.00,10.33,-7.53,10.39,-6.13,0.00,0.38,-0.17,11.99,1100,1100,1100,1100,1085,1500,1502,11928,813
115031,9,0.63,-3.33,-0.47,0.031,-0.112,0.923,-2.57,2.19,0.00,0.00,2.57,-2.19,0.00,8.98,-7.65,8.36,-4.32,0.00,0.33,0.59,7.27,1100,1100,1100,1100,1085,1500,1502,11924,813
115042,9,2.41,-2.35,0.39,0.059,-0.131,0.822,-2.75,2.59,0.00,0.00,2.75,-2.59,0.00,9.61,-9.07,7.20,-6.72,0.00,-0.65,0.06,-10.22,1100,1100,1100,1100,1085,1500,1502,11920,813
115054,9,-4.57,0.44,0.30,0.057,-0.110,0.900,-2.37,3.94,0.00,0.00,2.37,-3.94,0.00,8.30,-13.78,12.87,-14.22,0.00,2.30,-1.90,-3.03,1100,1100,1100,1100,1086,1500,1502,11924,815
115066,9,-1.15,-2.57,-0.07,0.130,0.011,0.902,-2.36,4.18,0.00,0.00,2.36,-4.18,0.00,8.27,-14.61,9.42,-12.04,0.00,0.88,-0.29,6.62,1100,1100,1100,1100,1086,1500,1502,11924,815
115079,9,0.66,3.17,-0.03,-0.097,-0.209,0.896,-3.21,2.16,0.00,0.00,3.21,-2.16,0.00,11.23,-7.55,10.57,-10.72,0.00,-0.34,-1.77,0.26,1100,1100,1100,1100,1086,1500,1502,11924,815
115091,9,-3.69,4.82,0.08,-0.132,-0.097,0.998,-2.81,1.01,0.00,0.00,2.81,-1.01,0.00,9.83,-3.53,13.52,-8.35,0.00,1.93,-2.11,-4.05,1100,1100,1100,1100,1086,1500,1502,11928,815
115102,9,3.86,-2.64,0.43,0.053,0.045,0.859,-2.78,0.10,0.00,0.00,2.78,-0.10,0.00,9.74,-0.36,5.88,2.27,0.00,-1.36,1.69,-5.46,1100,1100,1100,1100,1086,1500,1502,11928,815
115114,9,-0.95,-1.41,0.70,0.001,-0.057,0.797,-2.53,0.86,0.00,0.00,2.53,-0.86,0.00,8.86,-3.00,9.81,-1.59,0.00,0.68,0.34,-7.57,1100,1100,1100,1100,1087,1500,1502,11928,815
115126,9,-0.92,-4.73,-0.31,0.144,0.051,0.819,-1.94,1.83,0.00,0.00,1.94,-1.83,0.00,6.80,-6.41,7.72,-1.68,0.00,1.03,1.30,9.04,1100,1100,1100,1100,1089,1500,1502,11928,815
115139,9,4.58,-1.04,-0.32,-0.046,-0.127,0.924,-2.86,0.94,0.00,0.00,2.86,-0.94,0.00,10.02,-3.30,5.45,-2.26,0.00,-1.68,-0.12,5.31,1100,1100,1100,1100,1089,1500,1502,11928,815
115151,9,-3.11,3.76,0.22,-0.106,-0.128,0.845,-2.44,0.32,0.00,0.00,2.44,-0.32,0.00,8.54,-1.12,11.66,-4.88,0.00,1.77,-2.22,-6.16,1100,1100,1100,1100,1096,1500,1502,11928,815
115162,9,-0.67,-1.64,-0.21,0.021,-0.085,0.904,-2.99,-0.27,0.00,0.00,2.99,0.27,0.00,10.48,0.94,11.14,2.58,0.00,0.73,0.82,6.95,1100,1100,1100,1100,1096,1500,1502,11920,815
115174,9,2.37,-1.70,0.56,0.012,-0.128,0.875,-3.07,0.04,0.00,0.00,3.07,-0.04,0.00,10.74,-0.14,8.37,1.56,0.00,-0.87,0.53,-5.39,1100,1100,1100,1100,1098,1500,1502,11911,815
115186,9,-0.56,-2.23,0.26,-0.002,0.001,0.797,-2.46,0.96,0.00,0.00,2.46,-0.96,0.00,8.60,-3.38,9.16,-1.15,0.00,0.87,0.04,-1.21,1100,1100,1100,1100,1106,1500,1502,11911,815
115199,9,3.28,-4.23,-0.50,0.077,-0.022,0.919,-2.72,0.72,0.00,0.00,2.72,-0.72,0.00,9.52,-2.52,6.24,1.71,0.00,-0.85,1.34,11.08,1100,1100,1100,1100,1106,1500,1502,11911,815
115211,9,-0.76,0.47,0.04,-0.026,-0.200,0.888,-2.25,0.72,0.00,0.00,2.25,-0.72,0.00,7.86,-2.52,8.62,-2.99,0.00,0.85,-0.94,-2.12,1100,1100,1100,1100,1107,1500,1502,11915,815
115222,9,-2.53,-1.51,-0.27,0.115,-0.051,0.789,-1.98,1.51,0.00,0.00,1.98,-1.51,0.00,6.92,-5.29,9.45,-3.78,0.00,1.82,-0.56,4.91,1100,1100,1100,1100,1107,1500,1502,11928,815
115234,9,-0.78,-1.91,0.34,0.050,-0.020,0.928,-2.04,1.86,0.00,0.00,2.04,-1.86,0.00,7.13,-6.50,7.90,-4.59,0.00,0.59,-0.35,23.65,1100,1100,1100,1100,1109,1500,1502,11932,815
115246,9,1.21,-1.25,0.60,-0.035,-0.004,0.877,-2.07,1.34,0.00,0.00,2.07,-1.34,0.00,7.25,-4.68,6.04,-3.42,0.00,-0.44,-0.40,17.63,1100,1100,1100,1100,1109,1500,1502,11928,815
115259,9,-0.10,1.80,-0.01,-0.089,-0.050,0.883,-2.39,0.18,0.00,0.00,2.39,-0.18,0.00,8.36,-0.62,8.46,-2.42,0.00,0.50,-1.21,27.09,1100,1100,1100,1100,1109,1500,1502,11924,816
115271,9,-0.08,2.78,0.62,-0.027,-0.031,1.014,-2.48,-0.66,0.00,0.00,2.48,0.66,0.00,8.67,2.30,8.74,-0.48,0.00,0.54,-1.04,-11.84,1100,1100,1100,1100,1116,1500,1502,11911,816
115282,9,1.70,0.36,1.01,0.037,-0.091,0.873,-2.66,-0.61,0.00,0.00,2.66,0.61,0.00,9.30,2.14,7.60,1.78,0.00,-0.30,-0.08,-15.72,1100,1100,1100,1100,1116,1500,1502,11911,816
115295,9,-1.41,-0.22,0.13,0.039,0.025,0.800,-2.19,0.26,0.00,0.00,2.19,-0.26,0.00,7.67,-0.90,9.08,-0.67,0.00,1.37,-0.37,4.85,1100,1100,1100,1100,1116,1500,1502,11915,816
115306,9,1.34,-3.72,0.20,0.051,0.080,0.813,-2.36,0.09,0.00,0.00,2.36,-0.09,0.00,8.27,-0.32,6.93,3.40,0.00,0.02,1.50,3.18,1100,1100,1100,1100,1127,1500,1502,11911,816
115319,9,1.12,0.30,0.41,-0.054,-0.077,0.916,-2.67,-0.67,0.00,0.00,2.67,0.67,0.00,9.36,2.34,8.25,2.04,0.00,-0.34,-0.22,-7.24,1100,1100,1100,1100,1127,1500,1502,11928,816
115331,9,-1.21,-3.30,-0.39,0.151,-0.036,0.787,-2.12,1.31,0.00,0.00,2.12,-1.31,0.00,7.40,-4.59,8.61,-1.30,0.00,1.04,0.65,8.59,1100,1100,1100,1100,1132,1500,1502,11928,816
115342,9,2.69,-2.97,0.19,0.103,-0.116,0.775,-3.01,2.43,0.00,0.00,3.01,-2.43,0.00,10.54,-8.49,7.85,-5.52,0.00,-0.91,0.40,-1.11,1100,1100,1100,1100,1132,1500,1502,11928,816
115354,9,-2.90,2.23,-0.48,-0.003,-0.080,0.901,-2.42,2.36,0.00,0.00,2.42,-2.36,0.00,8.48,-8.24,11.38,-10.47,0.00,1.22,-1.55,11.32,1100,1100,1100,1100,1132,1500,1502,11920,821
115366,9,0.58,-3.37,0.03,0.057,0.048,0.863,-2.25,1.86,0.00,0.00,2.25,-1.86,0.00,7.87,-6.51,7.29,-3.14,0.00,0.13,1.06,-0.33,1100,1100,1100,1100,1141,1500,1502,11915,821
115379,9,3.48,-0.72,0.50,-0.086,-0.219,0.949,-3.16,0.44,0.00,0.00,3.16,-0.44,0.00,11.05,-1.54,7.57,-0.82,0.00,-1.36,0.33,-10.72,1100,1100,1100,1100,1141,1500,1502,11928,821
115391,9,-4.13,0.82,-0.41,0.024,-0.084,0.875,-2.46,0.84,0.00,0.00,2.46,-0.84,0.00,8.61,-2.92,12.74,-3.75,0.00,2.31,-0.89,9.61,1100,1100,1100,1100,1143,1500,1502,11932,821
115403,9,1.31,-1.67,0.21,-0.030,-0.036,0.930,-3.01,-0.05,0.00,0.00,3.01,0.05,0.00,10.55,0.18,9.24,1.84,0.00,0.16,0.29,-0.53,1100,1100,1100,1100,1143,1500,1502,11928,821
115414,9,-0.16,3.96,0.70,-0.083,-0.117,0.912,-2.84,-1.04,0.00,0.00,2.84,1.04,0.00,9.95,3.65,10.11,-0.30,0.00,0.38,-1.61,-10.39,1100,1100,1100,1100,1144,1500,1502,11928,821
115426,9,-1.03,-0.95,0.44,-0.062,0.030,0.975,-2.41,-1.34,0.00,0.00,2.41,1.34,0.00,8.43,4.70,9.46,5.65,0.00,1.00,0.47,-7.17,1100,1100,1100,1100,1144,1500,1502,11924,821
115439,9,2.93,-2.64,0.09,-0.026,-0.094,0.946,-2.83,-1.62,0.00,0.00,2.83,1.62,0.00,9.90,5.66,6.97,8.30,0.00,-0.86,1.42,-0.98,1100,1100,1100,1100,1144,1500,1502,11928,821
115451,9,-5.28,5.05,-0.03,0.019,-0.056,0.780,-2.08,-1.08,0.00,0.00,2.08,1.08,0.00,7.29,3.77,12.57,-1.28,0.00,2.79,-2.49,2.40,1100,1100,1100,1100,1147,1500,1502,11928,820
115462,9,-0.22,-0.42,0.08,-0.001,0.031,0.948,-2.24,-1.33,0.00,0.00,2.24,1.33,0.00,7.84,4.65,8.05,5.07,0.00,0.34,0.31,-0.13,1100,1100,1100,1100,1147,1500,1502,11928,820
115474,9,2.95,-0.44,0.03,-0.056,-0.092,0.910,-2.42,-1.81,0.00,0.00,2.42,1.81,0.00,8.48,6.34,5.53,6.77,0.00,-1.29,0.73,1.76,1100,1100,1100,1100,1147,1500,1502,11928,820
115487,9,-0.52,1.51,0.75,-0.113,-0.044,0.801,-2.38,-2.65,0.00,0.00,2.38,2.65,0.00,8.34,9.26,8.86,7.75,0.00,0.48,-0.08,-14.16,1100,1100,1100,1100,1150,1500,1502,11936,820
115499,9,-0.62,-1.20,-0.33,0.021,-0.149,1.008,-2.66,-1.87,0.00,0.00,2.66,1.87,0.00,9.31,6.56,9.93,7.76,0.00,0.55,1.01,9.22,1100,1100,1100,1100,1150,1500,1502,11924,820
115511,9,2.80,-3.30,0.26,0.062,-0.103,0.845,-2.77,-0.68,0.00,0.00,2.77,0.68,0.00,9.71,2.39,6.91,5.69,0.00,-0.62,0.92,28.82,1100,1100,1100,1100,1149,1500,1502,11911,820
115522,9,1.30,-1.29,-0.31,-0.023,-0.058,0.789,-2.83,-0.70,0.00,0.00,2.83,0.70,0.00,9.89,2.46,8.59,3.76,0.00,0.45,-0.15,39.99,1100,1100,1100,1100,1149,1500,1502,11899,820
115534,9,-0.42,0.25,-0.28,-0.010,-0.072,1.063,-2.43,-0.29,0.00,0.00,2.43,0.29,0.00,8.51,1.02,8.93,0.77,0.00,1.17,-0.61,8.38,1100,1100,1100,1100,1150,1500,1502,11882,820
115546,9,0.90,4.64,0.52,-0.074,-0.090,1.013,-2.29,-1.11,0.00,0.00,2.29,1.11,0.00,8.03,3.88,7.13,-0.76,0.00,0.05,-1.67,-10.77,1100,1100,1100,1100,1154,1500,1502,11865,820
115559,9,-3.79,2.82,-0.32,-0.022,-0.128,0.934,-1.89,-0.08,0.00,0.00,1.89,0.08,0.00,6.62,0.29,10.41,-2.52,0.00,1.73,-0.74,3.44,1143,1162,1161,1146,1154,1500,1502,11861,820
115571,9,-6.23,4.33,-0.58,0.035,-0.043,0.928,-1.76,0.24,0.00,0.00,1.76,-0.24,0.00,6.16,-0.84,12.39,-5.17,0.00,2.66,-1.02,12.29,1143,1162,1161,1146,1154,1500,1502,11845,820
115582,9,2.08,0.42,0.72,-0.068,-0.149,0.868,-2.80,-0.97,0.00,0.00,2.80,0.97,0.00,9.80,3.41,7.72,2.99,0.00,-1.31,1.08,-10.46,1143,1162,1161,1146,1154,1500,1502,11845,820
115594,9,-2.27,1.38,-0.15,-0.082,-0.126,0.824,-2.66,-0.93,0.00,0.00,2.66,0.93,0.00,9.33,3.27,11.59,1.90,0.00,1.06,-0.41,4.66,1143,1162,1161,1146,1160,1500,1502,11836,820
115607,9,2.11,-6.03,-1.07,0.057,0.086,0.973,-2.79,-0.70,0.00,0.00,2.79,0.70,0.00,9.76,2.45,7.65,8.49,0.00,-0.17,2.60,18.11,1143,1162,1161,1146,1162,1500,1502,11841,820
115619,9,6.14,-3.17,-0.08,-0.053,-0.159,1.000,-3.33,-1.18,0.00,0.00,3.33,1.18,0.00,11.66,4.14,5.53,7.31,0.00,-2.14,1.51,-6.33,1143,1162,1161,1146,1162,1500,1502,11836,820
115631,9,-4.73,2.65,1.14,-0.022,-0.120,0.820,-1.64,0.43,0.00,0.00,1.64,-0.43,0.00,5.74,-1.50,10.47,-4.15,0.00,2.58,-1.77,-23.10,1143,1162,1161,1146,1163,1500,1502,11824,820
115642,9,-3.06,-2.80,1.11,0.166,0.152,0.808,-0.44,1.41,0.00,0.00,0.44,-1.41,0.00,1.54,-4.92,4.60,-2.13,0.00,1.69,1.10,-11.90,1143,1162,1161,1146,1163,1500,1502,11824,820
115654,9,6.25,-4.63,-0.18,0.165,-0.015,0.839,-1.60,2.02,0.00,0.00,1.60,-2.02,0.00,5.61,-7.06,-0.64,-2.43,0.00,-3.26,2.68,11.15,1160,1173,1169,1167,1168,1500,1502,11811,820
115666,9,-4.34,1.38,-0.58,-0.105,-0.248,0.828,-2.14,1.71,0.00,0.00,2.14,-1.71,0.00,7.50,-5.97,11.84,-7.35,0.00,1.28,-1.03,6.66,1160,1173,1169,1167,1168,1500,1502,11824,820
115679,9,-9.50,-0.05,-0.29,0.003,0.075,0.810,-1.32,0.76,0.00,0.00,1.32,-0.76,0.00,4.62,-2.65,14.12,-2.59,0.00,4.50,-0.48,-3.15,1160,1173,1169,1167,1168,1500,1502,11824,820
115691,9,6.57,-1.45,0.04,0.010,0.136,0.951,-2.22,-0.48,0.00,0.00,2.22,0.48,0.00,7.78,1.67,1.20,3.12,0.00,-2.86,1.47,-6.58,1160,1173,1169,1167,1171,1500,1502,11824,820
115702,9,6.65,1.07,-0.43,0.079,-0.251,0.847,-3.07,-0.12,0.00,0.00,3.07,0.12,0.00,10.76,0.42,4.11,-0.64,0.00,-3.33,0.46,10.07,1160,1173,1169,1167,1171,1500,1502,11811,820
115715,9,-8.11,1.26,-0.36,0.077,-0.131,0.744,-2.08,0.94,0.00,0.00,2.08,-0.94,0.00,7.28,-3.28,15.39,-4.54,0.00,4.25,-1.01,9.49,1160,1173,1169,1167,1171,1500,1502,11824,820
115726,9,-4.10,-6.89,-0.03,0.057,0.095,0.857,-2.54,2.29,0.00,0.00,2.54,-2.29,0.00,8.89,-8.03,12.98,-1.14,0.00,3.33,1.64,-1.76,1160,1173,1169,1167,1174,1500,1502,11807,820
115739,9,11.74,-2.75,-0.95,-0.088,-0.114,1.182,-3.84,2.46,0.00,0.00,3.84,-2.46,0.00,13.46,-8.60,1.72,-5.84,0.00,-4.51,-0.69,7.85,1160,1173,1169,1167,1174,1500,1502,11803,820
115751,9,0.78,-2.34,-1.97,0.046,-0.225,0.837,-3.56,2.50,0.00,0.00,3.56,-2.50,0.00,12.46,-8.76,11.67,-6.42,0.00,-0.07,-0.31,23.12,1152,1192,1194,1155,1174,1500,1502,11799,819
115762,9,-7.58,1.77,-0.78,-0.000,-0.041,0.780,-2.51,1.17,0.00,0.00,2.51,-1.17,0.00,8.80,-4.09,16.38,-5.87,0.00,4.04,-1.23,-0.49,1152,1192,1194,1155,1174,1500,1502,11807,819
115774,9,0.79,1.38,-0.38,-0.125,0.155,0.923,-2.32,-0.14,0.00,0.00,2.32,0.14,0.00,8.13,0.49,7.33,-0.89,0.00,0.39,-0.45,-9.50,1152,1192,1194,1155,1178,1500,1502,11795,819
115786,9,2.78,4.02,-0.72,-0.065,-0.020,0.820,-2.75,-0.70,0.00,0.00,2.75,0.70,0.00,9.62,2.45,6.84,-1.57,0.00,-0.77,-1.36,-0.46,1152,1192,1194,1155,1178,1500,1502,11791,819
115799,9,-0.02,5.61,-0.49,-0.046,-0.110,0.965,-2.33,-1.71,0.00,0.00,2.33,1.71,0.00,8.15,5.97,8.18,0.35,0.00,0.38,-1.40,1.02,1152,1192,1194,1155,1178,1500,1502,11803,819
115811,9,0.29,1.96,0.23,-0.064,0.017,1.077,-1.90,-1.52,0.00,0.00,1.90,1.52,0.00,6.64,5.31,6.35,3.34,0.00,-0.07,0.33,-4.20,1152,1192,1194,1155,1180,1500,1502,11795,819
115822,9,1.91,-0.47,1.60,0.011,-0.087,0.858,-2.53,-0.67,0.00,0.00,2.53,0.67,0.00,8.87,2.33,6.96,2.80,0.00,-0.79,1.32,-27.07,1152,1192,1194,1155,1180,1500,1502,11795,819
115834,9,-2.09,-2.24,-0.51,0.157,-0.118,0.640,-2.91,0.82,0.00,0.00,2.91,-0.82,0.00,10.19,-2.88,12.28,-0.64,0.00,1.46,1.59,10.20,1152,1192,1194,1155,1180,1500,1502,11774,819
115846,9,-1.39,2.45,-2.57,-0.016,0.037,0.951,-2.31,0.85,0.00,0.00,2.31,-0.85,0.00,8.10,-2.97,9.48,-5.41,0.00,1.26,-0.74,43.26,1152,1192,1194,1155,1182,1500,1502,11786,819
115859,9,-0.30,5.54,-2.40,-0.205,0.058,1.298,-2.57,0.86,0.00,0.00,2.57,-0.86,0.00,8.99,-3.01,9.29,-8.55,0.00,0.72,-2.36,26.89,1147,1212,1218,1148,1182,1500,1502,11795,820
115871,9,5.12,-0.95,-2.90,0.182,0.045,0.669,-1.96,1.55,0.00,0.00,1.96,-1.55,0.00,6.87,-5.42,1.75,-4.47,0.00,-2.20,1.36,25.24,1147,1212,1218,1148,1182,1500,1502,11811,820
115882,9,-0.36,7.04,-1.69,0.112,-0.194,0.620,-2.31,0.23,0.00,0.00,2.31,-0.23,0.00,8.07,-0.81,8.43,-7.84,0.00,0.14,-1.97,-1.22,1147,1212,1218,1148,1182,1500,1502,11803,820
115894,9,-9.39,3.59,-0.34,-0.584,-0.065,1.223,-0.03,0.13,0.00,0.00,0.03,-0.13,0.00,0.11,-0.47,9.51,-4.06,0.00,4.04,-0.91,-21.32,1147,1212,1218,1148,1184,1500,1502,11795,820
115906,9,-8.95,-6.18,1.13,0.077,0.022,0.797,0.35,2.49,0.00,0.00,-0.35,-2.49,0.00,-1.21,-8.70,7.73,-2.52,0.00,3.82,4.34,-35.37,1147,1212,1218,1148,1184,1500,1502,11811,820
115919,9,4.94,7.74,1.53,0.255,0.174,0.856,-0.29,2.72,0.00,0.00,0.29,-2.72,0.00,1.02,-9.51,-3.91,-17.25,0.00,-2.15,-3.65,-23.03,1147,1212,1218,1148,1184,1500,1502,11807,820
115931,9,7.46,5.50,2.60,0.061,-0.220,0.860,-2.56,1.79,0.00,0.00,2.56,-1.79,0.00,8.95,-6.28,1.48,-11.78,0.00,-3.79,-3.13,-27.40,1147,1212,1218,1148,1186,1500,1502,11795,820
115942,9,-0.94,-10.06,0.82,-0.104,-0.362,0.798,-3.50,1.26,0.00,0.00,3.50,-1.26,0.00,12.24,-4.41,13.18,5.66,0.00,0.12,4.63,5.32,1147,1212,1218,1148,1186,1500,1502,11786,820
115954,9,-9.31,0.76,-0.60,-0.092,-0.207,0.908,-3.25,0.59,0.00,0.00,3.25,-0.59,0.00,11.38,-2.06,20.69,-2.82,0.00,4.49,0.12,27.43,1178,1193,1189,1182,1186,1500,1502,11795,819
115966,9,-7.09,7.36,0.65,-0.128,-0.009,1.047,-3.09,1.15,0.00,0.00,3.09,-1.15,0.00,10.81,-4.03,17.90,-11.39,0.00,4.06,-4.08,-9.54,1178,1193,1189,1182,1190,1500,1502,11799,819
115979,9,4.28,-0.74,-1.26,0.226,0.226,0.682,-2.00,2.34,0.00,0.00,2.00,-2.34,0.00,7.01,-8.18,2.72,-7.44,0.00,-1.57,0.09,19.74,1178,1193,1189,1182,1190,1500,1502,11795,819
115991,9,6.32,4.52,0.41,-0.039,-0.030,0.959,-3.16,-0.31,0.00,0.00,3.16,0.31,0.00,11.05,1.09,4.74,-3.43,0.00,-2.82,-1.86,-13.28,1178,1193,1189,1182,1191,1500,1502,11786,819
116002,9,3.41,-8.71,0.38,-0.095,-0.148,0.829,-3.17,-0.46,0.00,0.00,3.17,0.46,0.00,11.10,1.61,7.69,10.31,0.00,-1.70,4.76,-7.52,1178,1193,1189,1182,1191,1500,1502,11782,819
116015,1,-1.79,0.94,0.09,-0.086,-0.341,0.893,-3.61,-1.00,0.00,0.00,3.61,1.00,0.00,12.66,3.49,14.45,2.55,0.00,1.20,0.38,7.61,1178,1193,1189,1182,1200,1500,1502,11786,819
116026,1,-3.27,1.11,0.45,-0.042,-0.087,0.984,-2.86,0.17,0.00,0.00,2.86,-0.17,0.00,10.07,-0.59,13.34,-1.70,0.00,2.27,-1.20,0.25,1178,1193,1189,1182,1200,1500,1502,11803,819
116039,1,2.06,-0.63,0.75,0.103,0.021,0.746,-2.66,0.75,0.00,0.00,2.66,-0.75,0.00,9.39,-2.62,7.33,-1.99,0.00,0.13,-0.81,-10.98,1178,1193,1189,1182,1200,1500,1502,11799,819
116051,1,2.04,-0.33,-0.97,0.012,-0.057,0.845,-2.47,0.04,0.00,0.00,2.47,-0.04,0.00,8.76,-0.15,6.72,0.19,0.00,0.14,-0.61,14.92,1188,1220,1220,1188,1205,1500,1502,11791,814
116062,1,1.45,-3.11,-0.55,-0.126,0.060,0.957,-1.77,-0.52,0.00,0.00,1.77,0.52,0.00,6.32,1.83,4.88,4.93,0.00,-0.05,1.12,3.47,1188,1220,1220,1188,1205,1500,1502,11786,814
116074,1,-3.09,-2.37,-0.45,0.084,-0.176,0.875,-1.81,0.61,0.00,0.00,1.81,-0.61,0.00,6.46,-2.12,9.55,0.25,0.00,2.09,0.90,3.54,1188,1220,1220,1188,1205,1500,1502,11770,814
116086,1,-2.98,6.13,-0.21,0.084,0.061,0.979,-2.44,1.20,0.00,0.00,2.44,-1.20,0.00,8.70,-4.20,11.67,-10.33,0.00,2.03,-3.28,6.72,1188,1220,1220,1188,1207,1500,1502,11774,814
116099,1,1.71,-1.71,-0.76,0.365,0.165,0.699,-2.15,2.68,0.00,0.00,2.15,-2.68,0.00,7.72,-9.39,6.01,-7.68,0.00,-0.84,0.59,15.67,1188,1220,1220,1188,1207,1500,1502,11749,814
116111,1,6.52,-0.83,0.15,-0.078,-0.208,0.981,-3.31,1.46,0.00,0.00,3.31,-1.46,0.00,11.82,-5.15,5.30,-4.33,0.00,-3.35,-0.38,-9.15,1188,1220,1220,1188,1211,1500,1502,11732,814
116122,1,-2.89,-2.10,-1.64,0.020,-0.299,0.735,-3.87,0.71,0.00,0.00,3.87,-0.71,0.00,13.81,-2.55,16.70,-0.45,0.00,1.06,1.79,20.24,1188,1220,1220,1188,1211,1500,1502,11720,814
116134,1,-11.56,4.94,-2.37,-0.503,-0.173,1.054,-2.62,1.39,0.00,0.00,2.62,-1.39,0.00,9.45,-4.96,21.01,-9.90,0.00,5.19,-2.37,22.69,1188,1220,1220,1188,1213,1500,1502,11732,814
116146,1,-10.27,8.83,-3.01,0.015,-0.028,0.878,-2.36,1.09,0.00,0.00,2.36,-1.09,0.00,8.54,-3.90,18.81,-12.73,0.00,4.87,-2.58,27.34,1188,1220,1220,1188,1225,1500,1502,11728,814
116159,1,-3.23,-1.24,-5.74,0.044,0.243,0.940,-2.17,2.84,0.00,0.00,2.17,-2.84,0.00,7.94,-10.07,11.17,-8.83,0.00,1.98,0.15,68.88,1199,1245,1253,1197,1225,1500,1502,11749,819
116171,1,9.38,0.73,-5.31,0.279,0.217,0.804,-2.38,2.02,0.00,0.00,2.38,-2.02,0.00,8.70,-7.20,-0.68,-7.93,0.00,-3.51,-0.82,38.72,1199,1245,1253,1197,1225,1500,1502,11753,819
116182,1,14.73,-7.51,-6.43,0.165,0.108,0.768,-2.97,2.49,0.00,0.00,2.97,-2.49,0.00,10.79,-8.87,-3.94,-1.36,0.00,-6.19,2.07,43.52,1199,1245,1253,1197,1225,1500,1502,11741,819
116194,1,7.31,-1.19,-7.94,-0.034,-0.243,0.943,-2.99,0.56,0.00,0.00,2.99,-0.56,0.00,10.88,-2.11,3.57,-0.93,0.00,-3.00,0.43,53.14,1199,1245,1253,1197,1230,1500,1502,11741,819
116206,1,-2.22,-10.61,-8.42,-0.179,-0.295,0.848,-2.88,1.71,0.00,0.00,2.88,-1.71,0.00,10.52,-6.16,12.74,4.45,0.00,1.62,4.42,49.59,1199,1245,1253,1197,1231,1500,1502,11745,819
116219,1,-10.90,7.91,-8.97,-0.400,-0.186,1.094,-1.80,0.42,0.00,0.00,1.80,-0.42,0.00,6.75,-1.66,17.65,-9.57,0.00,5.93,-3.96,48.78,1199,1245,1253,1197,1231,1500,1502,11736,819
116231,1,-10.55,4.69,-8.19,-0.041,0.079,0.805,-0.75,1.69,0.00,0.00,0.75,-1.69,0.00,3.08,-6.11,13.63,-10.80,0.00,5.80,-2.38,27.32,1199,1245,1253,1197,1232,1500,1502,11732,819
116242,1,0.56,3.40,-7.16,0.198,0.296,0.864,-0.52,2.07,0.00,0.00,0.52,-2.07,0.00,2.32,-7.47,1.76,-10.87,0.00,0.33,-1.84,11.67,1199,1245,1253,1197,1232,1500,1502,11724,819
116254,1,7.20,2.96,-7.04,0.127,0.207,0.891,-0.72,0.98,0.00,0.00,0.72,-0.98,0.00,3.03,-3.67,-4.17,-6.63,0.00,-2.82,-2.08,14.14,1213,1252,1256,1206,1232,1500,1502,11720,813
116266,1,8.01,-3.88,-6.23,0.423,-0.039,0.675,-1.82,0.94,0.00,0.00,1.82,-0.94,0.00,6.89,-3.51,-1.11,0.37,0.00,-3.18,2.26,10.20,1213,1252,1256,1206,1236,1500,1502,11716,813
116279,1,5.10,-15.78,-6.15,-0.071,-0.146,0.888,-1.25,1.78,0.00,0.00,1.25,-1.78,0.00,4.89,-6.48,-0.20,9.30,0.00,-2.12,6.58,15.97,1213,1252,1256,1206,1236,1500,1502,11711,813
116291,1,0.10,3.17,-5.72,-0.353,-0.350,1.124,-1.97,-0.61,0.00,0.00,1.97,0.61,0.00,7.40,1.87,7.31,-1.30,0.00,0.10,-0.83,18.80,1213,1252,1256,1206,1236,1500,1502,11691,813
116302,1,-3.87,2.66,-5.66,-0.212,-0.185,0.907,-1.51,0.75,0.00,0.00,1.51,-0.75,0.00,5.82,-2.91,9.68,-5.57,0.00,1.97,-0.25,18.74,1213,1252,1256,1206,1236,1500,1502,11670,813
116314,1,-0.26,5.71,-4.21,-0.013,-0.044,0.794,-1.75,3.00,0.00,0.00,1.75,-3.00,0.00,6.68,-10.80,6.94,-16.51,0.00,0.16,-2.49,-8.87,1213,1252,1256,1206,1238,1500,1502,11662,813
116326,1,2.19,3.33,-5.25,-0.065,-0.111,0.859,-2.48,3.13,0.00,0.00,2.48,-3.13,0.00,9.27,-11.27,7.08,-14.61,0.00,-0.98,-2.18,10.81,1213,1252,1256,1206,1240,1500,1502,11637,813
116339,1,2.64,5.96,-5.95,-0.020,-0.124,0.801,-2.89,1.71,0.00,0.00,2.89,-1.71,0.00,10.72,-6.33,8.08,-12.28,0.00,-0.84,-3.21,21.74,1213,1252,1256,1206,1240,1500,1502,11662,813
116351,1,1.89,-0.36,-7.30,0.118,-0.106,0.730,-2.69,2.16,0.00,0.00,2.69,-2.16,0.00,10.05,-7.91,8.16,-7.55,0.00,-0.17,-0.15,42.00,1197,1281,1282,1198,1240,1500,1502,11678,815
116362,1,-0.46,0.11,-7.20,0.085,-0.130,0.939,-2.55,2.97,0.00,0.00,2.55,-2.97,0.00,9.57,-10.76,10.02,-10.87,0.00,1.26,-1.40,34.94,1197,1281,1282,1198,1240,1500,1502,11666,815
116374,1,1.75,1.25,-5.05,0.084,-0.004,1.012,-2.68,2.47,0.00,0.00,2.68,-2.47,0.00,10.05,-9.05,8.30,-10.30,0.00,0.57,-2.27,2.18,1197,1281,1282,1198,1243,1500,1502,11653,815
116386,1,5.12,-1.15,-4.38,0.363,0.142,0.805,-1.95,2.21,0.00,0.00,1.95,-2.21,0.00,7.51,-8.13,2.39,-6.98,0.00,-0.98,-0.63,5.44,1197,1281,1282,1198,1244,1500,1502,11653,815
116399,1,6.05,-13.24,-4.16,0.364,-0.028,0.678,-2.19,3.17,0.00,0.00,2.19,-3.17,0.00,8.38,-11.53,2.34,1.71,0.00,-1.41,4.26,5.34,1197,1281,1282,1198,1244,1500,1502,11662,815
116411,1,2.38,-10.42,-3.72,0.087,-0.225,0.844,-3.40,0.88,0.00,0.00,3.40,-0.88,0.00,12.66,-3.54,10.28,6.89,0.00,0.31,3.29,1.44,1197,1281,1282,1198,1248,1500,1502,11653,815
116423,1,-1.90,-6.96,-4.82,-0.041,-0.214,0.918,-3.00,-0.01,0.00,0.00,3.00,0.01,0.00,11.27,-0.41,13.17,6.55,0.00,2.28,3.43,22.40,1197,1281,1282,1198,1248,1500,1502,11653,815
116434,1,-6.93,-11.44,-5.72,-0.149,-0.211,0.967,-2.25,3.21,0.00,0.00,2.25,-3.21,0.00,8.66,-11.72,15.59,-0.29,0.00,4.72,4.64,32.13,1197,1281,1282,1198,1249,1500,1502,11657,815
116446,1,-10.35,-2.89,-5.24,-0.480,-0.143,1.077,-2.71,4.33,0.00,0.00,2.71,-4.33,0.00,10.30,-15.71,20.65,-12.82,0.00,6.30,-0.76,19.98,1197,1281,1282,1198,1251,1500,1502,11662,815
116459,1,-10.42,7.68,-4.97,-0.563,0.124,1.114,-3.01,2.79,0.00,0.00,3.01,-2.79,0.00,11.39,-10.37,21.81,-18.05,0.00,6.37,-5.51,19.76,1246,1252,1263,1240,1251,1500,1502,11670,825
116471,1,-2.92,14.08,-4.95,-0.405,0.427,1.053,-2.26,0.77,0.00,0.00,2.26,-0.77,0.00,8.80,-3.30,11.73,-17.38,0.00,2.68,-6.86,21.73,1246,1252,1263,1240,1257,1500,1502,11653,825
116482,1,5.92,11.37,-5.29,0.186,0.484,0.732,-1.48,2.01,0.00,0.00,1.48,-2.01,0.00,6.11,-7.66,0.19,-19.03,0.00,-1.73,-4.73,23.35,1246,1252,1263,1240,1257,1500,1502,11641,825
116494,1,10.62,-3.77,-4.75,0.548,0.333,0.483,-2.75,7.80,0.00,0.00,2.75,-7.80,0.00,10.60,-27.97,-0.02,-24.19,0.00,-3.89,0.24,6.61,1246,1252,1263,1240,1259,1500,1502,11649,825
116506,1,14.14,-10.09,-4.37,0.530,0.167,0.548,-4.18,10.35,0.00,0.00,4.18,-10.35,0.00,15.62,-36.97,1.48,-26.88,0.00,-5.70,0.70,-0.82,1246,1252,1263,1240,1262,1500,1502,11649,825
116519,1,14.30,-6.38,-4.40,0.179,-0.080,0.730,-4.68,7.36,0.00,0.00,4.68,-7.36,0.00,17.43,-26.58,3.13,-20.20,0.00,-5.98,-0.98,0.37,1246,1252,1263,1240,1262,1500,1502,11653,825
116531,1,8.12,0.55,-3.08,-0.101,-0.243,0.988,-4.10,2.06,0.00,0.00,4.10,-2.06,0.00,15.43,-8.05,7.31,-8.60,0.00,-3.44,-1.57,-16.48,1246,1252,1263,1240,1262,1500,1502,11653,825
116542,1,5.21,2.79,-2.39,-0.033,-0.337,0.953,-3.31,-0.31,0.00,0.00,3.31,0.31,0.00,12.70,0.22,7.49,-2.57,0.00,-2.20,0.16,-16.34,1246,1252,1263,1240,1262,1500,1502,11653,825
116554,1,0.11,2.13,-1.98,-0.223,-0.388,0.998,-2.42,-1.79,0.00,0.00,2.42,1.79,0.00,9.59,5.44,9.48,3.31,0.00,0.08,1.25,-5.39,1272,1244,1247,1283,1262,1500,1502,11653,813
116566,1,-4.31,5.84,-3.90,-0.132,-0.465,0.918,-2.09,-1.72,0.00,0.00,2.09,1.72,0.00,8.45,5.18,12.76,-0.65,0.00,2.18,-0.10,41.71,1272,1244,1247,1283,1265,1500,1502,11645,813
116579,1,-6.25,7.59,-6.15,0.086,-0.429,0.828,-2.06,-0.27,0.00,0.00,2.06,0.27,0.00,8.35,0.14,14.60,-7.46,0.00,3.16,-1.31,77.22,1272,1244,1247,1283,1265,1500,1502,11645,813
116591,1,-8.06,-4.87,-7.57,0.396,-0.327,0.591,-2.74,5.40,0.00,0.00,2.74,-5.40,0.00,10.74,-19.75,18.80,-14.88,0.00,4.20,2.31,90.49,1272,1244,1247,1283,1269,1500,1502,11649,813
116602,1,-6.85,-5.25,-8.39,0.522,-0.161,0.633,-3.13,10.41,0.00,0.00,3.13,-10.41,0.00,12.13,-37.36,18.98,-32.11,0.00,3.55,-0.19,88.85,1272,1244,1247,1283,1269,1500,1502,11620,813
116614,1,-5.20,-7.64,-9.18,0.340,-0.039,0.798,-3.38,12.71,0.00,0.00,3.38,-12.71,0.00,13.06,-45.52,18.25,-37.88,0.00,2.61,-0.80,87.48,1272,1244,1247,1283,1270,1500,1502,11628,813
116627,1,-1.22,-6.46,-10.86,0.273,0.000,0.747,-3.19,11.80,0.00,0.00,3.19,-11.80,0.00,12.43,-42.45,13.65,-35.99,0.00,0.46,-1.21,94.83,1272,1244,1247,1283,1272,1500,1502,11632,813
116639,1,1.08,-0.54,-11.50,-0.026,-0.019,0.947,-2.98,7.19,0.00,0.00,2.98,-7.19,0.00,11.70,-26.41,10.62,-25.87,0.00,-0.70,-2.07,78.99,1272,1244,1247,1283,1272,1500,1502,11632,813
116651,1,5.61,-1.02,-10.21,-0.032,-0.203,0.967,-3.59,3.63,0.00,0.00,3.59,-3.63,0.00,13.88,-14.00,8.27,-12.97,0.00,-2.88,0.13,36.76,1230,1315,1311,1230,1272,1500,1502,11624,812
116662,1,6.11,-0.80,-9.60,-0.071,-0.328,0.895,-3.98,1.34,0.00,0.00,3.98,-1.34,0.00,15.26,-5.99,9.16,-5.19,0.00,-2.83,1.18,21.51,1230,1315,1311,1230,1272,1500,1502,11620,812
116674,1,3.62,-3.49,-9.75,-0.053,-0.374,0.815,-3.50,1.05,0.00,0.00,3.50,-1.05,0.00,13.63,-5.00,10.01,-1.52,0.00,-1.28,2.21,25.26,1230,1315,1311,1230,1274,1500,1502,11616,812
116686,1,0.35,-2.52,-8.97,-0.317,-0.438,0.975,-2.46,0.97,0.00,0.00,2.46,-0.97,0.00,9.99,-4.73,9.64,-2.21,0.00,0.74,0.81,15.45,1230,1315,1311,1230,1274,1500,1502,11616,812
116699,1,-4.21,-2.02,-8.44,-0.359,-0.302,1.063,-1.25,0.37,0.00,0.00,1.25,-0.37,0.00,5.78,-2.66,9.99,-0.64,0.00,3.16,-0.16,15.91,1230,1315,1311,1230,1274,1500,1502,11603,812
116711,1,-6.97,5.03,-8.67,-0.306,-0.109,1.071,-0.88,0.66,0.00,0.00,0.88,-0.66,0.00,4.48,-3.66,11.45,-8.70,0.00,4.95,-3.98,30.34,1230,1315,1311,1230,1279,1500,1502,11620,812
116722,1,-6.81,4.88,-9.17,-0.168,0.156,0.970,-0.63,2.48,0.00,0.00,0.63,-2.48,0.00,3.61,-10.08,10.42,-14.96,0.00,5.28,-4.41,45.34,1230,1315,1311,1230,1279,1500,1502,11599,812
116734,1,-3.26,4.69,-10.01,0.107,0.372,0.786,-0.41,5.44,0.00,0.00,0.41,-5.44,0.00,2.87,-20.45,6.13,-25.14,0.00,3.60,-5.27,56.89,1230,1315,1311,1230,1279,1500,1502,11599,812
116746,1,0.75,1.88,-9.94,0.290,0.565,0.710,-0.90,8.07,0.00,0.00,0.90,-8.07,0.00,4.63,-29.74,3.89,-31.62,0.00,1.77,-4.91,48.50,1230,1315,1311,1230,1284,1500,1502,11591,812
116759,1,5.17,-2.52,-10.10,0.353,0.694,0.735,-1.08,9.80,0.00,0.00,1.08,-9.80,0.00,5.26,-35.87,0.09,-33.35,0.00,-0.37,-3.43,44.99,1220,1336,1344,1232,1284,1500,1502,11574,824
116771,1,11.89,-7.71,-10.47,0.515,0.573,0.610,-1.05,11.35,0.00,0.00,1.05,-11.35,0.00,5.20,-41.41,-6.69,-33.70,0.00,-3.59,-1.47,45.14,1220,1336,1344,1232,1284,1500,1502,11570,824
116782,1,14.10,-11.38,-10.26,0.424,0.422,0.657,-2.53,13.45,0.00,0.00,2.53,-13.45,0.00,10.42,-48.88,-3.68,-37.50,0.00,-4.51,-1.21,36.89,1220,1336,1344,1232,1284,1500,1502,11582,824
116794,1,12.75,-9.53,-10.16,0.231,0.281,0.729,-3.69,13.23,0.00,0.00,3.69,-13.23,0.00,14.52,-48.24,1.77,-38.70,0.00,-4.00,-1.93,31.60,1220,1336,1344,1232,1285,1500,1502,11570,824
116806,1,9.61,-5.16,-10.70,0.209,0.124,0.828,-3.77,12.01,0.00,0.00,3.77,-12.01,0.00,14.82,-44.06,5.20,-38.90,0.00,-2.97,-2.60,40.49,1220,1336,1344,1232,1285,1500,1502,11570,824
116819,1,7.26,-5.88,-10.73,0.132,-0.013,0.848,-4.00,11.98,0.00,0.00,4.00,-11.98,0.00,15.66,-44.10,8.40,-38.21,0.00,-2.29,-1.15,36.38,1220,1336,1344,1232,1285,1500,1502,11557,824
116831,1,4.06,-5.88,-11.12,0.193,-0.100,0.718,-3.64,12.46,0.00,0.00,3.64,-12.46,0.00,14.43,-45.90,10.37,-40.02,0.00,-1.06,0.10,38.66,1220,1336,1344,1232,1290,1500,1502,11562,824
116842,1,1.57,1.26,-11.49,0.029,-0.137,0.921,-2.53,10.67,0.00,0.00,2.53,-10.67,0.00,10.58,-39.73,9.01,-40.98,0.00,-0.04,-2.14,42.40,1220,1336,1344,1232,1290,1500,1502,11582,824
116854,1,-3.86,-3.71,-11.92,0.054,-0.184,0.902,-1.83,9.80,0.00,0.00,1.83,-9.80,0.00,8.14,-36.79,11.99,-33.08,0.00,2.22,0.29,46.47,1228,1359,1358,1235,1296,1500,1502,11595,816
116866,1,-5.76,0.03,-11.86,0.112,-0.217,0.827,-1.84,8.75,0.00,0.00,1.84,-8.75,0.00,8.18,-33.19,13.94,-33.22,0.00,2.78,-1.53,45.31,1228,1359,1358,1235,1296,1500,1502,11591,816
116879,1,-8.96,8.74,-11.23,0.057,-0.201,0.948,-2.15,6.33,0.00,0.00,2.15,-6.33,0.00,9.31,-24.78,18.27,-33.53,0.00,4.11,-4.97,40.56,1228,1359,1358,1235,1296,1500,1502,11557,816
116891,1,-9.46,12.09,-10.29,0.114,-0.164,0.902,-2.32,3.62,0.00,0.00,2.32,-3.62,0.00,9.90,-15.33,19.36,-27.42,0.00,3.76,-4.83,32.18,1228,1359,1358,1235,1303,1500,1502,11557,816
116902,1,-6.26,7.47,-9.54,0.410,-0.110,0.711,-2.54,3.48,0.00,0.00,2.54,-3.48,0.00,10.71,-14.89,16.96,-22.36,0.00,1.56,-2.09,29.14,1228,1359,1358,1235,1303,1500,1502,11553,816
116914,1,-1.60,13.87,-9.76,0.100,0.019,1.046,-2.13,2.12,0.00,0.00,2.13,-2.12,0.00,9.31,-10.13,10.91,-24.00,0.00,-1.17,-5.09,38.94,1228,1359,1358,1235,1303,1500,1502,11537,816
116926,1,4.89,8.41,-10.13,0.282,0.066,0.780,-2.14,2.29,0.00,0.00,2.14,-2.29,0.00,9.34,-10.74,4.46,-19.14,0.00,-4.02,-2.03,45.21,1228,1359,1358,1235,1307,1500,1502,11541,816
116939,1,11.28,7.82,-9.24,0.036,0.138,0.877,-1.85,0.09,0.00,0.00,1.85,-0.09,0.00,8.34,-3.03,-2.93,-10.84,0.00,-6.63,-1.42,26.83,1228,1359,1358,1235,1307,1500,1502,11557,816
116951,1,15.37,0.91,-8.10,0.154,0.072,0.822,-1.75,-1.10,0.00,0.00,1.75,1.10,0.00,8.03,1.12,-7.34,0.21,0.00,-7.72,1.96,6.46,1300,1324,1316,1289,1308,1500,1502,11562,816
116962,1,16.29,-0.76,-7.74,0.264,0.005,0.780,-2.04,-0.44,0.00,0.00,2.04,0.44,0.00,9.05,-1.16,-7.24,-0.40,0.00,-7.58,1.69,4.86,1300,1324,1316,1289,1308,1500,1502,11557,816
116974,1,14.16,0.61,-7.64,0.236,-0.019,0.855,-2.05,0.57,0.00,0.00,2.05,-0.57,0.00,9.09,-4.70,-5.07,-5.31,0.00,-6.28,0.78,5.26,1300,1324,1316,1289,1308,1500,1502,11553,816
116986,1,11.38,4.93,-7.73,0.110,-0.070,0.952,-1.36,-0.47,0.00,0.00,1.36,0.47,0.00,6.67,-1.04,-4.70,-5.97,0.00,-5.07,-0.05,8.03,1300,1324,1316,1289,1309,1500,1502,11553,816
116999,1,8.18,-2.58,-7.93,0.229,-0.183,0.849,-1.39,-0.51,0.00,0.00,1.39,0.51,0.00,6.79,-0.89,-1.39,1.69,0.00,-3.92,3.94,13.47,1300,1324,1316,1289,1309,1500,1502,11553,816
117011,1,4.20,0.20,-8.67,0.158,-0.249,0.919,-1.20,-0.50,0.00,0.00,1.20,0.50,0.00,6.11,-0.95,1.91,-1.15,0.00,-2.67,2.31,28.89,1300,1324,1316,1289,1309,1500,1502,11549,816
117022,1,-0.14,-6.49,-8.69,0.087,-0.361,0.921,-1.50,0.29,0.00,0.00,1.50,-0.29,0.00,7.17,-3.71,7.31,2.77,0.00,-1.28,4.82,28.81,1300,1324,1316,1289,1309,1500,1502,11528,816
117034,1,-2.97,-9.53,-9.17,0.220,-0.432,0.714,-2.35,0.73,0.00,0.00,2.35,-0.73,0.00,10.16,-5.23,13.13,4.29,0.00,-0.62,5.69,38.19,1300,1324,1316,1289,1316,1500,1502,11553,816
117046,1,-3.89,-8.15,-8.34,0.284,-0.504,0.604,-3.37,2.46,0.00,0.00,3.37,-2.46,0.00,13.75,-11.32,17.64,-3.17,0.00,-0.77,3.76,25.79,1300,1324,1316,1289,1317,1500,1502,11566,816
117059,1,-4.90,2.71,-8.27,0.153,-0.472,0.746,-3.16,2.67,0.00,0.00,3.16,-2.67,0.00,13.02,-12.09,17.92,-14.79,0.00,-0.73,-1.40,30.31,1329,1303,1304,1330,1317,1500,1502,11582,825
117071,1,-7.01,5.79,-6.91,-0.116,-0.398,0.917,-2.60,1.32,0.00,0.00,2.60,-1.32,0.00,11.07,-7.37,18.08,-13.16,0.00,-0.07,-2.32,11.89,1329,1303,1304,1330,1323,1500,1502,11566,825
117082,1,-6.93,1.45,-5.97,0.074,-0.394,0.815,-2.75,1.14,0.00,0.00,2.75,-1.14,0.00,11.63,-6.74,18.56,-8.19,0.00,-0.08,0.03,0.02,1329,1303,1304,1330,1323,1500,1502,11557,825
117094,1,-7.85,2.19,-5.86,0.161,-0.331,0.854,-2.92,3.13,0.00,0.00,2.92,-3.13,0.00,12.22,-13.75,20.08,-15.94,0.00,0.52,-1.29,1.78,1329,1303,1304,1330,1326,1500,1502,11532,825
117106,1,-9.26,8.56,-5.74,-0.242,-0.219,0.976,-2.54,2.98,0.00,0.00,2.54,-2.98,0.00,10.92,-13.25,20.19,-21.81,0.00,1.16,-3.73,-3.92,1329,1303,1304,1330,1327,1500,1502,11532,825
117119,1,-11.24,9.74,-5.09,-0.610,-0.167,1.104,-2.18,-2.00,0.00,0.00,2.18,2.00,0.00,9.67,4.19,20.91,-5.55,0.00,1.75,-1.55,-19.57,1329,1303,1304,1330,1327,1500,1502,11528,825
117131,1,-13.53,-1.59,-5.14,-0.324,-0.218,0.985,-2.59,-4.98,0.00,0.00,2.59,4.98,0.00,11.13,14.66,24.66,16.25,0.00,2.53,4.10,-23.09,1329,1303,1304,1330,1328,1500,1502,11516,825
117143,1,-16.38,-5.88,-6.93,0.029,-0.255,0.747,-3.27,-3.19,0.00,0.00,3.27,3.19,0.00,13.53,8.43,29.91,14.31,0.00,3.60,4.57,-0.02,1329,1303,1304,1330,1328,1500,1502,11516,825
117154,1,-15.51,6.02,-8.91,-0.472,-0.203,1.052,-2.87,-4.92,0.00,0.00,2.87,4.92,0.00,12.16,14.51,27.66,8.49,0.00,2.86,-0.92,24.60,1259,1395,1393,1267,1329,1500,1502,11508,834
117166,1,-15.91,1.47,-10.02,-0.411,-0.290,1.167,-2.78,-7.62,0.00,0.00,2.78,7.62,0.00,11.88,24.01,27.79,22.54,0.00,2.97,1.95,38.56,1259,1395,1393,1267,1333,1500,1502,11499,834
117179,1,-17.42,-12.33,-12.25,0.064,-0.349,1.016,-3.49,-3.23,0.00,0.00,3.49,3.23,0.00,14.37,8.70,31.80,21.02,0.00,3.62,5.18,77.29,1259,1395,1393,1267,1333,1500,1502,11495,834
117191,1,-17.71,-5.00,-13.09,-0.057,-0.359,0.894,-3.43,-0.81,0.00,0.00,3.43,0.81,0.00,14.21,0.23,31.92,5.22,0.00,3.55,1.37,84.88,1259,1395,1393,1267,1333,1500,1502,11499,834
117202,1,-17.01,-7.94,-11.51,0.088,-0.572,0.856,-3.81,-1.35,0.00,0.00,3.81,1.35,0.00,15.55,2.14,32.56,10.08,0.00,3.27,3.85,51.10,1259,1395,1393,1267,1333,1500,1502,11520,834
117214,1,-14.89,-0.96,-11.24,0.234,-0.567,0.907,-4.19,0.91,0.00,0.00,4.19,-0.91,0.00,16.91,-5.79,31.81,-4.83,0.00,2.25,0.19,111.94,1259,1395,1393,1267,1334,1500,1502,11532,834
117226,1,-12.11,5.02,-8.69,-0.323,-0.602,1.038,-4.15,-0.08,0.00,0.00,4.15,0.08,0.00,16.82,-2.32,28.93,-7.35,0.00,0.95,-0.74,62.61,1259,1395,1393,1267,1334,1500,1502,11516,834
117239,1,-7.86,-2.58,-7.68,0.200,-0.693,0.821,-4.80,-1.40,0.00,0.00,4.80,1.40,0.00,19.12,2.29,26.98,4.87,0.00,-0.76,4.70,-15.32,1259,1395,1393,1267,1334,1500,1502,11524,834
117251,1,-2.14,4.27,-9.02,0.153,-0.539,0.805,-4.50,-0.23,0.00,0.00,4.50,0.23,0.00,18.09,-1.78,20.23,-6.05,0.00,-3.30,0.90,14.53,1309,1360,1357,1308,1334,1500,1502,11483,845
117262,1,0.07,2.38,-8.86,0.248,-0.452,0.882,-4.14,0.74,0.00,0.00,4.14,-0.74,0.00,16.87,-5.18,16.80,-7.56,0.00,-3.84,1.40,18.43,1309,1360,1357,1308,1334,1500,1502,11483,845
117274,1,2.55,10.93,-10.04,0.076,-0.178,0.903,-3.19,1.75,0.00,0.00,3.19,-1.75,0.00,13.55,-8.74,11.00,-19.67,0.00,-4.36,-2.17,48.45,1309,1360,1357,1308,1334,1500,1502,11491,845
117286,1,3.90,6.42,-8.99,0.482,-0.220,0.712,-3.25,2.89,0.00,0.00,3.25,-2.89,0.00,13.79,-12.73,9.88,-19.15,0.00,-3.60,1.40,33.83,1309,1360,1357,1308,1334,1500,1502,11487,845
117299,1,2.71,24.66,-7.48,-0.137,-0.221,1.067,-2.78,5.20,0.00,0.00,2.78,-5.20,0.00,12.18,-20.90,9.47,-45.56,0.00,-2.12,-7.76,9.05,1309,1360,1357,1308,1334,1500,1502,11474,845
117311,1,4.84,26.96,-4.19,-0.574,-0.362,1.068,-3.01,-0.69,0.00,0.00,3.01,0.69,0.00,12.98,-0.28,8.15,-27.24,0.00,-2.02,-3.75,8.93,1309,1360,1357,1308,1334,1500,1502,11487,845
117322,1,7.13,21.71,-4.64,0.004,-0.405,0.844,-3.92,-1.77,0.00,0.00,3.92,1.77,0.00,16.22,3.51,9.09,-18.20,0.00,-1.85,-0.27,19.33,1309,1360,1357,1308,1334,1500,1502,11499,845
117334,1,12.09,23.04,-6.22,-0.228,-0.193,1.027,-2.93,-2.53,0.00,0.00,2.93,2.53,0.00,12.77,6.21,0.68,-16.83,0.00,-3.46,-1.11,44.39,1309,1360,1357,1308,1335,1500,1502,11516,845
117347,1,12.99,12.60,-7.28,0.503,-0.162,0.762,-2.72,1.68,0.00,0.00,2.72,-1.68,0.00,12.03,-8.53,-0.96,-21.13,0.00,-2.45,2.66,0.64,1309,1360,1357,1308,1335,1500,1502,11512,845
117359,1,8.70,23.61,-7.26,0.066,-0.079,1.099,-2.47,4.92,0.00,0.00,2.47,-4.92,0.00,11.21,-19.93,2.51,-43.54,0.00,0.14,-3.59,10.25,1295,1375,1375,1293,1335,1500,1502,11466,860
117371,1,4.94,25.13,-5.60,-0.051,-0.257,1.089,-2.58,2.94,0.00,0.00,2.58,-2.94,0.00,11.61,-13.04,6.67,-38.17,0.00,1.85,-1.32,52.47,1295,1375,1375,1293,1335,1500,1502,11441,860
117382,1,4.14,24.79,-3.55,0.112,-0.552,0.979,-2.85,1.85,0.00,0.00,2.85,-1.85,0.00,12.58,-9.24,8.44,-34.03,0.00,1.69,0.65,30.45,1295,1375,1375,1293,1335,1500,1502,11445,860
117394,1,5.38,16.63,-1.85,0.169,-0.668,0.861,-3.31,2.36,0.00,0.00,3.31,-2.36,0.00,14.19,-11.03,8.81,-27.66,0.00,0.53,3.40,20.02,1295,1375,1375,1293,1334,1500,1502,11449,860
117406,1,7.80,20.35,-2.68,0.315,-0.547,0.868,-2.98,3.07,0.00,0.00,2.98,-3.07,0.00,13.04,-13.55,5.24,-33.91,0.00,-1.25,0.78,50.41,1295,1375,1375,1293,1334,1500,1502,11445,860
117419,1,9.48,24.28,-2.04,0.119,-0.319,0.958,-2.26,2.88,0.00,0.00,2.26,-2.88,0.00,10.56,-12.91,1.08,-37.19,0.00,-2.86,-0.93,-11.84,1295,1375,1375,1293,1334,1500,1502,11445,860
117431,1,7.68,21.49,-1.94,0.251,-0.248,0.868,-2.08,3.16,0.00,0.00,2.08,-3.16,0.00,9.94,-13.91,2.26,-35.40,0.00,-2.27,0.97,-7.84,1295,1375,1375,1293,1334,1500,1502,11453,860
117442,1,5.17,23.27,-2.07,0.163,-0.150,0.904,-1.51,1.86,0.00,0.00,1.51,-1.86,0.00,7.93,-9.38,2.76,-32.65,0.00,-1.32,0.69,-1.05,1295,1375,1375,1293,1334,1500,1502,11462,860
117454,1,5.43,23.90,-0.79,0.213,-0.153,0.838,-1.90,1.16,0.00,0.00,1.90,-1.16,0.00,9.31,-6.94,3.89,-30.84,0.00,-1.64,0.10,-19.39,1317,1345,1348,1324,1334,1500,1502,11458,909
117466,1,5.47,29.88,-0.46,0.213,-0.183,0.832,-2.36,2.57,0.00,0.00,2.36,-2.57,0.00,10.95,-11.91,5.49,-41.80,0.00,-1.68,-2.81,-25.36,1317,1345,1348,1324,1335,1500,1502,11478,909
117479,1,4.99,36.00,-0.85,-0.066,-0.108,0.894,-2.18,0.61,0.00,0.00,2.18,-0.61,0.00,10.34,-5.04,5.35,-41.04,0.00,-1.55,-4.18,-23.09,1317,1345,1348,1324,1335,1500,1502,11474,909
117491,1,4.92,32.32,-1.25,0.142,-0.087,0.940,-2.06,-0.32,0.00,0.00,2.06,0.32,0.00,9.93,-1.80,5.01,-34.12,0.00,-1.55,-2.26,36.00,1317,1345,1348,1324,1335,1500,1502,11474,909
117502,1,4.72,31.61,-2.23,0.323,-0.109,0.956,-2.36,5.53,0.00,0.00,2.36,-5.53,0.00,11.00,-22.31,6.28,-53.92,0.00,-1.53,-4.19,45.48,1317,1345,1348,1324,1335,1500,1502,11499,909
117514,1,4.60,46.20,-3.44,-0.464,-0.080,1.230,-2.17,5.35,0.00,0.00,2.17,-5.35,0.00,10.33,-21.74,5.73,-67.94,0.00,-1.79,-9.28,59.20,1317,1345,1348,1324,1335,1500,1502,11478,909
117526,1,5.07,34.74,-3.89,-0.412,-0.088,1.108,-2.06,-0.79,0.00,0.00,2.06,0.79,0.00,9.98,-0.26,4.91,-35.00,0.00,-2.05,0.08,61.57,1317,1345,1348,1324,1335,1500,1502,11458,909
117539,1,1.61,17.14,-4.90,0.549,-0.045,0.641,-2.34,1.82,0.00,0.00,2.34,-1.82,0.00,10.96,-9.39,9.35,-26.53,0.00,-0.33,5.97,22.59,1317,1345,1348,1324,1335,1500,1502,11395,909
117551,1,-0.51,37.44,-5.52,0.217,-0.004,0.902,-1.98,3.49,0.00,0.00,1.98,-3.49,0.00,9.72,-15.26,10.24,-52.70,0.00,0.23,-5.30,40.50,1311,1357,1351,1319,1335,1500,1502,11374,965
117562,1,1.39,32.57,-4.05,0.018,-0.075,0.985,-2.45,1.20,0.00,0.00,2.45,-1.20,0.00,11.41,-7.25,10.02,-39.83,0.00,-1.00,-2.27,27.07,1311,1357,1351,1319,1335,1500,1502,11370,965
117574,1,2.52,30.47,-3.47,0.162,0.014,0.825,-2.68,1.49,0.00,0.00,2.68,-1.49,0.00,12.21,-8.28,9.70,-38.75,0.00,-2.12,-1.52,82.45,1311,1357,1351,1319,1335,1500,1502,11395,965
117586,1,4.08,31.79,-2.69,0.260,0.208,0.905,-2.36,2.23,0.00,0.00,2.36,-2.23,0.00,11.14,-10.88,7.06,-42.66,0.00,-3.41,-3.44,74.69,1311,1357,1351,1319,1335,1500,1502,11416,965
117599,1,-0.22,39.35,-1.69,-0.019,0.435,0.929,-2.98,5.66,0.00,0.00,2.98,-5.66,0.00,13.34,-22.94,13.56,-62.29,0.00,-1.37,-8.02,-8.34,1311,1357,1351,1319,1335,1500,1502,11458,965
117611,1,-3.14,34.11,-0.80,-0.195,0.400,0.897,-2.27,2.28,0.00,0.00,2.27,-2.28,0.00,10.88,-11.13,14.02,-45.24,0.00,-0.37,-2.72,22.20,1311,1357,1351,1319,1335,1500,1502,11453,965
117622,1,-6.03,29.20,-2.20,0.295,0.340,0.700,-1.45,3.25,0.00,0.00,1.45,-3.25,0.00,8.03,-14.57,14.06,-43.77,0.00,0.77,-1.16,41.31,1311,1357,1351,1319,1335,1500,1502,11458,965
117634,1,-9.11,39.58,-4.09,-0.327,0.184,1.083,-1.99,1.28,0.00,0.00,1.99,-1.28,0.00,9.94,-7.70,19.05,-47.27,0.00,2.05,-5.69,72.85,1311,1357,1351,1319,1335,1500,1502,11445,965
117646,1,-8.16,25.42,-6.57,0.047,-0.041,0.896,-2.93,-0.25,0.00,0.00,2.93,0.25,0.00,13.26,-2.32,21.43,-27.75,0.00,1.55,1.83,120.20,1311,1357,1351,1319,1334,1500,1502,11428,965
117659,1,-6.94,27.01,-8.47,0.237,-0.074,0.676,-2.58,3.25,0.00,0.00,2.58,-3.25,0.00,12.07,-14.59,19.01,-41.60,0.00,0.87,-0.24,91.84,1265,1400,1399,1270,1334,1500,1502,11453,930
117671,1,-5.39,30.68,-6.20,0.291,-0.084,0.847,-2.16,4.89,0.00,0.00,2.16,-4.89,0.00,10.62,-20.35,16.01,-51.03,0.00,0.07,-2.82,106.47,1265,1400,1399,1270,1335,1500,1502,11428,930
117682,1,-5.96,36.69,-3.51,0.158,-0.021,0.896,-2.58,10.03,0.00,0.00,2.58,-10.03,0.00,12.10,-38.44,18.07,-75.13,0.00,0.42,-7.18,62.63,1265,1400,1399,1270,1335,1500,1502,11391,930
117694,1,-2.41,41.29,-1.33,-0.050,-0.005,0.989,-2.32,6.17,0.00,0.00,2.32,-6.17,0.00,11.23,-25.01,13.65,-66.30,0.00,-1.48,-6.58,41.85,1265,1400,1399,1270,1335,1500,1502,11395,930
117706,1,-0.05,38.70,-1.66,-0.014,0.076,0.961,-2.16,3.84,0.00,0.00,2.16,-3.84,0.00,10.70,-16.88,10.75,-55.57,0.00,-3.17,-4.83,55.14,1265,1400,1399,1270,1335,1500,1502,11403,930
117719,1,-1.08,31.88,-3.29,0.073,0.056,0.904,-2.66,2.18,0.00,0.00,2.66,-2.18,0.00,12.45,-11.08,13.53,-42.96,0.00,-3.06,-1.64,22.05,1265,1400,1399,1270,1335,1500,1502,11428,930
117731,1,-9.03,31.70,-4.62,0.063,0.535,0.907,-1.00,0.41,0.00,0.00,1.00,-0.41,0.00,6.67,-4.89,15.69,-36.58,0.00,-0.29,-1.77,108.36,1265,1400,1399,1270,1335,1500,1502,11441,930
117742,1,-10.91,27.15,-2.75,0.380,0.491,0.713,-1.13,4.94,0.00,0.00,1.13,-4.94,0.00,7.13,-20.79,18.05,-47.93,0.00,0.22,-1.85,68.40,1265,1400,1399,1270,1335,1500,1502,11445,930
117755,1,-10.93,37.70,-0.77,0.063,0.313,0.772,-1.18,4.18,0.00,0.00,1.18,-4.18,0.00,7.34,-18.15,18.27,-55.85,0.00,0.04,-5.97,30.09,1243,1425,1420,1250,1335,1500,1502,11453,815
117766,1,-10.45,42.70,-0.42,-0.162,0.269,0.950,-1.58,2.02,0.00,0.00,1.58,-2.02,0.00,8.77,-10.62,19.22,-53.32,0.00,-0.43,-7.68,22.45,1243,1425,1420,1250,1335,1500,1502,11428,815
117779,1,-8.29,39.06,-0.25,-0.374,0.210,0.996,-1.78,-1.20,0.00,0.00,1.78,1.20,0.00,9.46,0.63,17.76,-38.43,0.00,-1.69,-4.66,-45.99,1243,1425,1420,1250,1335,1500,1502,11387,815
117791,1,-7.67,32.36,-1.46,-0.018,0.175,0.892,-1.98,-1.80,0.00,0.00,1.98,1.80,0.00,10.19,2.78,17.85,-29.58,0.00,-1.59,-1.41,37.50,1243,1425,1420,1250,1335,1500,1502,11395,815
117802,1,-12.07,40.24,-2.52,-0.362,0.202,1.195,-2.31,-2.11,0.00,0.00,2.31,2.11,0.00,11.40,3.86,23.46,-36.38,0.00,0.74,-5.48,67.29,1243,1425,1420,1250,1335,1500,1502,11412,815
117814,1,-12.58,30.39,-2.48,-0.205,-0.053,1.096,-3.10,-3.64,0.00,0.00,3.10,3.64,0.00,14.17,9.24,26.75,-21.15,0.00,1.40,-0.13,74.45,1243,1425,1420,1250,1335,1500,1502,11445,815
117826,1,-10.82,32.84,-2.49,0.043,-0.213,0.868,-3.19,-3.13,0.00,0.00,3.19,3.13,0.00,14.54,7.49,25.36,-25.35,0.00,0.94,-1.47,75.46,1243,1425,1420,1250,1335,1500,1501,11445,815
117839,1,-6.16,34.65,-1.59,0.070,-0.327,0.889,-3.58,-3.74,0.00,0.00,3.58,3.74,0.00,15.91,9.69,22.07,-24.96,0.00,-0.94,-2.51,3.10,1243,1425,1420,1250,1335,1500,1501,11395,815
117851,1,-1.93,30.22,-1.52,0.185,-0.298,0.833,-4.04,-2.27,0.00,0.00,4.04,2.27,0.00,17.56,4.57,19.48,-25.65,0.00,-2.69,-1.15,63.23,1295,1375,1373,1295,1335,1500,1501,11395,811
117863,1,1.67,32.62,-1.30,0.111,-0.204,0.729,-4.24,-2.01,0.00,0.00,4.24,2.01,0.00,18.27,3.68,16.60,-28.94,0.00,-4.00,-1.70,60.11,1295,1375,1373,1295,1335,1500,1501,11412,811
117874,1,3.80,32.28,-1.12,0.140,-0.129,0.838,-3.78,-2.93,0.00,0.00,3.78,2.93,0.00,16.71,6.92,12.91,-25.36,0.00,-4.40,-1.27,151.43,1295,1375,1373,1295,1335,1500,1501,11412,811
117886,1,3.18,29.71,-1.58,0.197,-0.153,0.876,-3.80,-1.61,0.00,0.00,3.80,1.61,0.00,16.79,2.33,13.61,-27.38,0.00,-3.45,-0.80,160.55,1295,1375,1373,1295,1335,1500,1501,11420,811
117899,1,5.10,26.41,-1.28,0.275,-0.178,0.755,-3.79,-1.09,0.00,0.00,3.79,1.09,0.00,16.78,0.54,11.69,-25.87,0.00,-3.76,1.10,2.41,1295,1375,1373,1295,1335,1500,1501,11391,811
117911,1,8.79,25.96,0.13,0.365,-0.191,0.686,-3.78,-0.58,0.00,0.00,3.78,0.58,0.00,16.80,-1.25,8.00,-27.21,0.00,-4.88,0.55,37.91,1295,1375,1373,1295,1335,1500,1501,11374,811
117922,1,11.49,26.17,2.71,0.226,-0.205,0.713,-4.06,1.06,0.00,0.00,4.06,-1.06,0.00,17.80,-6.97,6.31,-33.14,0.00,-5.46,-0.93,1.21,1295,1375,1373,1295,1335,1500,1501,11366,811
117934,1,14.16,26.66,5.13,0.143,-0.156,0.705,-3.92,-0.11,0.00,0.00,3.92,0.11,0.00,17.35,-2.90,3.19,-29.56,0.00,-5.98,-0.47,-79.94,1295,1375,1373,1295,1335,1500,1501,11391,811
117946,1,11.43,30.26,6.83,-0.097,0.015,0.893,-3.79,0.22,0.00,0.00,3.79,-0.22,0.00,16.93,-4.05,5.50,-34.31,0.00,-4.13,-3.44,-86.80,1295,1375,1373,1295,1335,1500,1501,11428,811
117959,1,7.69,25.38,7.41,-0.213,-0.000,0.747,-3.07,-2.52,0.00,0.00,3.07,2.52,0.00,14.41,5.58,6.72,-19.80,0.00,-1.78,1.07,-86.96,1370,1299,1290,1379,1335,1500,1501,11428,810
117971,1,5.16,30.84,6.21,-0.002,-0.110,0.773,-3.25,-4.54,0.00,0.00,3.25,4.54,0.00,15.07,12.66,9.91,-18.18,0.00,0.14,-0.97,91.53,1370,1299,1290,1379,1335,1500,1501,11453,810
117982,1,5.52,30.42,4.54,-0.307,-0.265,0.976,-3.44,-4.49,0.00,0.00,3.44,4.49,0.00,15.76,12.53,10.24,-17.89,0.00,0.29,-1.98,116.27,1370,1299,1290,1379,1335,1500,1501,11458,810
117994,1,7.56,20.68,2.16,-0.037,-0.384,0.800,-3.38,-2.16,0.00,0.00,3.38,2.16,0.00,15.58,4.42,8.02,-16.27,0.00,-0.15,1.90,54.98,1370,1299,1290,1379,1335,1500,1500,11449,810
118006,1,10.55,19.47,-0.08,0.193,-0.439,0.614,-3.88,-0.70,0.00,0.00,3.88,0.70,0.00,17.36,-0.70,6.81,-20.16,0.00,-0.97,2.42,77.29,1370,1299,1290,1379,1335,1500,1500,11445,810
118019,1,13.23,24.90,-0.56,0.126,-0.380,0.818,-3.71,-0.89,0.00,0.00,3.71,0.89,0.00,16.80,-0.02,3.56,-24.92,0.00,-1.99,-0.39,11.36,1370,1299,1290,1379,1335,1500,1500,11395,810
118031,1,15.03,20.07,0.20,0.120,-0.260,0.958,-2.40,0.72,0.00,0.00,2.40,-0.72,0.00,12.24,-5.64,-2.79,-25.71,0.00,-2.96,0.34,56.48,1370,1299,1290,1379,1335,1500,1490,11349,810
118042,1,17.53,11.15,2.26,0.284,-0.275,0.754,-2.41,3.25,0.00,0.00,2.41,-3.25,0.00,12.26,-14.52,-5.27,-25.67,0.00,-3.96,3.22,16.68,1370,1299,1290,1379,1335,1500,1490,11366,810
118054,1,21.57,19.49,1.93,0.293,-0.134,0.758,-1.71,2.88,0.00,0.00,1.71,-2.88,0.00,9.83,-13.27,-11.74,-32.75,0.00,-5.69,-0.80,35.15,1272,1394,1393,1280,1335,1500,1490,11387,811
118066,1,21.03,14.91,1.91,0.063,0.041,0.883,-1.25,1.21,0.00,0.00,1.25,-1.21,0.00,8.21,-7.42,-12.82,-22.33,0.00,-5.09,0.24,49.00,1272,1394,1393,1280,1335,1500,1490,11395,811
118079,1,20.87,9.17,2.37,0.179,0.121,0.617,-0.83,0.74,0.00,0.00,0.83,-0.74,0.00,6.76,-5.78,-14.11,-14.95,0.00,-4.53,2.39,-24.05,1272,1394,1393,1280,1335,1500,1490,11395,811
118091,1,19.03,9.86,3.46,0.114,0.180,0.858,-0.47,-0.56,0.00,0.00,0.47,0.56,0.00,5.53,-1.24,-13.50,-11.09,0.00,-3.44,-0.03,-35.35,1272,1394,1393,1280,1335,1500,1482,11391,811
118102,1,14.97,3.87,5.02,-0.303,0.049,0.966,-0.57,-1.54,0.00,0.00,0.57,1.54,0.00,5.88,2.20,-9.09,-1.67,0.00,-1.48,1.04,-68.70,1272,1394,1393,1280,1335,1500,1482,11395,811
118114,1,14.75,-18.78,5.56,0.500,-0.221,0.557,-1.77,-0.36,0.00,0.00,1.77,0.36,0.00,10.06,-1.91,-4.69,16.87,0.00,-1.10,9.59,-80.42,1272,1394,1393,1280,1335,1500,1482,11399,811
118126,1,15.79,-4.13,3.39,0.322,-0.288,0.831,-1.72,5.17,0.00,0.00,1.72,-5.17,0.00,9.91,-21.31,-5.88,-17.18,0.00,-1.98,-2.47,-44.37,1272,1394,1393,1280,1335,1500,1481,11416,811
118139,1,18.85,-2.83,1.29,-0.361,-0.279,1.072,-1.28,4.54,0.00,0.00,1.28,-4.54,0.00,8.35,-19.14,-10.50,-16.31,0.00,-3.72,-3.09,-12.68,1272,1394,1393,1280,1335,1500,1481,11416,811
118151,1,16.15,-16.70,-1.60,0.069,-0.124,0.738,-2.04,1.80,0.00,0.00,2.04,-1.80,0.00,11.02,-9.57,-5.13,7.13,0.00,-2.45,4.32,59.19,1300,1371,1374,1293,1335,1500,1481,11433,811
118163,1,12.85,-13.87,-4.30,0.285,0.081,0.603,-1.14,1.05,0.00,0.00,1.14,-1.05,0.00,7.91,-6.95,-4.94,6.92,0.00,-1.43,1.94,96.89,1300,1371,1374,1293,1335,1500,1481,11437,811
118174,1,14.93,-7.32,-5.31,0.044,0.103,0.925,-0.54,-2.08,0.00,-1.98,0.54,0.10,0.00,5.80,-2.93,-9.13,4.38,0.00,-2.33,-2.18,76.15,1300,1371,1374,1293,1335,1500,1478,11437,811
118186,1,17.03,-14.11,-5.20,-0.143,0.198,1.161,-0.68,-3.17,0.00,-2.16,0.68,1.01,0.00,6.28,0.25,-10.74,14.36,0.00,-2.73,-0.94,65.35,1300,1371,1374,1293,1335,1500,1476,11433,811
118199,1,16.20,-27.67,-2.73,-0.053,0.280,0.939,-1.17,-2.07,0.00,-2.16,1.17,-0.09,0.00,8.05,-3.58,-8.15,24.08,0.00,-1.87,3.81,39.07,1300,1371,1374,1293,1335,1500,1476,11445,811
118211,1,15.73,-34.45,-0.21,0.168,0.191,0.576,-1.10,-0.93,0.00,-2.70,1.10,-1.77,0.00,7.79,-9.48,-7.94,24.97,0.00,-1.38,6.00,-5.81,1300,1371,1374,1293,1335,1500,1470,11441,811
118222,1,15.78,-24.84,-0.04,0.078,0.187,0.594,-0.34,-2.53,0.00,-2.70,0.34,-0.17,0.00,5.15,-3.87,-10.63,20.96,0.00,-1.21,0.73,-4.80,1300,1371,1374,1293,1335,1500,1470,11441,811
118234,1,15.36,-19.36,-0.42,-0.319,0.202,0.954,-0.03,-6.14,0.00,-2.97,0.03,3.17,0.00,4.07,7.83,-11.29,27.19,0.00,-0.86,-2.75,7.34,1300,1371,1374,1293,1335,1500,1467,11441,811
118246,1,15.29,-30.07,-0.91,-0.333,0.140,1.075,-0.65,-6.56,0.00,-3.60,0.65,2.96,0.00,6.26,7.14,-9.03,37.21,0.00,-0.49,0.31,19.81,1300,1371,1374,1293,1335,1500,1460,11441,811
118259,1,14.71,-40.28,-2.67,-0.245,0.091,0.920,-1.69,-4.57,0.00,-3.60,1.69,0.97,0.00,9.90,0.19,-4.81,40.47,0.00,0.24,3.07,56.83,1265,1403,1410,1261,1335,1500,1460,11403,811
118271,1,12.18,-45.22,-4.48,-0.146,0.116,0.842,-1.02,-5.84,0.00,-3.60,1.02,2.24,0.00,7.59,4.64,-4.58,49.86,0.00,1.30,4.54,81.56,1265,1403,1410,1261,1335,1500,1460,11408,811
118282,1,8.48,-51.16,-5.06,-0.023,0.152,0.950,-0.42,-6.00,0.00,-3.60,0.42,2.40,0.00,5.49,5.22,-2.99,56.38,0.00,2.39,4.65,92.49,1265,1403,1410,1261,1335,1500,1460,11395,811
118294,1,4.94,-60.22,-4.68,0.077,0.116,0.891,-0.77,-3.34,0.00,-4.05,0.77,-0.71,0.00,6.75,-5.65,1.81,54.57,0.00,3.67,5.36,89.38,1265,1403,1410,1261,1335,1500,1455,11391,811
118306,1,2.48,-59.05,-4.13,-0.106,0.010,0.850,-1.08,-4.50,0.00,-8.01,1.08,-3.51,0.00,7.82,-15.47,5.34,43.58,0.00,4.57,3.02,77.40,1265,1403,1410,1261,1335,1500,1411,11391,811
118319,1,2.81,-58.08,-3.87,-0.316,-0.153,0.923,-1.38,-9.18,0.00,-8.01,1.38,1.17,0.00,8.88,0.90,6.07,58.98,0.00,3.79,2.74,68.73,1265,1403,1410,1261,1335,1500,1411,11391,811
118331,1,4.86,-68.09,-3.99,-0.158,-0.165,0.955,-1.54,-11.17,0.00,-10.71,1.54,0.46,0.00,9.47,-1.58,4.61,66.51,0.00,2.02,4.06,68.62,1265,1403,1410,1261,1335,1499,1381,11399,811
118342,1,5.57,-73.60,-3.87,-0.218,0.010,0.934,-1.12,-10.07,0.00,-10.71,1.12,-0.64,0.00,8.02,-5.42,2.45,68.19,0.00,1.07,2.93,62.84,1265,1403,1410,1261,1335,1499,1381,11403,811
118354,1,4.11,-83.52,-3.25,-0.281,0.137,0.858,-0.88,-10.19,0.00,-11.52,0.88,-1.33,0.00,7.17,-7.85,3.06,75.68,0.00,1.35,5.08,48.23,1299,1369,1384,1285,1335,1499,1372,11420,814
118367,1,1.64,-91.95,-3.57,0.046,0.320,0.660,0.07,-8.76,0.00,-12.87,-0.07,-4.11,0.00,3.88,-17.58,2.24,74.37,0.00,1.99,5.93,58.38,1299,1369,1384,1285,1335,1499,1357,11399,814
118379,1,-3.92,-83.13,-3.91,-0.333,0.493,1.016,0.26,-8.98,0.00,-12.87,-0.26,-3.89,0.00,3.23,-16.86,7.14,66.27,0.00,3.99,-0.91,59.26,1299,1369,1384,1285,1335,1499,1357,11395,814
118391,1,-11.09,-91.45,-3.82,-0.748,0.380,1.310,-0.47,-11.68,0.00,-12.87,0.47,-1.19,0.00,5.77,-7.45,16.86,83.99,0.00,6.86,1.99,45.33,1299,1369,1384,1285,1335,1499,1357,11374,814
118402,1,-14.71,-112.06,-4.04,-0.173,0.109,1.038,-0.98,-11.22,0.00,-12.87,0.98,-1.65,0.00,7.59,-9.08,22.29,102.98,0.00,8.18,8.82,47.20,1299,1369,1384,1285,1335,1499,1357,11374,814
118414,1,-14.28,-107.72,-4.40,-0.163,-0.117,1.041,-1.56,-8.79,0.00,-13.05,1.56,-4.26,0.00,9.63,-18.25,23.91,89.47,0.00,7.35,3.74,52.45,1299,1369,1384,1285,1335,1499,1355,11387,814
118426,1,-12.14,-104.01,-4.27,-0.542,-0.249,1.242,-1.74,-10.56,0.00,-12.96,1.74,-2.40,0.00,10.29,-11.76,22.44,92.25,0.00,5.59,1.65,54.12,1299,1369,1384,1285,1335,1499,1356,11395,814
118439,1,-11.92,-115.18,-4.85,-0.280,-0.238,1.129,-1.70,-10.73,0.00,-12.96,1.70,-2.23,0.00,10.16,-11.21,22.08,103.98,0.00,4.92,5.59,74.70,1299,1369,1384,1285,1335,1499,1356,11416,814
118451,1,-10.24,-116.85,-5.27,-0.261,-0.135,0.900,-1.42,-10.67,0.00,-12.87,1.42,-2.20,0.00,9.19,-11.12,19.43,105.73,0.00,3.64,5.82,87.00,1275,1389,1402,1271,1335,1499,1357,11424,815
118462,1,-8.78,-116.22,-4.73,-0.240,-0.052,0.921,-1.03,-13.14,0.00,-12.87,1.03,0.27,0.00,7.84,-2.48,16.62,113.74,0.00,2.64,5.69,80.03,1275,1389,1402,1271,1335,1499,1357,11416,815
118474,1,-10.10,-122.81,-6.41,-0.260,0.085,1.072,-0.65,-13.02,0.00,-12.87,0.65,0.15,0.00,6.50,-2.90,16.61,119.90,0.00,2.82,5.63,105.79,1275,1389,1402,1271,1335,1499,1357,11416,815
118486,1,-11.25,-122.72,-5.26,-0.461,0.028,1.225,-0.85,-13.48,0.00,-12.51,0.85,0.97,0.00,7.24,-0.02,18.48,122.70,0.00,3.18,4.50,47.28,1275,1389,1402,1271,1335,1498,1361,11453,815
118499,1,-12.87,-137.92,-4.61,-0.073,-0.125,0.947,-1.05,-13.04,0.00,-12.51,1.05,0.53,0.00,7.93,-1.58,20.80,136.34,0.00,3.74,10.19,27.61,1275,1389,1402,1271,1335,1498,1361,11428,815
118511,1,-10.15,-137.31,-4.73,0.156,-0.266,0.787,-1.30,-9.79,0.00,-11.43,1.30,-1.64,0.00,8.83,-9.17,18.98,128.14,0.00,2.03,7.35,51.11,1275,1389,1402,1271,1335,1498,1373,11399,815
118522,1,-6.98,-128.50,-4.61,-0.072,-0.242,0.976,-1.02,-6.97,0.00,-11.43,1.02,-4.46,0.00,7.83,-19.06,14.80,109.44,0.00,0.22,1.24,47.42,1275,1389,1402,1271,1335,1498,1373,11378,815
118534,1,-7.92,-123.03,-3.90,-0.522,-0.090,1.215,-0.65,-6.99,0.00,-11.43,0.65,-4.44,0.00,6.54,-19.07,14.46,103.96,0.00,0.43,-1.08,8.72,1275,1389,1402,1271,1335,1498,1373,11387,815
118546,1,-11.85,-138.83,-2.75,-0.318,0.017,0.921,-0.79,-9.13,0.00,-10.17,0.79,-1.04,0.00,7.04,-7.20,18.89,131.62,0.00,2.07,7.75,14.39,1275,1389,1402,1271,1335,1498,1387,11395,815
118559,1,-15.83,-136.95,-4.36,-0.493,0.117,1.206,-0.52,-10.64,0.00,-10.17,0.52,0.47,0.00,6.10,-1.91,21.93,135.04,0.00,3.63,5.40,42.19,1301,1364,1388,1285,1335,1498,1387,11428,815
118571,1,-21.82,-145.45,-4.75,-0.583,-0.009,1.350,-0.75,-11.54,0.00,-8.55,0.75,2.99,0.00,6.94,6.91,28.75,152.36,0.00,6.06,8.03,17.86,1301,1364,1388,1285,1335,1498,1405,11408,815
118582,1,-25.29,-163.66,-5.19,-0.210,-0.264,1.033,-0.99,-10.73,0.00,-8.55,0.99,2.18,0.00,7.80,4.09,33.08,167.74,0.00,6.96,14.53,20.39,1301,1364,1388,1285,1335,1498,1405,11399,815
118594,1,-24.84,-164.55,-5.75,-0.172,-0.458,0.866,-1.83,-11.45,0.00,-7.92,1.83,3.53,0.00,10.73,8.86,35.58,173.41,0.00,5.75,14.12,49.90,1301,1364,1388,1285,1335,1498,1412,11412,815
118606,1,-21.64,-167.15,-6.46,-0.237,-0.539,0.865,-2.62,-14.64,0.00,-5.49,2.62,9.15,0.00,13.53,28.60,35.17,195.75,0.00,3.21,15.67,55.68,1301,1364,1388,1285,1335,1499,1439,11383,815
118619,1,-20.40,-176.94,-6.86,0.178,-0.499,0.714,-3.63,-13.81,0.00,-5.49,3.63,8.32,0.00,17.08,25.77,37.48,202.71,0.00,1.79,17.02,30.87,1301,1364,1388,1285,1335,1499,1439,11408,815
118631,1,-21.54,-170.75,-7.30,-0.022,-0.335,0.827,-3.46,-12.06,0.00,-5.49,3.46,6.57,0.00,16.50,19.72,38.04,190.47,0.00,1.44,11.17,62.22,1301,1364,1388,1285,1335,1499,1439,11416,815
118642,1,-22.86,-173.24,-6.44,-0.144,-0.322,0.888,-3.33,-13.61,0.00,-5.49,3.33,8.12,0.00,16.06,25.21,38.92,198.45,0.00,1.34,11.88,41.64,1301,1364,1388,1285,1335,1500,1439,11428,815
118654,1,-23.70,-175.50,-6.97,0.128,-0.188,0.917,-2.85,-13.21,0.00,-2.16,2.85,11.05,0.00,14.40,35.59,38.10,211.09,0.00,1.02,11.20,25.51,1287,1372,1402,1273,1334,1500,1476,11437,811
118666,1,-24.60,-172.15,-6.08,-0.285,0.062,1.133,-1.95,-12.95,0.00,0.00,1.95,12.95,0.00,11.27,42.33,35.87,214.48,0.00,0.93,8.40,10.58,1287,1372,1402,1273,1335,1500,1486,11412,811
118679,1,-27.39,-187.63,-3.27,-0.182,-0.054,0.957,-2.34,-15.37,0.00,0.00,2.34,15.37,0.00,12.65,50.92,40.04,238.55,0.00,2.36,15.99,-9.64,1287,1372,1402,1273,1335,1500,1486,11408,811
118691,1,-23.96,-191.34,-3.11,0.216,-0.160,0.534,-3.36,-13.92,0.00,0.00,3.36,13.92,0.00,16.26,46.03,40.22,237.36,0.00,1.37,16.45,42.46,1287,1372,1402,1273,1335,1500,1499,11424,811
118702,1,-18.05,-187.10,-3.50,0.096,-0.135,0.665,-3.41,-15.02,0.00,0.00,3.41,15.02,0.00,16.48,50.01,34.53,237.11,0.00,-0.45,13.45,51.33,1287,1372,1402,1273,1335,1500,1499,11441,811
118714,1,-14.62,-191.16,-3.57,0.127,0.006,0.864,-3.10,-13.36,0.00,0.00,3.10,13.36,0.00,15.41,44.34,30.02,235.50,0.00,-1.07,12.39,30.33,1287,1372,1402,1273,1335,1500,1500,11441,811
118726,1,-14.90,-198.27,-3.03,0.189,0.028,0.794,-3.04,-8.68,0.00,0.00,3.04,8.68,0.00,15.24,28.05,30.14,226.32,0.00,0.26,13.58,19.29,1287,1372,1402,1273,1335,1500,1502,11428,811
118739,1,-17.33,-192.71,-3.86,0.252,0.058,0.804,-2.40,-7.05,0.00,0.00,2.40,7.05,0.00,13.03,22.40,30.37,215.11,0.00,2.09,11.45,14.98,1287,1372,1402,1273,1335,1500,1502,11374,811
118751,1,-19.11,-183.62,-2.99,-0.216,-0.016,1.287,-2.64,-9.15,0.00,0.00,2.64,9.15,0.00,13.90,29.86,33.01,213.48,0.00,2.93,8.07,38.61,1311,1356,1375,1300,1336,1500,1502,11391,811
118762,1,-22.23,-200.37,-0.54,-0.140,-0.318,1.012,-3.48,-9.99,0.00,0.00,3.48,9.99,0.00,16.84,32.87,39.08,233.24,0.00,4.16,15.96,6.70,1311,1356,1375,1300,1336,1500,1502,11378,811
118774,1,-20.93,-197.61,-1.43,0.029,-0.535,0.816,-3.79,-12.04,0.00,0.00,3.79,12.04,0.00,17.97,40.16,38.90,237.77,0.00,3.05,15.47,32.59,1311,1356,1375,1300,1335,1500,1502,11374,811
118786,1,-17.84,-200.56,-2.67,-0.022,-0.431,0.944,-3.86,-13.35,0.00,0.00,3.86,13.35,0.00,18.24,44.87,36.07,245.42,0.00,0.71,15.44,65.38,1311,1356,1375,1300,1335,1500,1502,11391,811
118799,1,-19.60,-211.60,-3.37,0.093,-0.300,0.757,-3.82,-11.45,0.00,0.00,3.82,11.45,0.00,18.11,38.33,37.71,249.92,0.00,1.21,18.31,50.64,1311,1356,1375,1300,1335,1500,1502,11412,811
118811,1,-21.88,-210.05,-5.16,0.352,-0.270,0.437,-4.51,-10.05,0.00,0.00,4.51,10.05,0.00,20.55,33.54,42.43,243.59,0.00,1.92,17.48,102.78,1311,1356,1375,1300,1335,1500,1502,11395,811
118822,1,-23.42,-195.05,-5.02,0.131,-0.227,0.795,-4.53,-12.20,0.00,0.00,4.53,12.20,0.00,20.66,41.19,44.08,236.24,0.00,2.01,10.37,92.01,1311,1356,1375,1300,1335,1500,1502,11378,811
118834,1,-23.10,-197.32,-3.27,-0.282,-0.237,0.951,-3.99,-14.69,0.00,0.00,3.99,14.69,0.00,18.80,50.04,41.90,247.36,0.00,1.12,10.77,42.11,1311,1356,1375,1300,1335,1500,1502,11395,811
118846,1,-22.54,-214.74,-3.10,0.513,-0.367,0.511,-5.01,-11.01,0.00,0.00,5.01,11.01,0.00,22.43,37.27,44.97,252.00,0.00,0.96,17.60,25.88,1311,1356,1375,1300,1335,1500,1502,11370,811
118859,1,-19.85,-190.16,-5.45,0.075,-0.124,0.860,-3.33,-10.51,0.00,0.00,3.33,10.51,0.00,16.58,35.65,36.43,225.81,0.00,-0.66,5.47,46.59,1282,1384,1412,1259,1335,1500,1502,11358,819
118871,1,-20.70,-193.26,-6.22,-0.152,0.005,1.115,-3.08,-10.92,0.00,0.00,3.08,10.92,0.00,15.73,37.17,36.43,230.44,0.00,-0.39,7.12,72.31,1282,1384,1412,1259,1335,1500,1502,11337,819
118883,1,-19.36,-199.02,-5.97,0.145,-0.051,0.757,-4.08,-8.87,0.00,0.00,4.08,8.87,0.00,19.26,30.09,38.62,229.11,0.00,-0.57,11.06,63.65,1282,1384,1412,1259,1335,1500,1502,11349,819
118894,1,-14.16,-176.21,-5.25,-0.141,0.060,0.957,-3.37,-11.96,0.00,0.00,3.37,11.96,0.00,16.80,41.01,30.95,217.22,0.00,-2.50,3.55,162.88,1282,1384,1412,1259,1335,1500,1501,11320,819
118906,1,-15.02,-187.72,-3.14,-0.345,-0.004,1.016,-3.13,-15.55,0.00,0.00,3.13,15.55,0.00,16.00,53.73,31.02,241.46,0.00,-1.37,12.19,125.03,1282,1384,1412,1259,1334,1500,1502,11337,819
118919,1,-15.85,-195.79,-3.28,0.209,-0.047,0.606,-3.38,-13.48,0.00,0.00,3.38,13.48,0.00,16.91,46.61,32.76,242.40,0.00,0.01,16.40,44.90,1282,1384,1412,1259,1334,1500,1502,11362,819
118931,1,-11.64,-181.94,-3.88,0.221,-0.124,0.690,-3.01,-12.76,0.00,0.00,3.01,12.76,0.00,15.65,44.24,27.28,226.18,0.00,-1.17,10.86,18.84,1282,1384,1412,1259,1335,1500,1501,11341,819
118942,1,-8.46,-179.42,-1.78,-0.041,-0.081,0.804,-3.15,-9.10,0.00,0.00,3.15,9.10,0.00,16.16,31.51,24.62,210.93,0.00,-1.07,9.44,-7.61,1282,1384,1412,1259,1335,1500,1501,11349,819
118954,1,-9.80,-167.17,-2.01,0.152,0.030,0.714,-1.67,-7.40,0.00,0.00,1.67,7.40,0.00,11.00,25.65,20.80,192.83,0.00,0.92,7.35,33.08,1304,1365,1366,1303,1335,1500,1502,11358,811
118966,1,-12.18,-159.41,0.82,-0.244,0.019,0.956,-2.48,-7.90,0.00,0.00,2.48,7.90,0.00,13.87,27.45,26.05,186.86,0.00,3.30,5.89,3.32,1304,1365,1366,1303,1335,1500,1502,11374,811
118979,1,-10.82,-151.83,-1.88,-0.038,-0.084,0.754,-1.34,-7.91,0.00,0.00,1.34,7.91,0.00,9.90,27.57,20.72,179.40,0.00,3.27,6.47,86.76,1304,1365,1366,1303,1335,1500,1502,11387,811
118991,1,-8.48,-141.09,-2.35,-0.485,0.029,1.145,-1.14,-9.96,0.00,0.00,1.14,9.96,0.00,9.20,34.82,17.68,175.92,0.00,2.50,3.75,180.25,1304,1365,1366,1303,1335,1500,1502,11378,811
119002,1,-10.97,-153.46,-4.61,-0.123,0.202,0.847,0.07,-7.30,0.00,0.00,-0.07,7.30,0.00,4.97,25.59,15.94,179.05,0.00,4.01,10.71,211.15,1304,1365,1366,1303,1335,1500,1502,11403,811
119014,1,-9.54,-141.89,-6.52,-0.223,0.359,0.801,1.20,-8.27,0.00,0.00,-1.20,8.27,0.00,1.04,29.05,10.58,170.94,0.00,3.62,6.86,193.35,1304,1365,1366,1303,1334,1500,1502,11412,811
119026,1,-12.43,-142.98,-6.29,-0.089,0.300,0.877,1.47,-7.30,0.00,0.00,-1.47,7.30,0.00,0.10,25.74,12.52,168.72,0.00,5.45,7.70,174.48,1304,1365,1366,1303,1286,1500,1503,11408,811
119039,1,-9.63,-142.59,-3.96,-0.113,0.209,0.696,2.43,-4.98,0.00,0.00,-2.43,4.98,0.00,-3.26,17.67,6.37,160.25,0.00,3.97,7.68,210.42,1304,1365,1366,1303,1286,1500,1503,11366,811
119051,1,-9.76,-134.65,-2.91,-0.243,0.425,1.043,3.43,-5.93,0.00,0.00,-3.43,5.93,0.00,-6.78,21.05,2.98,155.70,0.00,3.59,4.72,269.81,1100,1483,1485,1100,1253,1500,1502,11291,811
119062,1,-12.89,-155.38,0.16,0.114,0.504,0.719,3.91,-0.23,0.00,0.00,-3.91,0.23,0.00,-8.49,1.10,4.40,156.48,0.00,4.57,13.07,237.30,1100,1483,1485,1100,1253,1500,1502,11291,811
119074,9,-10.62,-135.03,3.35,-0.201,0.551,1.150,2.94,-1.58,0.00,0.00,-2.94,1.58,0.00,-10.30,5.54,0.32,140.57,0.00,1.64,0.15,239.20,1100,1483,1485,1100,1199,1500,1502,11291,811
119087,9,-10.85,-126.61,7.02,-0.181,0.398,1.249,1.29,-3.34,0.00,0.00,-1.29,3.34,0.00,-4.53,11.70,6.32,138.31,0.00,0.54,-1.78,-94.85,1100,1483,1485,1100,1198,1500,1502,11308,811
119099,9,-14.01,-149.58,11.72,0.287,0.417,0.689,0.05,-2.18,0.00,0.00,-0.05,2.18,0.00,-0.17,7.64,13.84,157.22,0.00,0.01,8.41,-134.68,1100,1483,1485,1100,1198,1500,1502,11349,811
119111,9,-10.89,-146.86,13.47,0.153,0.355,0.535,1.60,-5.03,0.00,0.00,-1.60,5.03,0.00,-5.61,17.61,5.28,164.46,0.00,-4.27,6.09,-122.94,1100,1483,1485,1100,1197,1500,1502,11374,811
119122,9,-20.51,-156.08,12.32,0.002,-0.128,0.620,-0.00,-7.35,0.00,0.00,0.00,7.35,0.00,0.01,25.73,20.53,181.81,0.00,-2.29,10.89,-80.15,1100,1483,1485,1100,1197,1500,1502,11391,811
119134,9,-47.23,-173.78,12.59,-0.062,-0.741,0.650,-2.47,-6.42,0.00,0.00,2.47,6.42,0.00,8.64,22.48,55.87,196.26,0.00,7.41,16.43,-65.60,1100,1483,1485,1100,1197,1500,1502,11408,811
119146,9,-67.82,-141.99,10.43,-0.518,-0.243,0.983,-0.66,-10.75,0.00,0.00,0.66,10.75,0.00,2.33,37.63,70.14,179.63,0.00,13.55,2.00,34.83,1100,1483,1485,1100,1197,1500,1502,11437,811
119159,9,-74.05,-166.57,10.35,-0.153,0.067,0.422,1.98,-8.76,0.00,0.00,-1.98,8.76,0.00,-6.95,30.65,67.11,197.22,0.00,12.93,12.70,15.78,1164,1221,1244,1157,1197,1500,1502,11458,818
119171,9,-76.08,-156.83,-5.52,0.632,-0.454,1.877,-1.51,-4.77,0.00,0.00,1.51,4.77,0.00,5.30,16.68,81.38,173.51,0.00,9.11,4.74,274.44,1164,1221,1244,1157,1197,1500,1502,11462,818
119182,9,-141.14,-286.42,-21.49,2.080,-2.349,-0.439,-9.06,-5.79,0.00,0.00,9.06,5.79,0.00,31.72,20.27,172.86,306.69,0.00,29.41,57.54,350.00,1164,1221,1244,1157,1197,1500,1502,11458,818
119194,9,-199.02,-358.15,-98.12,0.880,-1.188,-0.018,-13.50,1.42,0.00,0.00,13.50,-1.42,0.00,47.25,-4.98,246.27,353.17,0.00,40.57,78.65,350.00,1164,1221,1244,1157,1197,1500,1502,11499,818
