time_ms,flags,gyro_x,gyro_y,gyro_z,accel_x,accel_y,accel_z,angle_roll,angle_pitch,rate_sp_roll,rate_sp_pitch,rate_err_roll,rate_err_pitch,rate_i_roll,rate_i_pitch,rate_i_yaw,pid_roll,pid_pitch,pid_yaw,m1,m2,m3,m4,rc_thr,rc_roll,rc_pitch,battery_mv,loop_us
40248,0,0.15,-0.97,0.54,0.053,-0.073,0.995,0.00,0.00,0.00,0.00,-0.15,0.97,0.01,0.00,-0.02,-0.07,1.17,-1.37,1000,1000,1000,1000,1074,1504,1520,11408,769
40260,0,-0.61,0.85,-0.40,0.039,-0.074,1.007,0.00,0.00,0.00,4.80,0.61,3.95,0.01,0.01,-0.02,0.89,0.19,0.99,1000,1000,1000,1000,1074,1500,1524,11408,769
40272,0,0.17,1.11,-0.03,0.035,-0.070,1.020,0.00,0.00,0.00,4.80,-0.17,3.69,0.01,0.01,-0.01,-0.27,0.68,0.08,1000,1000,1000,1000,1037,1500,1524,11408,769
40284,0,-0.25,0.91,0.63,0.025,-0.072,1.023,0.00,0.00,0.00,4.80,0.25,3.89,0.01,0.03,-0.02,0.40,0.93,-1.60,1000,1000,1000,1000,1037,1500,1524,11412,769
40296,0,-0.45,1.31,-0.44,0.028,-0.078,1.021,0.00,0.00,0.00,4.80,0.45,3.49,0.01,0.04,-0.02,0.58,0.40,1.09,1100,1100,1100,1100,1037,1500,1524,11412,768
40308,0,-0.01,-1.32,-0.35,0.061,-0.071,0.988,0.00,0.00,0.00,4.80,0.01,6.12,0.01,0.05,-0.00,-0.13,4.00,0.87,1100,1100,1100,1100,1038,1500,1524,11408,768
40320,0,0.18,-0.68,0.61,0.064,-0.069,0.997,0.00,0.00,0.00,4.20,-0.18,4.88,0.01,0.06,-0.01,-0.26,2.27,-1.55,1100,1100,1100,1100,1038,1502,1521,11408,768
40332,0,-0.46,-0.20,0.03,0.059,-0.074,0.988,0.00,0.00,0.00,4.20,0.46,4.40,0.01,0.08,-0.02,0.74,1.17,-0.09,1100,1100,1100,1100,1037,1502,1521,11412,768
40344,0,-0.09,1.43,-0.31,0.053,-0.069,1.000,0.00,0.00,0.00,4.80,0.09,3.37,0.01,0.09,-0.01,0.08,-0.76,0.77,1100,1100,1100,1100,1037,1500,1524,11403,768
40356,0,-0.21,-0.06,0.15,0.054,-0.069,1.000,0.00,0.00,0.00,4.80,0.21,4.86,0.01,0.10,-0.01,0.37,1.99,-0.37,1100,1100,1100,1100,1037,1500,1524,11395,768
40368,0,-0.35,-0.15,0.17,0.050,-0.071,0.998,0.00,0.00,0.00,4.80,0.35,4.95,0.01,0.11,-0.02,0.56,2.09,-0.44,1100,1100,1100,1100,1037,1500,1524,11395,768
40380,0,-0.10,0.35,-0.29,0.054,-0.068,1.003,0.00,0.00,0.00,4.80,0.10,4.45,0.01,0.12,-0.01,0.13,1.48,0.72,1100,1100,1100,1100,1037,1500,1524,11399,768
40392,0,0.07,-0.24,-0.04,0.054,-0.069,0.997,0.00,0.00,0.00,4.80,-0.07,5.04,0.01,0.13,-0.01,-0.05,2.36,0.08,1100,1100,1100,1100,1037,1500,1524,11403,768
40404,0,-0.00,-0.19,0.13,0.049,-0.071,1.002,0.00,0.00,0.00,4.80,0.00,4.99,0.01,0.14,-0.01,0.06,2.25,-0.33,1100,1100,1100,1100,1037,1500,1524,11399,771
40416,0,0.20,0.12,-0.13,0.052,-0.069,0.998,0.00,0.00,0.00,4.80,-0.20,4.68,0.01,0.16,-0.01,-0.31,1.91,0.31,1100,1100,1100,1100,1037,1500,1524,11395,771
40428,0,0.22,-0.20,-0.05,0.054,-0.069,1.002,0.00,0.00,0.00,4.80,-0.22,5.00,0.01,0.17,-0.01,-0.28,2.43,0.12,1100,1100,1100,1100,1037,1499,1524,11391,771
40440,0,0.24,-0.15,0.46,0.049,-0.069,1.001,0.00,0.00,0.00,5.00,-0.24,5.15,0.01,0.18,-0.01,-0.31,2.30,-1.17,1100,1100,1100,1100,1037,1499,1525,11391,771
40452,0,-0.10,-0.37,0.13,0.056,-0.070,0.998,0.00,0.00,0.00,5.00,0.10,5.37,0.01,0.19,-0.02,0.19,2.69,-0.35,1100,1100,1100,1100,1036,1499,1525,11395,771
40464,0,0.27,-0.20,-0.96,0.053,-0.068,0.996,0.00,0.00,0.00,5.00,-0.27,5.20,0.01,0.20,-0.00,-0.45,2.53,2.40,1100,1100,1100,1100,1036,1500,1525,11370,771
40476,0,0.04,0.06,0.24,0.043,-0.071,1.003,0.00,0.00,0.00,5.00,-0.04,4.94,0.01,0.21,0.01,-0.03,2.16,-0.59,1100,1100,1100,1100,1036,1500,1525,11366,771
40488,0,-0.22,-0.42,0.88,0.043,-0.077,1.005,0.00,0.00,0.00,4.80,0.22,5.22,0.01,0.23,-0.02,0.36,3.05,-2.22,1100,1100,1100,1100,1036,1500,1524,11366,771
40500,0,-0.21,-0.77,-0.71,0.046,-0.069,1.002,0.00,0.00,0.00,4.80,0.21,5.57,0.01,0.24,-0.02,0.25,3.62,1.75,1100,1100,1100,1100,1036,1500,1524,11358,771
40512,0,0.05,0.31,-1.21,0.049,-0.066,0.998,0.00,0.00,0.00,4.80,-0.05,4.49,0.01,0.25,0.02,-0.10,1.89,3.04,1100,1100,1100,1100,1037,1500,1524,11362,771
40524,0,0.25,0.18,1.29,0.051,-0.066,0.990,0.00,0.00,0.00,4.80,-0.25,4.62,0.01,0.26,0.00,-0.35,2.06,-3.23,1100,1100,1100,1100,1037,1500,1524,11312,771
40536,0,-0.48,-0.11,0.49,0.041,-0.064,0.999,0.00,0.00,0.00,4.80,0.48,4.91,0.01,0.27,-0.04,0.68,2.70,-1.25,1100,1100,1100,1100,1037,1500,1524,11349,771
40548,0,-0.21,-0.04,-1.30,0.049,-0.069,0.992,0.00,0.00,0.00,4.60,0.21,4.64,0.01,0.28,-0.01,0.37,2.75,3.24,1100,1100,1100,1100,1048,1501,1523,11324,771
40560,0,-0.22,2.74,-0.05,0.028,-0.074,1.015,0.00,0.00,0.00,4.80,0.22,2.06,0.01,0.29,0.01,0.31,-1.42,0.14,1100,1100,1100,1100,1048,1500,1524,11274,771
40572,0,0.07,0.05,1.23,0.022,-0.073,1.020,0.00,0.00,0.00,4.80,-0.07,4.75,0.01,0.30,-0.02,-0.25,3.04,-3.10,1100,1100,1100,1100,1037,1500,1524,11254,771
40584,0,0.55,-0.97,-0.20,0.053,-0.070,1.002,0.00,0.00,0.00,4.80,-0.55,5.77,0.01,0.31,-0.03,-0.94,4.36,0.48,1100,1100,1100,1100,1037,1500,1524,11254,771
40596,0,0.06,1.07,-1.06,0.053,-0.078,1.000,0.00,0.00,0.00,4.80,-0.06,3.73,0.01,0.32,-0.00,-0.06,0.95,2.66,1100,1100,1100,1100,1037,1500,1524,11237,771
40608,0,0.32,2.50,0.41,0.031,-0.073,1.014,0.00,0.00,0.00,4.80,-0.32,2.30,0.01,0.33,0.00,-0.48,-0.95,-1.02,1100,1100,1100,1100,1037,1500,1524,11220,771
40620,0,0.03,0.84,0.65,0.035,-0.069,1.012,0.00,0.00,0.00,4.80,-0.03,3.96,0.01,0.34,-0.02,-0.05,1.81,-1.64,1100,1100,1100,1100,1037,1500,1524,11241,771
40632,0,-0.31,1.01,-0.80,0.043,-0.067,1.014,0.00,0.00,0.00,4.80,0.31,3.79,0.01,0.35,-0.01,0.52,1.66,1.99,1100,1100,1100,1100,1037,1500,1524,11233,771
40644,0,0.54,0.80,-0.25,0.040,-0.061,1.018,0.00,0.00,0.00,4.80,-0.54,4.00,0.01,0.36,0.01,-0.81,1.96,0.64,1100,1100,1100,1100,1037,1500,1524,11245,771
40656,0,0.69,-0.36,0.79,0.051,-0.057,1.005,0.00,0.00,0.00,4.80,-0.69,5.16,0.01,0.37,-0.00,-1.03,3.61,-1.98,1100,1100,1100,1100,1037,1500,1524,11245,771
40668,0,-0.23,0.83,0.58,0.054,-0.063,0.998,0.00,0.00,0.00,4.80,0.23,3.97,0.01,0.38,-0.03,0.50,1.18,-1.48,1100,1100,1100,1100,1037,1500,1524,11312,771
40680,0,-0.87,0.01,-1.13,0.045,-0.068,0.996,0.00,0.00,0.00,4.80,0.87,4.79,0.01,0.39,-0.01,1.34,2.67,2.81,1100,1100,1100,1100,1037,1500,1524,11291,771
40692,0,0.27,-0.45,-0.48,0.052,-0.066,0.997,0.00,0.00,0.00,4.80,-0.27,5.25,0.01,0.40,0.02,-0.53,3.22,1.21,1100,1100,1100,1100,1037,1500,1524,11304,771
40704,0,0.16,-1.93,1.87,0.074,-0.075,0.977,0.00,0.00,0.00,4.80,-0.16,6.73,0.01,0.42,-0.02,-0.22,4.77,-4.70,1100,1100,1100,1100,1037,1500,1524,11295,770
40716,0,-0.67,0.33,0.08,0.065,-0.075,0.989,0.00,0.00,0.00,4.80,0.67,4.47,0.01,0.43,-0.05,0.92,1.15,-0.25,1100,1100,1100,1100,1037,1500,1524,11291,770
40728,0,0.07,1.99,-1.90,0.053,-0.071,1.004,0.00,0.00,0.00,4.60,-0.07,2.61,0.01,0.44,-0.00,-0.26,-0.76,4.74,1100,1100,1100,1100,1037,1501,1523,11291,770
40740,0,-0.47,0.19,0.75,0.048,-0.079,1.007,0.00,0.00,0.00,4.80,0.47,4.61,0.01,0.45,0.01,0.77,2.47,-1.87,1100,1100,1100,1100,1037,1500,1524,11291,770
40752,0,0.04,-0.60,1.47,0.041,-0.072,1.003,0.00,0.00,0.00,4.80,-0.04,5.40,0.01,0.46,1.84,-0.26,3.21,154.76,1100,1100,1100,1100,1037,1500,1524,11316,770
40764,0,0.71,0.16,-1.38,0.049,-0.074,1.007,0.00,0.00,0.00,5.00,-0.71,4.84,0.01,0.47,3.11,-1.18,2.30,6.57,1100,1100,1100,1100,1037,1500,1525,11316,770
40776,0,-0.26,-0.21,-0.49,0.042,-0.063,1.014,0.00,0.00,0.00,5.00,0.26,5.21,0.01,0.48,3.15,0.50,2.94,4.37,1100,1100,1100,1100,1037,1500,1525,11308,770
40788,0,0.14,0.45,1.18,0.021,-0.063,1.015,0.00,0.00,0.00,4.60,-0.14,4.15,0.01,0.49,3.12,-0.08,1.69,0.18,1100,1100,1100,1100,1038,1501,1523,11291,770
40800,0,0.09,0.16,-0.20,0.034,-0.077,1.020,0.00,0.00,0.00,4.80,-0.09,4.64,0.01,0.50,3.11,0.03,2.73,3.62,1100,1100,1100,1100,1038,1501,1524,11299,770
40812,0,0.39,1.35,-0.39,0.022,-0.060,1.015,0.00,0.00,0.00,4.80,-0.39,3.45,0.01,0.51,3.13,-0.75,0.59,4.11,1100,1100,1100,1100,1037,1501,1524,11295,770
40824,0,0.30,1.06,-0.57,0.039,-0.065,1.020,0.00,0.00,0.00,4.80,-0.30,3.74,0.01,0.53,3.15,-0.41,1.21,4.57,1100,1100,1100,1100,1037,1500,1524,11308,770
40836,0,-0.13,2.57,1.21,0.028,-0.059,1.011,0.00,0.00,0.00,4.80,0.13,2.23,0.01,0.53,3.13,0.17,-0.96,0.11,1100,1100,1100,1100,1037,1500,1524,11279,770
40848,0,0.16,-0.63,-0.58,0.044,-0.066,1.010,0.00,0.00,0.00,4.80,-0.16,5.43,0.01,0.55,3.13,-0.24,4.13,4.58,1100,1100,1100,1100,1037,1500,1524,11254,770
40860,0,0.36,0.16,-0.09,0.028,-0.049,1.015,0.00,0.00,0.00,4.80,-0.36,4.64,0.01,0.56,3.14,-0.56,2.36,3.38,1100,1100,1100,1100,1037,1500,1524,11279,770
40872,0,0.13,-0.49,-0.65,0.034,-0.056,1.016,0.00,0.00,0.00,4.80,-0.13,5.29,0.01,0.57,3.15,-0.06,3.82,4.77,1100,1100,1100,1100,1037,1500,1524,11291,770
40884,0,0.18,-0.64,0.68,0.037,-0.050,1.008,0.00,0.00,0.00,4.80,-0.18,5.44,0.01,0.58,3.15,-0.19,3.46,1.46,1100,1100,1100,1100,1037,1500,1524,11299,770
40896,0,0.95,-0.36,0.04,0.035,-0.055,1.019,0.00,0.00,0.00,4.80,-0.95,5.16,0.01,0.59,3.14,-1.29,2.96,3.04,1100,1100,1100,1100,1037,1500,1524,11299,770
40908,0,-0.54,-1.24,-0.12,0.032,-0.066,1.003,0.00,0.00,0.00,4.80,0.54,6.04,0.01,0.61,3.15,0.93,3.96,3.46,1100,1100,1100,1100,1037,1500,1524,11283,770
40920,0,-0.22,-1.20,-0.29,0.045,-0.059,1.007,0.00,0.00,0.00,4.80,0.22,6.00,0.01,0.62,3.16,0.36,3.78,3.87,1100,1100,1100,1100,1037,1500,1524,11295,770
40932,0,-0.02,-1.08,0.97,0.051,-0.066,0.982,0.00,0.00,0.00,4.80,0.02,5.88,0.01,0.63,3.14,0.16,3.84,0.71,1100,1100,1100,1100,1037,1500,1524,11279,770
40944,0,0.87,-0.39,-0.08,0.054,-0.049,0.991,0.00,0.00,0.00,4.80,-0.87,5.19,0.01,0.65,3.13,-1.16,2.36,3.34,1100,1100,1100,1100,1037,1500,1524,11262,770
40956,0,0.10,2.01,-0.49,0.019,-0.066,1.009,0.00,0.00,0.00,4.80,-0.10,2.79,0.01,0.65,3.15,0.17,-0.69,4.37,1100,1100,1100,1100,1037,1500,1524,11270,770
40968,0,-0.27,-2.58,0.20,0.051,-0.062,0.995,0.00,0.00,0.00,4.80,0.27,7.38,0.01,0.67,3.15,0.76,6.93,2.64,1100,1100,1100,1100,1037,1500,1524,11287,770
40980,0,1.05,0.65,0.21,0.043,-0.067,0.991,0.00,0.00,0.00,4.80,-1.05,4.15,0.01,0.68,3.14,-1.49,1.60,2.63,1100,1100,1100,1100,1037,1500,1524,11295,770
40992,0,0.89,1.02,0.39,0.025,-0.059,1.011,0.00,0.00,0.00,4.80,-0.89,3.78,0.01,0.69,3.13,-1.26,0.77,2.15,1100,1100,1100,1100,1037,1500,1524,11291,770
41004,0,-0.06,-0.79,-1.14,0.025,-0.066,1.019,0.00,0.00,0.00,5.00,0.06,5.79,0.01,0.70,3.15,0.30,4.33,5.99,1100,1100,1100,1100,1036,1500,1525,11312,771
41016,0,-0.77,-4.37,-0.05,0.058,-0.061,0.982,0.00,0.00,0.00,5.00,0.77,9.37,0.01,0.71,3.15,1.43,9.95,3.27,1100,1100,1100,1100,1036,1500,1525,11320,771
41028,0,-1.40,-0.68,-0.47,0.040,-0.067,1.009,0.00,0.00,0.00,4.80,1.40,5.48,0.01,0.73,3.16,2.31,3.25,4.33,1100,1100,1100,1100,1037,1500,1524,11329,771
41040,0,-0.37,1.16,0.03,0.013,-0.079,1.020,0.00,0.00,0.00,4.80,0.37,3.64,0.01,0.73,3.15,0.57,1.84,3.08,1100,1100,1100,1100,1037,1500,1524,11308,771
41052,0,-0.73,0.44,0.04,0.015,-0.075,1.018,0.00,0.00,0.00,4.80,0.73,4.36,0.01,0.74,3.16,1.06,3.28,3.07,1100,1100,1100,1100,1037,1500,1524,11316,771
41064,0,0.60,-1.32,-0.18,0.055,-0.076,0.991,0.00,0.00,0.00,4.20,-0.60,5.52,0.01,0.75,3.15,-1.02,5.08,3.60,1100,1100,1100,1100,1038,1503,1521,11312,771
41076,0,1.00,-0.81,0.83,0.057,-0.065,1.004,0.00,0.00,0.00,4.20,-1.00,5.01,0.01,0.77,3.15,-1.43,2.59,1.07,1100,1100,1100,1100,1038,1503,1521,11320,771
41088,0,2.65,0.86,-0.80,0.024,-0.063,1.041,0.00,0.00,0.00,4.80,-2.65,3.94,0.00,0.78,3.16,-3.84,0.61,5.16,1100,1100,1100,1100,1039,1500,1524,11291,771
41100,0,-0.03,-2.34,0.67,0.028,-0.081,1.011,0.00,0.00,0.00,4.60,0.03,6.94,0.01,0.79,3.15,0.05,7.43,1.47,1100,1100,1100,1100,1039,1500,1523,11291,771
41112,0,-1.95,2.48,-1.29,-0.030,-0.089,1.070,0.00,0.00,0.00,4.60,1.95,2.12,0.01,0.79,3.17,3.02,-0.42,6.40,1100,1100,1100,1100,1039,1500,1523,11308,771
41124,0,-1.90,2.21,-0.18,-0.030,-0.082,1.044,0.00,0.00,0.00,4.80,1.90,2.59,0.01,0.80,3.18,2.62,1.44,3.63,1100,1100,1100,1100,1037,1500,1524,11320,771
41136,0,-1.07,1.94,-0.19,-0.032,-0.077,1.057,0.00,0.00,0.00,4.80,1.07,2.86,0.01,0.80,3.19,1.21,2.26,3.68,1100,1100,1100,1100,1037,1500,1524,11320,771
41148,0,-0.01,5.26,0.31,-0.041,-0.090,1.066,0.00,0.00,0.00,0.00,0.01,-5.26,0.01,0.80,3.18,-0.65,-5.73,2.40,1100,1100,1100,1100,1037,1504,1520,11304,771
41160,0,0.06,2.23,0.43,-0.019,-0.072,1.021,0.00,0.00,0.00,4.80,-0.06,2.57,0.01,0.80,3.19,-0.69,0.63,2.11,1100,1100,1100,1100,1037,1500,1524,11308,771
41172,0,0.15,-1.05,-0.47,0.023,-0.068,1.023,0.00,0.00,0.00,4.80,-0.15,5.85,0.01,0.81,3.19,-0.68,6.04,4.37,1100,1100,1100,1100,1037,1500,1524,11274,771
41184,0,-1.28,-4.98,0.21,0.082,-0.053,0.987,0.00,0.00,0.00,4.80,1.28,9.78,0.01,0.83,3.19,2.04,10.37,2.66,1100,1100,1100,1100,1037,1500,1524,11283,771
41196,0,-0.82,-1.80,-0.93,0.065,-0.086,0.993,0.00,0.00,0.00,4.80,0.82,6.60,0.01,0.84,3.19,1.19,4.62,5.53,1100,1100,1100,1100,1037,1500,1524,11291,775
41208,0,0.65,1.49,0.16,0.075,-0.083,1.004,0.00,0.00,0.00,4.80,-0.65,3.31,0.01,0.85,3.20,-1.07,-0.01,2.81,1100,1100,1100,1100,1037,1500,1524,11304,775
41220,0,2.97,-1.87,0.34,0.095,-0.065,0.986,0.00,0.00,0.00,4.80,-2.97,6.67,0.01,0.87,3.19,-4.50,4.15,2.33,1100,1100,1100,1100,1037,1500,1524,11316,775
41232,0,2.31,-6.85,0.79,0.140,-0.045,0.933,0.00,0.00,0.00,4.80,-2.31,11.65,0.01,0.90,3.17,-3.44,11.14,1.20,1100,1100,1100,1100,1037,1500,1524,11287,775
41244,0,-0.64,-4.67,0.07,0.110,-0.052,0.957,0.00,0.00,0.00,4.60,0.64,9.27,0.01,0.92,3.16,1.43,6.22,2.99,1100,1100,1100,1100,1037,1501,1523,11291,775
41256,0,-1.02,-3.55,-0.13,0.133,-0.067,0.956,0.00,0.00,0.00,4.60,1.02,8.15,0.01,0.93,3.17,1.84,5.12,3.48,1100,1100,1100,1100,1037,1501,1523,11274,775
41268,0,0.30,-0.87,-0.09,0.125,-0.059,0.943,0.00,0.00,0.00,4.80,-0.30,5.67,0.01,0.95,3.16,-0.28,0.91,3.39,1100,1100,1100,1100,1037,1500,1524,11316,775
41280,0,1.00,-2.81,0.47,0.140,-0.053,0.938,0.00,0.00,0.00,4.80,-1.00,7.61,0.01,0.97,3.15,-1.38,3.87,1.97,1100,1100,1100,1100,1037,1500,1524,11316,775
41292,0,0.60,-1.92,-0.02,0.124,-0.046,0.931,0.00,0.00,0.00,4.80,-0.60,6.72,0.01,0.99,3.15,-0.75,1.89,3.19,1100,1100,1100,1100,1037,1500,1524,11324,775
41304,0,-1.03,-7.14,0.16,0.155,-0.046,0.902,0.00,0.00,0.00,4.80,1.03,11.94,0.01,1.01,3.14,1.94,10.88,2.73,1100,1100,1100,1100,1037,1500,1524,11324,769
41316,0,-0.20,-2.91,-0.08,0.128,-0.048,0.949,0.00,0.00,0.00,4.80,0.20,7.71,0.01,1.03,3.15,0.68,3.01,3.34,1100,1100,1100,1100,1037,1500,1524,11320,769
41328,0,0.46,-0.58,0.04,0.131,-0.063,0.926,0.00,0.00,0.00,4.80,-0.46,5.38,0.01,1.05,3.14,-0.51,0.29,3.04,1100,1100,1100,1100,1037,1500,1524,11329,769
41340,0,0.72,1.20,0.86,0.109,-0.042,0.959,0.00,0.00,0.00,4.60,-0.72,3.40,0.01,1.06,3.13,-0.88,-2.02,0.98,1100,1100,1100,1100,1037,1501,1523,11329,769
41352,0,2.81,-1.81,-0.72,0.105,-0.019,0.980,0.00,0.00,0.00,4.60,-2.81,6.41,0.00,1.08,3.13,-4.07,3.54,4.94,1100,1100,1100,1100,1038,1501,1523,11324,769
41364,0,0.29,0.51,0.10,0.067,-0.032,0.974,0.00,0.00,24.20,-19.40,23.91,-19.91,0.04,1.05,3.13,9.49,-9.63,2.88,1100,1100,1100,1100,1036,1621,1403,11329,769
41376,0,-1.79,-1.07,-0.37,0.062,-0.046,1.003,0.00,0.00,24.20,-19.40,25.99,-18.33,0.10,1.00,3.15,13.14,-5.86,4.07,1100,1100,1100,1100,1036,1621,1403,11337,769
41388,0,0.26,-0.25,0.15,0.043,-0.036,1.000,0.00,0.00,0.00,4.60,-0.26,4.85,0.10,1.01,3.14,0.10,3.03,2.76,1100,1100,1100,1100,1038,1501,1523,11312,769
41400,0,1.77,0.56,0.55,0.028,-0.052,1.001,0.00,0.00,0.00,4.80,-1.77,4.24,0.10,1.03,3.14,-2.25,1.01,1.76,1100,1100,1100,1100,1038,1501,1524,11308,770
41412,0,1.00,2.67,-0.63,0.025,-0.052,1.039,0.00,0.00,0.00,4.80,-1.00,2.13,0.10,1.04,3.14,-1.09,-1.08,4.72,1100,1100,1100,1100,1036,1501,1524,11312,770
41424,0,-0.18,-1.91,0.56,0.048,-0.034,1.003,0.00,0.00,0.00,4.80,0.18,6.71,0.10,1.05,3.14,0.56,5.43,1.73,1100,1100,1100,1100,1037,1500,1524,11316,770
41436,0,-0.61,-7.33,0.09,0.103,-0.050,0.956,0.00,0.00,0.00,4.80,0.61,12.13,0.10,1.08,3.14,1.41,12.13,2.92,1100,1100,1100,1100,1037,1500,1524,11320,770
41448,0,-0.95,-2.10,0.58,0.117,-0.063,0.945,0.00,0.00,0.00,4.80,0.95,6.90,0.10,1.09,3.12,1.93,3.60,1.68,1100,1100,1100,1100,1037,1500,1524,11312,770
41460,0,1.38,2.28,0.39,0.090,-0.068,0.975,0.00,0.00,0.00,4.80,-1.38,2.52,0.10,1.11,3.13,-1.99,-3.29,2.15,1100,1100,1100,1100,1037,1500,1524,11304,770
41472,0,0.60,2.06,-0.33,0.086,-0.054,0.994,0.00,0.00,0.00,4.80,-0.60,2.74,0.10,1.12,3.13,-0.91,-1.81,3.94,1100,1100,1100,1100,1037,1500,1524,11316,770
41484,0,-1.36,-0.63,0.02,0.078,-0.076,0.993,0.00,0.00,0.00,4.80,1.36,5.43,0.10,1.13,3.13,2.28,3.67,3.09,1100,1100,1100,1100,1037,1500,1524,11299,770
41496,0,-0.83,-1.21,-0.09,0.092,-0.088,0.985,0.00,0.00,0.00,4.80,0.83,6.01,0.10,1.14,3.13,1.28,5.28,3.35,1100,1100,1100,1100,1037,1500,1524,11279,771
41508,0,-0.09,-2.48,0.35,0.096,-0.070,0.940,0.00,0.00,0.00,4.80,0.09,7.28,0.10,1.16,3.12,0.06,6.10,2.24,1100,1100,1100,1100,1037,1500,1524,11312,771
41520,0,0.98,1.24,0.38,0.065,-0.070,0.987,0.00,0.00,0.00,4.80,-0.98,3.56,0.10,1.17,3.12,-1.57,-0.11,2.17,1100,1100,1100,1100,1037,1500,1524,11324,771
41532,0,0.73,3.09,-0.02,0.049,-0.067,1.007,0.00,0.00,0.00,4.80,-0.73,1.71,0.10,1.18,3.12,-1.13,-2.05,3.17,1100,1100,1100,1100,1037,1500,1524,11341,771
41544,0,-1.35,1.48,-0.71,0.033,-0.078,1.009,0.00,0.00,0.00,4.60,1.35,3.12,0.10,1.18,3.13,2.06,1.37,4.90,1100,1100,1100,1100,1037,1501,1523,11341,771
41556,0,-0.69,3.02,-0.57,0.008,-0.070,1.028,0.00,0.00,0.00,4.60,0.69,1.58,0.10,1.19,3.15,0.96,-0.15,4.59,1100,1100,1100,1100,1037,1501,1523,11341,771
41568,0,-0.14,5.54,0.13,-0.007,-0.086,1.041,0.00,0.00,0.00,4.80,0.14,-0.74,0.10,1.19,3.15,0.12,-3.10,2.83,1100,1100,1100,1100,1037,1500,1524,11329,771
41580,0,0.64,2.58,0.74,0.017,-0.059,1.037,0.00,0.00,0.00,4.80,-0.64,2.22,0.10,1.20,3.14,-1.20,1.37,1.30,1100,1100,1100,1100,1037,1500,1524,11320,771
41592,0,0.01,-0.89,-0.32,0.045,-0.073,1.017,0.00,0.00,0.00,4.80,-0.01,5.69,0.10,1.21,3.15,-0.06,6.24,3.94,1100,1100,1100,1100,1037,1500,1524,11308,771
41604,0,-0.63,-4.30,-0.18,0.086,-0.071,0.978,0.00,0.00,0.00,4.80,0.63,9.10,0.10,1.23,3.15,1.12,10.19,3.60,1100,1100,1100,1100,1037,1500,1524,11295,771
41616,0,-2.11,-0.72,0.44,0.085,-0.095,0.967,0.00,0.00,0.00,4.80,2.11,5.52,0.10,1.25,3.15,3.39,2.97,2.05,1100,1100,1100,1100,1037,1500,1524,11270,771
41628,0,2.52,-0.38,-0.08,0.089,-0.082,0.965,0.00,0.00,0.00,4.80,-2.52,5.18,0.10,1.27,3.15,-4.25,1.25,3.34,1100,1100,1100,1100,1037,1500,1524,11274,771
41640,0,1.25,-4.37,0.51,0.102,-0.057,0.945,0.00,0.00,0.00,4.80,-1.25,9.17,0.10,1.29,3.14,-2.06,6.46,1.87,1100,1100,1100,1100,1037,1500,1524,11295,771
41652,0,-1.35,-7.26,-0.74,0.112,-0.084,0.955,0.00,0.00,0.00,4.80,1.35,12.06,0.10,1.31,3.14,2.38,11.38,5.00,1100,1100,1100,1100,1037,1500,1524,11295,771
41664,0,-0.93,0.28,0.06,0.090,-0.071,0.967,0.00,0.00,0.00,4.80,0.93,4.52,0.10,1.32,3.14,1.35,-0.65,2.98,1100,1100,1100,1100,1037,1500,1524,11312,771
41676,0,0.48,0.67,0.29,0.088,-0.080,0.973,0.00,0.00,0.00,4.80,-0.48,4.13,0.10,1.33,3.15,-0.65,0.58,2.41,1100,1100,1100,1100,1037,1500,1524,11316,771
41688,0,0.94,-0.13,-0.26,0.099,-0.072,0.984,0.00,0.00,0.00,4.80,-0.94,4.93,0.10,1.35,3.14,-1.22,2.14,3.78,1100,1100,1100,1100,1038,1499,1524,11304,771
41700,0,-0.92,-4.24,0.42,0.104,-0.059,0.954,0.00,0.00,0.00,5.00,0.92,9.24,0.10,1.37,3.13,1.65,8.37,2.07,1100,1100,1100,1100,1038,1500,1525,11295,771
41712,0,-0.36,-4.65,-0.43,0.120,-0.092,0.971,0.00,0.00,0.00,5.00,0.36,9.65,0.10,1.39,3.13,0.77,8.15,4.22,1100,1100,1100,1100,1037,1500,1525,11295,771
41724,0,0.06,-0.83,0.27,0.116,-0.098,0.948,0.00,0.00,0.00,4.80,-0.06,5.63,0.10,1.40,3.13,0.06,1.92,2.44,1100,1100,1100,1100,1037,1500,1524,11299,771
41736,0,0.68,5.83,0.26,0.062,-0.082,1.007,0.00,0.00,0.00,4.80,-0.68,-1.03,0.10,1.40,3.13,-0.91,-6.60,2.47,1100,1100,1100,1100,1037,1500,1524,11299,771
41748,0,1.10,5.10,-0.22,0.037,-0.071,1.030,0.00,0.00,0.00,4.80,-1.10,-0.30,0.10,1.41,3.12,-1.92,-4.02,3.67,1100,1100,1100,1100,1037,1499,1524,11308,771
41760,0,-1.55,-3.77,0.02,0.086,-0.071,0.981,0.00,0.00,0.00,4.80,1.55,8.57,0.10,1.43,3.13,2.57,9.93,3.08,1100,1100,1100,1100,1037,1500,1524,11320,771
41772,0,-1.00,-4.54,-0.11,0.095,-0.086,0.972,0.00,0.00,0.00,4.80,1.00,9.34,0.10,1.45,3.13,1.76,9.20,3.40,1100,1100,1100,1100,1037,1500,1524,11333,771
41784,0,0.69,1.60,0.54,0.061,-0.086,0.989,0.00,0.00,0.00,4.80,-0.69,3.20,0.10,1.46,3.11,-1.18,-0.20,1.77,1100,1100,1100,1100,1037,1500,1524,11337,771
41796,0,0.96,1.13,0.02,0.050,-0.066,1.011,0.00,0.00,0.00,4.80,-0.96,3.67,0.10,1.47,3.12,-1.66,1.12,3.07,1100,1100,1100,1100,1037,1500,1524,11341,768
41808,0,0.38,1.92,-0.42,0.017,-0.072,1.045,0.00,0.00,0.00,4.80,-0.38,2.88,0.10,1.48,3.13,-0.42,0.53,4.19,1100,1100,1100,1100,1037,1500,1524,11329,768
41820,0,-0.30,3.80,-0.83,-0.015,-0.072,1.053,0.00,0.00,0.00,4.80,0.30,1.00,0.10,1.48,3.15,0.49,-1.21,5.23,1100,1100,1100,1100,1037,1500,1524,11329,768
41832,0,-1.17,0.06,0.05,0.014,-0.064,1.059,0.00,0.00,0.00,4.80,1.17,4.74,0.10,1.49,3.15,2.07,5.71,3.03,1100,1100,1100,1100,1037,1500,1524,11316,768
41844,0,2.42,1.17,0.15,0.001,-0.056,1.030,0.00,0.00,0.00,4.80,-2.42,3.63,0.10,1.49,3.14,-3.87,3.82,2.76,1100,1100,1100,1100,1037,1500,1524,11291,768
41856,0,-0.33,1.89,0.15,-0.004,-0.056,1.047,0.00,0.00,0.00,4.80,0.33,2.91,0.10,1.50,3.14,0.68,1.58,2.76,1100,1100,1100,1100,1037,1500,1524,11291,768
41868,0,0.20,-0.35,-0.78,-0.016,-0.074,1.075,0.00,0.00,0.00,4.80,-0.20,5.15,0.10,1.51,3.16,-0.09,5.76,5.10,1100,1100,1100,1100,1037,1500,1524,11304,768
41880,0,-1.44,-0.23,-0.14,-0.017,-0.066,1.033,0.00,0.00,0.00,4.80,1.44,5.03,0.10,1.52,3.16,2.36,5.27,3.51,1100,1100,1100,1100,1037,1500,1524,11316,768
41892,0,0.10,4.43,-0.02,-0.026,-0.060,1.065,0.00,0.00,0.00,4.80,-0.10,0.37,0.10,1.53,3.17,-0.07,-2.53,3.21,1100,1100,1100,1100,1037,1500,1524,11308,768
41904,0,1.83,1.90,0.07,0.012,-0.070,1.032,0.00,0.00,0.00,4.80,-1.83,2.90,0.10,1.54,3.17,-2.91,1.28,2.99,1100,1100,1100,1100,1037,1500,1524,11308,768
41916,0,-0.71,0.39,0.31,0.010,-0.032,1.035,0.00,0.00,0.00,4.80,0.71,4.41,0.10,1.56,3.18,1.16,3.03,2.41,1100,1100,1100,1100,1037,1500,1524,11324,768
41928,0,-0.48,-5.91,-0.07,0.058,-0.072,1.020,0.00,0.00,0.00,4.80,0.48,10.71,0.10,1.57,3.17,1.01,12.18,3.34,1100,1100,1100,1100,1037,1500,1524,11329,768
41940,0,-2.75,3.13,-0.11,0.036,-0.077,1.002,0.00,0.00,0.00,4.80,2.75,1.67,0.10,1.58,3.17,4.52,-2.16,3.46,1100,1100,1100,1100,1037,1500,1524,11320,768
41952,0,0.38,2.88,0.42,0.008,-0.066,1.014,0.00,0.00,0.00,4.80,-0.38,1.92,0.10,1.59,3.17,-0.68,-0.44,2.14,1100,1100,1100,1100,1037,1500,1524,11308,768
41964,0,1.22,0.26,0.42,0.034,-0.053,1.029,0.00,0.00,0.00,4.80,-1.22,4.54,0.10,1.60,3.16,-2.31,4.05,2.12,1100,1100,1100,1100,1037,1499,1524,11308,768
41976,0,-1.15,-2.47,0.27,0.022,-0.054,1.004,0.00,0.00,0.00,4.80,1.15,7.27,0.10,1.61,3.16,1.76,7.63,2.49,1100,1100,1100,1100,1037,1499,1524,11283,768
41988,0,1.54,-4.40,-0.42,0.060,-0.072,1.000,0.00,0.00,0.00,4.80,-1.54,9.20,0.10,1.62,3.15,-2.52,11.42,4.20,1100,1100,1100,1100,1037,1500,1524,11320,768
42000,0,-0.06,-1.11,0.25,0.050,-0.081,0.990,0.00,0.00,0.00,4.60,0.06,5.71,0.11,1.64,3.15,-0.38,4.25,2.54,1100,1100,1100,1100,1037,1500,1523,11308,768
42012,0,0.72,-4.52,0.14,0.066,-0.046,0.990,0.00,0.00,0.00,4.60,-0.72,9.12,0.10,1.66,3.16,-1.09,8.31,2.83,1100,1100,1100,1100,1038,1500,1523,11304,768
42024,0,-1.45,-2.44,0.20,0.081,-0.078,0.994,0.00,0.00,0.00,4.60,1.45,7.04,0.11,1.67,3.15,2.36,5.29,2.66,1100,1100,1100,1100,1038,1500,1523,11312,768
42036,0,-1.57,1.53,0.40,0.077,-0.076,0.979,0.00,0.00,0.00,4.60,1.57,3.07,0.11,1.69,3.14,2.37,-1.09,2.14,1100,1100,1100,1100,1038,1500,1523,11304,768
42048,0,1.38,-0.74,-0.05,0.106,-0.054,0.962,0.00,0.00,0.00,4.80,-1.38,5.54,0.10,1.70,3.14,-1.84,3.33,3.26,1100,1100,1100,1100,1037,1500,1524,11274,768
42060,0,1.15,-0.62,0.49,0.109,-0.062,0.952,0.00,0.00,0.00,4.40,-1.15,5.02,0.10,1.72,3.13,-1.50,2.59,1.90,1100,1100,1100,1100,1037,1502,1522,11274,768
42072,0,-1.43,-1.58,0.26,0.089,-0.053,0.990,0.00,0.00,0.00,4.40,1.43,5.98,0.10,1.73,3.13,2.63,3.86,2.47,1100,1100,1100,1100,1037,1502,1522,11291,768
42084,0,-1.10,-1.37,0.03,0.086,-0.081,0.981,0.00,0.00,0.00,4.80,1.10,6.17,0.10,1.74,3.12,1.90,4.91,3.03,1100,1100,1100,1100,1037,1500,1524,11279,768
42096,0,1.43,0.66,-0.31,0.091,-0.077,0.979,0.00,0.00,0.00,4.80,-1.43,4.14,0.10,1.76,3.13,-2.28,1.30,3.90,1100,1100,1100,1100,1037,1500,1524,11299,768
42108,0,1.61,-2.57,0.36,0.093,-0.057,0.975,0.00,0.00,0.00,4.80,-1.61,7.37,0.10,1.77,3.13,-2.33,6.69,2.23,1100,1100,1100,1100,1037,1500,1524,11304,768
42120,0,2.01,-1.22,0.68,0.086,-0.059,0.980,0.00,0.00,0.00,4.80,-2.01,6.02,0.10,1.79,3.12,-2.82,4.04,1.41,1100,1100,1100,1100,1037,1500,1524,11308,768
42132,0,-2.32,-5.31,-0.38,0.103,-0.036,0.957,0.00,0.00,0.00,4.80,2.32,10.11,0.10,1.81,3.11,4.23,10.22,4.05,1100,1100,1100,1100,1037,1500,1524,11304,768
42144,0,-0.28,1.22,-0.39,0.068,-0.062,0.989,0.00,0.00,0.00,4.80,0.28,3.58,0.10,1.81,3.12,0.90,1.65,4.09,1100,1100,1100,1100,1037,1500,1524,11304,768
42156,0,-0.67,2.61,-0.36,0.068,-0.081,0.986,0.00,0.00,0.00,4.80,0.67,2.19,0.10,1.82,3.13,1.16,-0.71,4.02,1100,1100,1100,1100,1037,1500,1524,11304,768
42168,0,0.87,1.01,0.39,0.044,-0.061,1.017,0.00,0.00,0.00,12.00,-0.87,10.99,0.10,1.84,3.12,-1.08,5.87,2.14,1100,1100,1100,1100,1004,1502,1560,11295,768
42180,0,0.60,1.23,-0.04,0.040,-0.094,1.023,0.00,0.00,0.00,4.80,-0.60,3.57,0.10,1.86,3.12,-0.68,3.77,3.22,1100,1100,1100,1100,1004,1500,1524,11274,768
42192,0,-1.35,-1.38,0.32,0.065,-0.079,0.996,0.00,0.00,0.00,4.80,1.35,6.18,0.10,1.88,3.11,2.29,6.29,2.31,1100,1100,1100,1100,1037,1500,1524,11308,768
42204,0,1.65,-1.25,-0.15,0.078,-0.063,1.011,0.00,0.00,0.00,4.80,-1.65,6.05,0.10,1.89,3.12,-2.31,6.27,3.49,1100,1100,1100,1100,1037,1500,1524,11291,769
42216,0,0.72,-0.93,-0.24,0.099,-0.056,0.972,0.00,0.00,0.00,4.80,-0.72,5.73,0.10,1.91,3.12,-0.91,4.12,3.73,1100,1100,1100,1100,1037,1500,1524,11304,769
42228,0,-1.44,-1.91,0.44,0.090,-0.064,0.989,0.00,0.00,0.00,4.80,1.44,6.71,0.10,1.92,3.10,2.75,5.19,2.00,1100,1100,1100,1100,1037,1500,1524,11329,769
42240,0,-1.02,-0.96,-0.11,0.084,-0.107,0.968,0.00,0.00,0.00,4.80,1.02,5.76,0.10,1.93,3.10,1.75,4.38,3.37,1100,1100,1100,1100,1037,1500,1524,11324,769
42252,0,-1.37,3.17,-0.17,0.061,-0.088,0.976,0.00,0.00,0.00,4.80,1.37,1.63,0.10,1.94,3.11,1.89,-1.26,3.54,1100,1100,1100,1100,1037,1500,1524,11320,769
42264,0,0.73,1.02,-0.06,0.059,-0.079,1.003,0.00,0.00,0.00,4.80,-0.73,3.78,0.10,1.96,3.12,-1.42,1.86,3.26,1100,1100,1100,1100,1038,1500,1524,11316,769
42276,0,-1.50,3.08,0.91,0.066,-0.082,0.987,0.00,0.00,0.00,4.80,1.50,1.72,0.10,1.96,3.11,2.30,-0.92,0.84,1100,1100,1100,1100,1038,1500,1524,11283,769
42288,0,-1.27,-0.93,-0.49,0.065,-0.053,1.008,0.00,0.00,0.00,4.60,1.27,5.53,0.10,1.97,3.11,2.33,5.99,4.33,1100,1100,1100,1100,1038,1500,1523,11283,769
42300,0,2.33,-4.54,-0.44,0.072,-0.074,1.001,0.00,0.00,0.00,4.60,-2.33,9.14,0.10,1.99,3.11,-3.35,11.30,4.22,1100,1100,1100,1100,1038,1501,1523,11283,769
42312,0,0.26,4.75,0.07,0.014,-0.068,1.024,0.00,0.00,0.00,4.60,-0.26,-0.15,0.10,2.00,3.12,-0.33,-3.98,2.95,1100,1100,1100,1100,1037,1501,1523,11258,769
42324,0,1.08,-4.68,-0.46,0.046,-0.057,1.020,0.00,0.00,0.00,4.80,-1.08,9.48,0.10,2.01,3.12,-1.49,11.11,4.28,1100,1100,1100,1100,1038,1501,1524,11283,769
42336,0,-0.55,-3.00,0.52,0.030,-0.074,1.003,0.00,0.00,0.00,4.80,0.55,7.80,0.10,2.03,3.12,0.95,8.19,1.82,1100,1100,1100,1100,1038,1501,1524,11295,769
42348,0,-2.83,-1.61,-0.52,0.053,-0.077,0.988,0.00,0.00,0.00,4.80,2.83,6.41,0.10,2.04,3.11,4.90,5.55,4.41,1100,1100,1100,1100,1038,1500,1524,11316,769
42360,0,1.37,3.98,0.83,0.046,-0.084,0.996,0.00,0.00,0.00,5.20,-1.37,1.22,0.10,2.05,3.10,-1.86,-2.36,1.03,1100,1100,1100,1100,1038,1501,1526,11316,769
42372,0,2.24,3.90,0.45,0.015,-0.072,1.040,0.00,0.00,0.00,5.20,-2.24,1.30,0.10,2.06,1.46,-3.52,-2.51,-136.48,1100,1100,1100,1100,1185,1501,1526,11316,769
42384,0,-0.88,0.37,-0.33,0.018,-0.065,1.046,0.00,0.00,0.00,4.80,0.88,4.43,0.10,2.07,0.36,1.43,3.55,1.19,1100,1100,1100,1100,1038,1500,1524,11299,769
42396,0,-1.28,0.70,-0.55,0.026,-0.092,1.035,0.00,0.00,0.00,4.80,1.28,4.10,0.10,2.07,0.39,1.97,4.69,1.77,1100,1100,1100,1100,1038,1500,1524,11279,766
42408,0,-0.92,1.52,-0.73,0.049,-0.081,1.003,0.00,0.00,0.00,4.80,0.92,3.28,0.10,2.08,0.40,1.51,2.88,2.22,1100,1100,1100,1100,1038,1500,1524,11279,766
42420,0,2.17,0.05,1.11,0.063,-0.062,1.002,0.00,0.00,0.00,4.80,-2.17,4.75,0.10,2.10,0.39,-3.32,4.71,-2.39,1100,1100,1100,1100,1038,1500,1524,11291,766
42432,0,-0.06,2.86,0.83,0.061,-0.068,1.021,0.00,0.00,0.00,4.80,0.06,1.94,0.10,2.11,0.37,-0.10,-0.62,-1.70,1100,1100,1100,1100,1037,1500,1524,11304,766
42444,0,-2.62,-0.29,0.36,0.099,-0.072,0.979,0.00,0.00,0.00,4.80,2.62,5.09,0.10,2.12,0.36,4.22,3.99,-0.54,1100,1100,1100,1100,1038,1500,1524,11291,766
42456,0,2.05,-0.53,-0.61,0.088,-0.074,1.006,0.00,0.00,0.00,4.80,-2.05,5.33,0.10,2.14,0.37,-3.10,4.03,1.90,1100,1100,1100,1100,1038,1500,1524,11270,766
42468,0,0.33,3.31,0.55,0.060,-0.088,1.002,0.00,0.00,0.00,4.80,-0.33,1.49,0.10,2.15,0.37,-0.82,-1.92,-1.00,1100,1100,1100,1100,1038,1500,1524,11270,766
42480,0,-1.78,2.94,0.91,0.097,-0.079,0.969,0.00,0.00,0.00,4.80,1.78,1.86,0.10,2.17,0.37,2.89,-1.85,-1.90,1100,1100,1100,1100,1038,1500,1524,11266,766
42492,0,2.46,0.87,0.90,0.106,-0.084,0.987,0.00,0.00,0.00,4.80,-2.46,3.93,0.10,2.18,0.34,-3.76,0.90,-1.91,1100,1100,1100,1100,1037,1500,1524,11270,766
42504,0,1.36,7.86,-0.02,0.065,-0.079,1.016,0.00,0.00,0.00,4.80,-1.36,-3.06,0.10,2.19,0.36,-2.35,-9.46,0.41,1100,1100,1100,1100,1037,1500,1524,11291,767
42516,0,-1.93,3.46,-0.27,0.086,-0.077,0.976,0.00,0.00,0.00,4.80,1.93,1.34,0.10,2.21,0.37,3.27,-1.98,1.05,1100,1100,1100,1100,1037,1500,1524,11308,767
42528,0,0.69,-1.21,0.79,0.071,-0.078,0.992,0.00,0.00,0.00,4.80,-0.69,6.01,0.10,2.22,0.36,-0.95,5.31,-1.62,1100,1100,1100,1100,1038,1500,1524,11312,767
42540,0,1.11,3.91,0.20,0.041,-0.076,1.023,0.00,0.00,0.00,4.60,-1.11,0.69,0.10,2.22,0.36,-1.93,-1.39,-0.14,1100,1100,1100,1100,1038,1501,1523,11312,767
42552,0,-4.41,-1.37,-0.06,0.059,-0.091,0.985,0.00,0.00,0.00,4.60,4.41,5.97,0.11,2.24,0.36,6.85,5.78,0.50,1100,1100,1100,1100,1037,1501,1523,11312,767
42564,0,1.62,0.55,-0.55,0.057,-0.103,0.994,0.00,0.00,0.00,4.80,-1.62,4.25,0.10,2.25,0.38,-2.98,3.38,1.76,1100,1100,1100,1100,1037,1500,1524,11324,767
42576,0,0.15,-1.35,0.60,0.070,-0.100,0.962,0.00,0.00,0.00,4.80,-0.15,6.15,0.11,2.27,0.36,-0.84,5.85,-1.15,1100,1100,1100,1100,1037,1500,1524,11329,767
42588,0,-3.40,-1.46,-0.34,0.037,-0.073,0.998,0.00,0.00,0.00,4.80,3.40,6.26,0.11,2.28,0.36,5.05,5.83,1.21,1100,1100,1100,1100,1038,1500,1524,11324,767
42600,0,1.79,-2.50,-0.06,0.069,-0.079,0.972,0.00,0.00,0.00,4.80,-1.79,7.30,0.11,2.29,0.35,-3.14,8.89,0.50,1100,1100,1100,1100,1038,1499,1524,11333,771
42612,0,1.84,-2.23,-0.15,0.041,-0.087,0.995,0.00,0.00,0.00,4.80,-1.84,7.03,0.11,2.30,0.36,-3.22,7.18,0.73,1100,1100,1100,1100,1038,1499,1524,11312,771
42624,0,0.73,-3.30,-0.23,0.053,-0.050,1.013,0.00,0.00,0.00,4.60,-0.73,7.90,0.11,2.32,0.36,-0.89,8.88,0.93,1100,1100,1100,1100,1039,1501,1523,11312,771
42636,0,-1.44,-1.82,0.97,0.047,-0.076,1.013,0.00,0.00,0.00,4.60,1.44,6.42,0.11,2.33,0.35,2.30,5.77,-2.08,1100,1100,1100,1100,1039,1501,1523,11299,771
42648,0,-0.59,1.32,-0.65,0.050,-0.075,0.989,0.00,0.00,0.00,4.80,0.59,3.48,0.11,2.34,0.36,0.88,0.76,1.99,1100,1100,1100,1100,1038,1500,1524,11295,771
42660,0,0.60,-0.81,-0.07,0.032,-0.050,1.015,0.00,0.00,0.00,4.80,-0.60,5.61,0.11,2.36,0.36,-0.83,4.76,0.55,1100,1100,1100,1100,1038,1500,1524,11320,771
42672,0,-0.86,0.09,0.27,0.029,-0.084,1.004,0.00,0.00,0.00,4.80,0.86,4.71,0.11,2.37,0.37,1.00,3.40,-0.31,1100,1100,1100,1100,1038,1500,1524,11316,771
42684,0,-1.95,2.03,-0.41,0.023,-0.064,1.018,0.00,0.00,0.00,4.80,1.95,2.77,0.11,2.38,0.37,2.93,0.32,1.39,1100,1100,1100,1100,1038,1500,1524,11291,771
42696,0,0.99,-0.58,0.16,0.049,-0.078,1.005,0.00,0.00,0.00,4.80,-0.99,5.38,0.11,2.39,0.37,-1.33,5.32,-0.04,1100,1100,1100,1100,1038,1500,1524,11279,771
42708,0,0.64,8.25,-0.32,0.005,-0.065,1.029,0.00,0.00,0.00,4.80,-0.64,-3.45,0.11,2.40,0.37,-1.15,-8.31,1.18,1100,1100,1100,1100,1038,1500,1524,11316,771
42720,0,-3.00,-4.20,0.00,0.047,-0.062,1.016,0.00,0.00,0.00,4.80,3.00,9.00,0.11,2.41,0.37,4.74,11.64,0.36,1100,1100,1100,1100,1038,1500,1524,11316,771
42732,0,0.21,-1.79,-0.12,0.050,-0.084,1.022,0.00,0.00,0.00,4.80,-0.21,6.59,0.11,2.43,0.37,-0.41,6.45,0.67,1100,1100,1100,1100,1038,1500,1524,11291,771
42744,0,0.31,-1.16,0.09,0.068,-0.064,0.992,0.00,0.00,0.00,4.80,-0.31,5.96,0.11,2.44,0.37,-0.44,5.29,0.14,1100,1100,1100,1100,1038,1500,1524,11295,771
42756,0,0.69,-1.09,-0.17,0.046,-0.040,1.028,0.00,0.00,0.00,4.80,-0.69,5.89,0.11,2.46,0.37,-0.74,4.84,0.79,1100,1100,1100,1100,1038,1500,1524,11291,771
42768,0,-0.81,-3.70,0.59,0.077,-0.065,0.995,0.00,0.00,0.00,4.80,0.81,8.50,0.11,2.47,0.37,1.34,9.27,-1.10,1100,1100,1100,1100,1038,1500,1524,11274,771
42780,0,-0.58,2.76,-0.16,0.062,-0.069,1.009,0.00,0.00,0.00,4.80,0.58,2.04,0.11,2.48,0.38,1.02,-1.62,0.78,1100,1100,1100,1100,1038,1500,1524,11270,771
42792,0,2.49,0.19,-0.07,0.057,-0.057,1.009,0.00,0.00,0.00,4.80,-2.49,4.61,0.11,2.49,0.38,-3.78,4.26,0.54,1100,1100,1100,1100,1038,1500,1524,11299,771
42804,0,-0.37,-0.39,0.51,0.055,-0.053,0.998,0.00,0.00,0.00,4.80,0.37,5.19,0.11,2.50,0.38,0.69,4.78,-0.89,1100,1100,1100,1100,1038,1500,1524,11304,771
42816,0,-2.53,-1.22,-0.55,0.059,-0.066,1.006,0.00,0.00,0.00,4.80,2.53,6.02,0.11,2.52,0.36,4.19,5.74,1.75,1100,1100,1100,1100,1038,1500,1524,11304,771
42828,0,0.19,0.27,0.54,0.054,-0.100,1.002,0.00,0.00,0.00,4.80,-0.19,4.53,0.11,2.52,0.35,-0.35,5.06,-1.00,1100,1100,1100,1100,1038,1500,1524,11308,771
42840,0,1.08,1.96,-0.85,0.049,-0.063,0.999,0.00,0.00,0.00,4.60,-1.08,2.64,0.11,2.53,0.37,-1.96,2.16,2.50,1100,1100,1100,1100,1038,1501,1523,11287,771
42852,0,-0.02,0.77,0.13,0.049,-0.037,1.032,0.00,0.00,0.00,4.60,0.02,3.83,0.11,2.54,0.37,0.23,4.10,0.04,1100,1100,1100,1100,1038,1501,1523,11279,771
42864,0,-1.09,-8.04,0.64,0.110,-0.077,0.972,0.00,0.00,0.00,4.80,1.09,12.84,0.11,2.56,0.37,1.93,16.96,-1.24,1100,1100,1100,1100,1038,1500,1524,11270,771
42876,0,-1.44,-1.25,-0.08,0.115,-0.086,0.942,0.00,0.00,0.00,4.80,1.44,6.05,0.11,2.58,0.36,2.46,4.33,0.54,1100,1100,1100,1100,1038,1500,1524,11291,771
42888,0,2.52,-0.15,0.38,0.105,-0.082,0.964,0.00,0.00,0.00,4.80,-2.52,4.95,0.11,2.59,0.36,-3.75,2.69,-0.59,1100,1100,1100,1100,1038,1500,1524,11283,771
42900,0,1.64,0.95,-0.76,0.088,-0.049,0.975,0.00,0.00,0.00,5.00,-1.64,4.05,0.11,2.60,0.37,-2.49,2.42,2.26,1100,1100,1100,1100,1038,1499,1525,11291,771
42912,0,-0.87,-3.13,0.52,0.082,-0.057,0.975,0.00,0.00,0.00,5.00,0.87,8.13,0.11,2.62,0.35,1.83,8.71,-0.95,1100,1100,1100,1100,1037,1499,1525,11320,771
42924,0,-0.11,-4.47,0.23,0.095,-0.084,0.954,0.00,0.00,0.00,4.80,0.11,9.27,0.11,2.63,0.34,0.40,11.63,-0.24,1100,1100,1100,1100,1039,1500,1524,11304,771
42936,0,-0.63,1.30,-0.12,0.090,-0.079,0.967,0.00,0.00,0.00,4.80,0.63,3.50,0.11,2.64,0.34,1.05,1.60,0.64,1100,1100,1100,1100,1039,1500,1524,11304,771
42948,0,1.23,1.80,-0.30,0.069,-0.063,0.976,0.00,0.00,0.00,4.80,-1.23,3.00,0.11,2.66,0.36,-1.89,0.73,1.10,1100,1100,1100,1100,1038,1500,1524,11304,771
42960,0,0.76,-4.98,0.07,0.100,-0.059,0.963,0.00,0.00,0.00,4.80,-0.76,9.78,0.11,2.67,0.36,-1.22,11.29,0.17,1100,1100,1100,1100,1038,1501,1524,11304,771
42972,0,-2.49,-5.79,0.01,0.098,-0.078,0.966,0.00,0.00,0.00,4.80,2.49,10.59,0.11,2.69,0.35,4.23,11.69,0.32,1100,1100,1100,1100,1037,1501,1524,11287,771
42984,0,-0.79,-1.21,0.16,0.079,-0.094,0.965,0.00,0.00,0.00,4.80,0.79,6.01,0.11,2.71,0.34,1.33,4.45,-0.05,1100,1100,1100,1100,1038,1500,1524,11274,771
42996,0,1.17,3.16,0.28,0.057,-0.070,0.990,0.00,0.00,0.00,4.80,-1.17,1.64,0.11,2.72,0.34,-2.01,-1.70,-0.37,1100,1100,1100,1100,1038,1500,1524,11270,770
43008,0,0.82,-3.47,-0.22,0.099,-0.080,0.967,0.00,0.00,0.00,4.80,-0.82,8.27,0.11,2.73,0.34,-1.28,8.81,0.88,1100,1100,1100,1100,1038,1500,1524,11245,770
43020,0,-1.58,-4.61,0.46,0.123,-0.080,0.941,0.00,0.00,0.00,4.80,1.58,9.41,0.11,2.75,0.34,2.42,9.98,-0.81,1100,1100,1100,1100,1038,1500,1524,11241,770
43032,0,-1.67,-3.17,0.09,0.132,-0.086,0.946,0.00,0.00,0.00,4.80,1.67,7.97,0.11,2.77,0.33,2.71,6.85,0.09,1100,1100,1100,1100,1038,1500,1524,11254,770
43044,0,2.01,2.55,0.57,0.103,-0.077,0.957,0.00,0.00,0.00,4.80,-2.01,2.25,0.11,2.78,0.32,-3.14,-1.65,-1.12,1100,1100,1100,1100,1038,1500,1524,11274,770
43056,0,0.94,2.84,-0.43,0.073,-0.063,0.978,0.00,0.00,0.00,4.80,-0.94,1.96,0.11,2.79,0.34,-1.39,-0.70,1.41,1100,1100,1100,1100,1038,1500,1524,11279,770
43068,0,0.32,-4.22,-0.35,0.101,-0.034,0.976,0.00,0.00,0.00,4.40,-0.32,8.62,0.11,2.80,0.33,-0.06,10.92,1.20,1100,1100,1100,1100,1038,1502,1522,11287,770
43080,0,-0.66,-5.23,0.49,0.138,-0.054,0.927,0.00,0.00,0.00,5.40,0.66,10.63,0.11,2.82,0.33,1.70,12.08,-0.89,1100,1100,1100,1100,1038,1500,1527,11287,770
43092,0,0.50,-1.83,-0.08,0.096,-0.090,0.952,0.00,0.00,0.00,5.40,-0.50,7.23,0.11,2.84,0.31,-0.48,5.48,0.51,1100,1100,1100,1100,1035,1500,1527,11308,770
43104,0,0.29,3.20,0.54,0.052,-0.074,0.972,0.00,0.00,0.00,4.80,-0.29,1.60,0.11,2.84,0.31,-0.57,-0.52,-1.03,1100,1100,1100,1100,1039,1500,1524,11320,770
43116,0,0.70,7.67,-0.81,0.001,-0.072,1.042,0.00,0.00,0.00,4.80,-0.70,-2.87,0.11,2.85,0.33,-0.99,-6.15,2.35,1100,1100,1100,1100,1039,1500,1524,11324,770
43128,0,-0.64,-2.74,-0.08,0.051,-0.070,1.008,0.00,0.00,0.00,4.80,0.64,7.54,0.11,2.86,0.32,1.12,11.33,0.53,1100,1100,1100,1100,1040,1500,1524,11304,770
43140,0,-1.04,1.83,-0.03,0.018,-0.085,1.007,0.00,0.00,0.00,4.80,1.04,2.97,0.11,2.86,0.33,1.57,3.84,0.40,1100,1100,1100,1100,1040,1500,1524,11308,770
43152,0,-0.84,1.50,-0.47,0.019,-0.083,1.001,0.00,0.00,0.00,4.80,0.84,3.30,0.11,2.87,0.33,1.23,4.36,1.50,1100,1100,1100,1100,1041,1500,1524,11308,770
43164,0,0.98,3.49,0.61,0.002,-0.070,1.002,0.00,0.00,0.00,4.80,-0.98,1.31,0.11,2.88,0.33,-1.44,1.33,-1.20,1100,1100,1100,1100,1040,1499,1524,11324,770
43176,0,0.36,4.10,-0.55,-0.021,-0.079,1.042,0.00,0.00,0.00,4.80,-0.36,0.70,0.11,2.89,0.34,-0.68,-0.40,1.70,1100,1100,1100,1100,1040,1499,1524,11329,770
43188,0,-1.07,-2.22,0.44,0.024,-0.058,1.017,0.00,0.00,0.00,4.60,1.07,6.82,0.11,2.90,0.33,1.81,9.82,-0.77,1100,1100,1100,1100,1044,1501,1523,11324,770
43200,0,0.40,2.00,-0.43,0.000,-0.071,1.023,0.00,0.00,0.00,4.60,-0.40,2.60,0.11,2.91,0.34,-0.32,2.59,1.42,1100,1100,1100,1100,1044,1500,1523,11341,771
43212,0,1.82,3.39,-0.00,-0.011,-0.045,1.049,0.00,0.00,0.00,4.60,-1.82,1.21,0.11,2.91,0.34,-2.75,1.31,0.35,1100,1100,1100,1100,1044,1500,1523,11341,771
43224,0,2.31,0.85,0.02,-0.033,-0.053,1.071,0.00,0.00,0.00,4.60,-2.31,3.75,0.11,2.92,0.35,-3.19,5.38,0.32,1100,1100,1100,1100,1047,1501,1523,11329,771
43236,0,-1.20,-4.63,-0.34,0.019,-0.065,1.030,0.00,0.00,0.00,4.60,1.20,9.23,0.11,2.93,0.35,2.30,12.74,1.21,1100,1100,1100,1100,1047,1501,1523,11324,771
43248,0,-1.66,-2.16,-0.15,0.009,-0.074,1.044,0.00,0.00,0.00,4.80,1.66,6.96,0.11,2.95,0.34,3.05,8.21,0.71,1100,1100,1100,1100,1046,1501,1524,11316,771
43260,0,-0.54,1.64,-0.14,0.011,-0.076,1.046,0.00,0.00,0.00,4.80,0.54,3.16,0.11,2.95,0.35,0.99,2.80,0.70,1100,1100,1100,1100,1046,1500,1524,11299,771
43272,0,0.84,3.67,-0.17,0.007,-0.064,1.037,0.00,0.00,0.00,4.80,-0.84,1.13,0.11,2.96,0.36,-1.37,-0.06,0.79,1100,1100,1100,1100,1048,1500,1524,11291,771
43284,0,1.73,-1.68,0.15,0.032,-0.054,1.030,0.00,0.00,0.00,4.80,-1.73,6.48,0.11,2.97,0.36,-2.66,8.27,-0.02,1100,1100,1100,1100,1048,1500,1524,11274,771
43296,0,0.23,-3.64,0.28,0.066,-0.051,0.996,0.00,0.00,0.00,4.80,-0.23,8.44,0.11,2.99,0.35,-0.01,10.33,-0.34,1100,1100,1100,1100,1048,1500,1524,11274,771
43308,0,-1.48,-3.36,-0.89,0.064,-0.069,0.997,0.00,0.00,0.00,4.80,1.48,8.16,0.11,3.00,0.35,2.89,10.05,2.59,1100,1100,1100,1100,1051,1500,1524,11291,771
43320,0,0.46,-2.04,0.76,0.097,-0.066,0.967,0.00,0.00,0.00,4.80,-0.46,6.84,0.11,3.02,0.35,-0.61,7.44,-1.55,1100,1100,1100,1100,1051,1500,1524,11283,771
43332,0,-0.17,-0.03,0.03,0.087,-0.053,0.969,0.00,0.00,0.00,4.80,0.17,4.83,0.11,3.03,0.35,0.52,3.88,0.27,1100,1100,1100,1100,1052,1500,1524,11287,771
43344,0,1.62,-3.19,0.04,0.082,-0.040,0.967,0.00,0.00,0.00,4.80,-1.62,7.99,0.10,3.04,0.34,-2.32,9.01,0.25,1100,1100,1100,1100,1053,1500,1524,11299,771
43356,0,-0.16,4.57,0.03,0.030,-0.044,0.997,0.00,0.00,0.00,4.80,0.16,0.23,0.11,3.05,0.35,0.31,-2.17,0.27,1100,1100,1100,1100,1053,1500,1524,11324,771
43368,0,-0.33,-0.03,-0.36,0.010,-0.069,0.995,0.00,0.00,0.00,4.80,0.33,4.83,0.10,3.06,0.35,0.86,6.21,1.26,1100,1100,1100,1100,1056,1500,1524,11324,771
43380,0,1.57,1.26,1.07,0.015,-0.060,1.015,0.00,0.00,0.00,4.80,-1.57,3.54,0.10,3.06,0.33,-2.17,4.67,-2.34,1100,1100,1100,1100,1056,1500,1524,11329,771
43392,0,0.68,-0.82,-0.27,0.010,-0.056,1.032,0.00,0.00,0.00,4.80,-0.68,5.62,0.10,3.08,0.34,-0.63,5.90,1.02,1100,1100,1100,1100,1057,1500,1524,11287,771
43404,0,-0.92,-3.69,-0.69,0.029,-0.056,1.022,0.00,0.00,0.00,4.80,0.92,8.49,0.10,3.10,0.35,1.75,10.45,2.09,1100,1100,1100,1100,1070,1500,1524,11312,768
43416,0,-0.36,3.96,-0.10,-0.003,-0.076,1.049,0.00,0.00,0.00,4.80,0.36,0.84,0.10,3.10,0.37,0.67,-1.25,0.62,1100,1100,1100,1100,1070,1500,1524,11308,768
43428,0,0.29,0.20,0.08,0.016,-0.091,1.032,0.00,0.00,0.00,4.80,-0.29,4.60,0.10,3.12,0.36,-0.51,4.93,0.15,1100,1100,1100,1100,1070,1500,1524,11304,768
43440,0,-0.41,-0.89,1.08,0.026,-0.068,1.017,0.00,0.00,0.00,4.80,0.41,5.69,0.11,3.12,0.35,0.54,7.11,-2.36,1100,1100,1100,1100,1070,1500,1524,11299,768
43452,0,-0.73,0.99,-1.10,0.010,-0.082,1.054,0.00,0.00,0.00,4.80,0.73,3.81,0.11,3.14,0.36,1.19,3.47,3.12,1100,1100,1100,1100,1075,1500,1524,11308,768
43464,0,0.32,-1.37,-0.54,0.063,-0.073,1.020,0.00,0.00,0.00,4.80,-0.32,6.17,0.10,3.15,0.37,-0.49,8.03,1.71,1100,1100,1100,1100,1078,1500,1524,11320,768
43476,0,0.53,-6.39,0.43,0.106,-0.068,0.973,0.00,0.00,0.00,4.80,-0.53,11.19,0.10,3.17,0.37,-0.68,13.92,-0.71,1100,1100,1100,1100,1078,1500,1524,11308,768
43488,0,1.00,-6.84,0.23,0.126,-0.056,0.968,0.00,0.00,0.00,4.80,-1.00,11.64,0.10,3.19,0.35,-1.52,12.93,-0.22,1100,1100,1100,1100,1095,1500,1524,11283,768
43500,0,0.15,0.45,0.37,0.061,-0.049,0.984,0.00,0.00,0.00,4.80,-0.15,4.35,0.10,3.21,0.33,-0.08,1.39,-0.58,1100,1100,1100,1100,1095,1500,1524,11291,768
43512,0,-1.40,-2.78,-0.74,0.084,-0.079,0.974,0.00,0.00,0.00,4.80,1.40,7.58,0.10,3.22,0.34,2.49,7.98,2.18,1100,1100,1100,1100,1095,1500,1524,11262,768
43524,0,0.15,1.13,-0.10,0.080,-0.076,0.970,0.00,0.00,0.00,5.00,-0.15,3.87,0.10,3.23,0.35,-0.28,2.70,0.60,1100,1100,1100,1100,1095,1500,1525,11287,768
43536,0,1.74,0.40,0.93,0.098,-0.053,0.955,0.00,0.00,0.00,5.00,-1.74,4.60,0.10,3.24,0.34,-2.68,3.64,-1.97,1100,1100,1100,1100,1095,1500,1525,11279,768
43548,0,0.85,2.10,0.21,0.084,-0.041,0.986,0.00,0.00,0.00,5.00,-0.85,2.90,0.10,3.25,0.33,-1.15,1.20,-0.20,1100,1100,1100,1100,1096,1500,1525,11324,768
43560,0,-2.09,-1.99,-0.14,0.069,-0.049,0.967,0.00,0.00,0.00,4.80,2.09,6.79,0.10,3.27,0.33,3.69,8.24,0.69,1100,1100,1100,1100,1096,1500,1524,11324,768
43572,0,-0.71,-2.31,-0.35,0.079,-0.062,0.959,0.00,0.00,0.00,4.80,0.71,7.11,0.10,3.28,0.34,1.33,8.67,1.21,1100,1100,1100,1100,1104,1500,1524,11312,768
43584,0,2.29,4.22,0.25,0.035,-0.062,0.985,0.00,0.00,0.00,4.80,-2.29,0.58,0.10,3.29,0.33,-3.46,-2.15,-0.29,1100,1100,1100,1100,1111,1500,1524,11320,768
43596,0,0.90,-1.53,0.06,0.046,-0.043,0.983,0.00,0.00,0.00,4.80,-0.90,6.33,0.10,3.31,0.33,-1.36,7.08,0.18,1100,1100,1100,1100,1111,1500,1524,11308,768
43608,0,-1.37,-4.59,-0.49,0.048,-0.061,0.996,0.00,0.00,0.00,4.80,1.37,9.39,0.11,3.32,0.34,2.09,11.50,1.57,1100,1100,1100,1100,1111,1500,1524,11295,768
43620,0,-0.59,-3.75,-0.04,0.061,-0.069,0.972,0.00,0.00,0.00,4.80,0.59,8.55,0.11,3.34,0.34,0.86,10.03,0.43,1100,1100,1100,1100,1111,1500,1524,11299,768
43632,0,0.47,-1.64,0.84,0.071,-0.053,0.961,0.00,0.00,0.00,4.80,-0.47,6.44,0.10,3.35,0.32,-0.65,5.73,-1.77,1100,1100,1100,1100,1115,1500,1524,11304,768
43644,0,0.91,-1.83,-0.11,0.058,-0.057,0.986,0.00,0.00,0.00,4.80,-0.91,6.63,0.10,3.38,0.32,-1.39,4.78,0.60,1100,1100,1100,1100,1115,1500,1524,11308,768
43656,0,-2.12,-1.10,-0.73,0.063,-0.059,0.975,0.00,0.00,0.00,4.80,2.12,5.90,0.11,3.39,0.33,3.22,4.70,2.15,1100,1100,1100,1100,1115,1500,1524,11320,768
43668,0,-0.70,-2.66,-0.20,0.098,-0.086,0.965,0.00,0.00,0.00,4.80,0.70,7.46,0.11,3.40,0.35,1.21,8.36,0.84,1100,1100,1100,1100,1122,1500,1524,11299,768
43680,0,0.78,2.50,0.99,0.080,-0.091,0.980,0.00,0.00,0.00,4.80,-0.78,2.30,0.11,3.41,0.32,-1.29,-0.20,-2.15,1100,1100,1100,1100,1122,1500,1524,11291,768
43692,0,0.52,3.81,0.33,0.039,-0.069,1.017,0.00,0.00,0.00,4.80,-0.52,0.99,0.11,3.42,0.32,-0.86,-1.43,-0.50,1100,1100,1100,1100,1125,1500,1524,11287,768
43704,0,1.13,4.21,-1.49,0.019,-0.076,1.038,0.00,0.00,0.00,4.80,-1.13,0.59,0.11,3.43,0.34,-1.89,-0.06,4.05,1100,1100,1100,1100,1139,1500,1524,11287,768
43716,0,-1.62,2.86,-0.60,0.036,-0.061,1.037,0.00,0.00,0.00,4.80,1.62,1.94,0.11,3.43,0.35,2.70,3.05,1.87,1100,1100,1100,1100,1139,1500,1524,11291,768
43728,0,-0.55,0.91,0.06,0.028,-0.077,1.040,0.00,0.00,0.00,4.80,0.55,3.89,0.11,3.44,0.36,1.17,6.54,0.21,1100,1100,1100,1100,1143,1500,1524,11291,768
43740,0,0.73,1.69,0.39,0.027,-0.071,1.016,0.00,0.00,0.00,4.80,-0.73,3.11,0.11,3.45,0.35,-1.22,4.29,-0.64,1100,1100,1100,1100,1143,1500,1524,11299,768
43752,0,-0.18,-5.46,0.08,0.062,-0.052,0.992,0.00,0.00,0.00,4.80,0.18,10.26,0.10,3.47,0.35,0.62,14.13,0.15,1100,1100,1100,1100,1150,1500,1524,11312,768
43764,0,0.61,-3.53,-0.60,0.068,-0.065,1.005,0.00,0.00,0.00,0.00,-0.61,3.53,0.10,3.48,0.35,-0.81,7.43,1.86,1100,1100,1100,1100,1157,1505,1518,11312,768
43776,0,-2.93,0.44,0.22,0.054,-0.072,0.995,0.00,0.00,0.00,0.00,2.93,-0.44,0.11,3.48,0.35,4.44,0.51,-0.19,1100,1100,1100,1100,1157,1505,1518,11312,768
43788,0,1.48,-2.70,0.47,0.080,-0.076,0.978,0.00,0.00,0.00,4.80,-1.48,7.50,0.11,3.50,0.34,-2.47,7.84,-0.84,1100,1100,1100,1100,1170,1500,1524,11299,768
43800,0,1.74,3.62,0.41,0.050,-0.071,0.983,0.00,0.00,0.00,4.60,-1.74,0.98,0.11,3.50,0.33,-2.95,-0.93,-0.70,1175,1165,1173,1167,1170,1501,1523,11304,813
43812,0,-2.09,-3.85,-0.38,0.067,-0.068,0.975,0.00,0.00,0.00,4.60,2.09,8.45,0.11,3.52,0.33,3.34,10.63,1.29,1175,1165,1173,1167,1174,1501,1523,11283,813
43824,0,-0.26,-4.02,-0.70,0.090,-0.079,0.965,0.00,0.00,0.00,4.60,0.26,8.62,0.11,3.54,0.34,0.38,10.84,2.09,1175,1165,1173,1167,1182,1501,1523,11308,813
43836,0,1.77,2.01,0.39,0.061,-0.082,0.970,0.00,0.00,0.00,4.60,-1.77,2.59,0.11,3.55,0.35,-3.12,0.64,-0.62,1175,1165,1173,1167,1182,1501,1523,11274,813
43848,0,-1.87,-1.94,0.07,0.054,-0.067,0.990,0.00,0.00,0.00,4.60,1.87,6.54,0.11,3.57,0.35,2.88,6.34,0.18,1175,1165,1173,1167,1183,1500,1523,11212,813
43860,0,-0.64,0.33,0.22,0.075,-0.074,0.994,0.00,0.00,0.00,4.80,0.64,4.47,0.11,3.57,0.34,1.33,4.57,-0.22,1175,1165,1173,1167,1183,1500,1524,11208,813
43872,0,0.57,-4.73,-0.04,0.075,-0.104,0.951,0.00,0.00,0.00,4.80,-0.57,9.53,0.11,3.59,0.33,-1.26,12.04,0.43,1175,1165,1173,1167,1183,1500,1524,11200,813
43884,0,-3.32,-5.78,-0.62,0.109,-0.087,0.920,0.00,0.00,0.00,4.80,3.32,10.58,0.11,3.61,0.33,5.45,12.94,1.88,1175,1165,1173,1167,1183,1500,1524,11220,813
43896,0,-1.36,-4.79,-0.21,0.123,-0.047,0.964,0.00,0.00,0.00,4.80,1.36,9.59,0.11,3.62,0.34,2.77,11.91,0.87,1170,1192,1174,1196,1183,1500,1524,11208,769
43908,0,5.10,-0.35,0.38,0.099,-0.077,0.970,0.00,0.00,0.00,4.80,-5.10,5.15,0.11,3.62,0.34,-7.91,6.87,-0.61,1170,1192,1174,1196,1186,1500,1524,11191,769
43920,0,2.47,6.25,0.78,0.097,-0.087,0.982,0.00,0.00,0.00,4.80,-2.47,-1.45,0.11,3.65,0.34,-4.22,-6.63,-1.62,1170,1192,1174,1196,1186,1500,1524,11204,769
43932,0,-4.09,1.88,-0.30,0.063,-0.048,0.999,0.00,0.00,0.00,4.80,4.09,2.92,0.11,3.68,0.34,6.58,-2.95,1.08,1170,1192,1174,1196,1186,1500,1524,11154,769
43944,0,2.02,-9.12,-0.22,0.086,-0.079,0.973,0.00,0.00,0.00,4.80,-2.02,13.92,0.11,3.69,0.34,-3.08,16.80,0.90,1170,1192,1174,1196,1190,1500,1524,11154,769
43956,0,2.82,-3.68,-0.50,0.108,-0.164,0.966,0.00,0.00,0.00,4.80,-2.82,8.48,0.11,3.69,0.33,-4.91,12.47,1.57,1170,1192,1174,1196,1190,1500,1524,11154,769
43968,0,-0.63,13.94,1.10,0.107,-0.131,1.024,0.00,0.00,0.00,0.00,0.63,-13.94,0.11,3.68,0.32,0.84,-17.13,-2.44,1170,1192,1174,1196,1209,1507,1519,11191,769
43980,0,-5.02,4.11,0.64,0.139,-0.025,1.023,0.00,0.00,0.00,4.80,5.02,0.69,0.11,3.69,0.32,9.01,-0.91,-1.28,1170,1192,1174,1196,1209,1500,1524,11220,769
43992,0,5.45,-0.86,-0.75,0.107,-0.026,1.035,0.00,0.00,0.00,4.80,-5.45,5.66,0.10,3.69,0.34,-7.15,9.38,2.21,1170,1192,1174,1196,1197,1500,1524,11200,769
44004,0,4.98,6.61,-3.13,0.059,-0.090,1.094,0.00,0.00,0.00,4.80,-4.98,-1.81,0.10,3.67,0.38,-6.84,1.33,8.20,1192,1176,1218,1202,1206,1500,1524,11200,769
44016,0,0.99,10.89,-0.75,-0.002,-0.005,1.099,0.00,0.00,0.00,4.80,-0.99,-6.09,0.10,3.67,0.40,-1.36,-4.89,2.26,1192,1176,1218,1202,1206,1500,1524,11195,769
44028,0,-6.33,2.44,-0.56,-0.026,-0.000,1.056,0.00,0.00,0.00,4.80,6.33,2.36,0.10,3.68,0.44,11.18,7.08,1.83,1192,1176,1218,1202,1204,1500,1524,11154,769
44040,0,1.82,-0.61,-1.96,-0.066,-0.009,1.137,0.00,0.00,0.00,4.80,-1.82,5.41,0.10,3.69,0.48,-1.95,9.72,5.39,1192,1176,1218,1202,1204,1500,1524,11183,769
44052,0,6.15,-7.46,-2.13,-0.002,-0.075,1.052,0.00,0.00,0.00,4.80,-6.15,12.26,0.10,3.69,0.54,-9.53,22.17,5.88,1192,1176,1218,1202,1205,1500,1524,11187,769
44064,0,2.25,7.66,-2.51,0.002,-0.086,1.075,0.00,0.00,0.00,4.60,-2.25,-3.06,0.10,3.70,0.62,-3.61,-5.13,6.90,1192,1176,1218,1202,1206,1501,1523,11187,769
44076,0,-4.88,-6.85,-1.21,0.151,-0.092,0.907,0.00,0.00,0.00,4.60,4.88,11.45,0.10,3.74,0.64,8.22,13.18,3.66,1192,1176,1218,1202,1206,1501,1523,11216,769
44088,0,2.16,2.94,0.27,0.092,-0.082,0.962,0.00,0.00,0.00,4.60,-2.16,1.66,0.09,3.75,0.64,-2.56,-2.01,-0.03,1192,1176,1218,1202,1213,1501,1523,11183,769
44100,0,-0.53,-1.28,-0.97,-0.026,-0.101,1.000,0.00,0.00,0.00,4.60,0.53,5.88,0.10,3.75,0.65,1.17,7.92,3.08,1216,1214,1212,1210,1213,1501,1523,11187,769
44112,0,0.37,0.51,0.38,-0.056,-0.085,1.047,0.00,0.00,0.00,4.60,-0.37,4.09,0.10,3.74,0.66,-1.01,10.41,-0.30,1216,1214,1212,1210,1213,1501,1523,11220,769
44124,0,-2.74,10.79,-0.16,0.017,-0.053,1.052,0.00,0.00,0.00,4.60,2.74,-6.19,0.10,3.74,0.69,3.70,-7.67,1.10,1216,1214,1212,1210,1217,1501,1523,11200,769
44136,0,-3.38,7.83,-0.09,0.086,-0.048,1.038,0.00,0.00,0.00,4.60,3.38,-3.23,0.10,3.75,0.71,5.34,-4.71,0.93,1216,1214,1212,1210,1217,1501,1523,11175,769
44148,0,3.27,-10.35,-1.01,0.084,-0.029,0.989,0.00,0.00,0.00,4.80,-3.27,15.15,0.11,3.77,0.72,-6.68,23.92,3.25,1216,1214,1212,1210,1219,1500,1524,11154,769
44160,0,3.45,1.62,0.81,-0.020,-0.129,1.067,0.00,0.00,0.00,4.80,-3.45,3.18,0.11,3.77,0.68,-7.44,5.77,-1.34,1216,1214,1212,1210,1219,1500,1524,11158,769
44172,0,-7.96,1.40,-0.16,-0.048,-0.104,1.010,0.00,0.00,0.00,4.80,7.96,3.40,0.12,3.77,0.69,9.99,6.84,1.10,1216,1214,1212,1210,1219,1500,1524,11154,769
44184,0,-8.90,11.48,-0.39,-0.002,-0.089,1.069,0.00,0.00,0.00,4.80,8.90,-6.68,0.12,3.77,0.70,12.88,-8.74,1.69,1216,1214,1212,1210,1226,1500,1524,11158,769
44196,0,-1.23,1.74,1.82,0.139,-0.059,0.940,0.00,0.00,0.00,4.80,1.23,3.06,0.12,3.79,0.71,0.68,3.65,-3.84,1226,1226,1220,1232,1226,1500,1524,11125,771
44208,0,2.52,4.04,-1.72,0.067,-0.071,1.015,0.00,0.00,0.00,4.80,-2.52,0.76,0.12,3.81,0.73,-4.47,-1.64,5.03,1226,1226,1220,1232,1227,1500,1524,11070,771
44220,0,3.00,-13.19,-0.17,0.025,-0.079,0.998,0.00,0.00,0.00,4.80,-3.00,17.99,0.12,3.82,0.74,-5.42,28.77,1.18,1226,1226,1220,1232,1227,1500,1524,11045,771
44232,0,9.59,-6.41,-0.72,-0.032,-0.051,1.074,0.00,0.00,0.00,4.80,-9.59,11.21,0.12,3.83,0.73,-16.00,15.97,2.54,1226,1226,1220,1232,1238,1500,1524,11050,771
44244,0,-2.14,-1.34,0.78,0.030,-0.177,1.022,0.00,0.00,0.00,4.80,2.14,6.14,0.12,3.84,0.72,3.26,8.94,-1.23,1226,1226,1220,1232,1239,1500,1524,11083,771
44256,0,-9.57,4.22,-0.18,0.046,-0.087,0.981,0.00,0.00,0.00,4.80,9.57,0.58,0.13,3.85,0.71,15.26,-1.84,1.17,1226,1226,1220,1232,1239,1500,1524,11091,771
44268,0,-4.04,13.48,-0.11,0.017,-0.036,1.059,0.00,0.00,0.00,4.80,4.04,-8.68,0.12,3.86,0.74,7.37,-16.03,1.03,1226,1226,1220,1232,1246,1500,1524,11079,771
44280,0,3.39,-4.06,0.50,0.095,-0.043,0.984,0.00,0.00,0.00,4.80,-3.39,8.86,0.12,3.88,0.76,-4.81,12.48,-0.50,1226,1226,1220,1232,1246,1500,1524,11041,771
44292,0,7.45,-1.94,-1.24,0.062,-0.063,1.015,0.00,0.00,0.00,4.80,-7.45,6.74,0.12,3.89,0.79,-12.03,8.56,3.90,1226,1226,1220,1232,1247,1500,1524,11054,771
44304,0,2.98,-8.06,-0.06,0.075,-0.078,0.981,0.00,0.00,0.00,4.80,-2.98,12.86,0.12,3.90,0.83,-4.77,18.67,0.98,1242,1236,1266,1244,1251,1500,1524,11066,771
44316,0,-1.80,0.25,0.10,0.040,-0.085,1.009,0.00,0.00,0.00,4.80,1.80,4.55,0.12,3.91,0.81,2.92,4.93,0.57,1242,1236,1266,1244,1251,1500,1524,11050,771
44328,0,-0.13,2.14,-0.97,0.053,-0.067,0.990,0.00,0.00,0.00,4.80,0.13,2.66,0.12,3.92,0.81,0.69,2.67,3.24,1242,1236,1266,1244,1251,1500,1524,11066,771
44340,0,1.59,5.84,-1.28,0.033,-0.055,1.024,0.00,0.00,0.00,4.80,-1.59,-1.04,0.11,3.93,0.83,-1.61,-2.61,4.02,1242,1236,1266,1244,1251,1500,1524,11083,771
44352,0,0.68,-6.49,-1.85,0.073,-0.081,0.960,0.00,0.00,0.00,4.80,-0.68,11.29,0.11,3.95,0.85,-0.04,15.98,5.47,1242,1236,1266,1244,1258,1500,1524,11054,771
44364,0,0.64,-9.28,-1.19,0.064,-0.110,0.966,0.00,0.00,0.00,5.40,-0.64,14.68,0.11,3.97,0.87,0.11,18.78,3.85,1242,1236,1266,1244,1256,1501,1527,11100,771
44376,0,-0.83,1.93,-0.71,-0.009,-0.109,1.050,0.00,0.00,0.00,5.40,0.83,3.47,0.11,3.98,0.90,2.65,1.75,2.66,1242,1236,1266,1244,1256,1501,1527,11100,771
44388,0,-2.05,1.90,-0.36,0.000,-0.064,1.053,0.00,0.00,0.00,4.80,2.05,2.90,0.10,3.99,0.94,5.09,1.99,1.83,1242,1236,1266,1244,1261,1500,1524,11133,771
44400,0,0.52,3.77,-0.84,0.045,-0.068,1.003,0.00,0.00,0.00,5.00,-0.52,1.23,0.10,4.01,0.96,1.34,-2.36,3.07,1238,1282,1244,1280,1261,1500,1525,11116,769
44412,0,-0.68,-2.29,-1.90,0.122,-0.061,0.939,0.00,0.00,0.00,5.00,0.68,7.29,0.10,4.04,1.02,2.79,5.80,5.77,1238,1282,1244,1280,1260,1500,1525,11066,769
44424,0,-1.09,-4.48,-1.54,0.083,-0.018,0.961,0.00,0.00,0.00,4.60,1.09,9.08,0.09,4.06,1.09,3.20,8.79,4.95,1238,1282,1244,1280,1265,1501,1523,11079,769
44436,0,1.85,5.36,-1.92,-0.014,0.016,1.034,0.00,0.00,0.00,4.60,-1.85,-0.76,0.09,4.06,1.16,-1.74,-4.17,5.97,1238,1282,1244,1280,1265,1501,1523,11016,769
44448,0,1.65,0.28,-2.84,0.028,-0.023,1.045,0.00,0.00,0.00,4.60,-1.65,4.32,0.09,4.06,1.24,-1.85,7.63,8.33,1238,1282,1244,1280,1273,1501,1523,11050,769
44460,0,0.20,-11.62,-3.91,0.082,-0.048,1.001,0.00,0.00,0.00,4.80,-0.20,16.42,0.10,4.07,1.32,-0.02,26.61,11.09,1238,1282,1244,1280,1273,1500,1524,11100,769
44472,0,2.47,2.69,-3.20,-0.013,-0.068,1.025,0.00,0.00,0.00,4.80,-2.47,2.11,0.10,4.08,1.42,-4.46,3.39,9.43,1238,1282,1244,1280,1273,1500,1524,11083,769
44484,0,3.78,13.45,-1.95,-0.099,-0.051,1.078,0.00,0.00,0.00,4.80,-3.78,-8.65,0.10,4.07,1.50,-7.08,-11.81,6.36,1238,1282,1244,1280,1273,1500,1524,11091,769
44496,0,-0.36,5.83,-2.76,-0.010,-0.050,1.034,0.00,0.00,0.00,4.80,0.36,-1.03,0.10,4.07,1.60,-0.36,2.51,8.50,1263,1283,1279,1267,1273,1500,1524,11116,769
44508,0,-2.56,1.12,-4.02,0.086,-0.054,0.984,0.00,0.00,0.00,4.80,2.56,3.68,0.11,4.09,1.72,3.04,6.28,11.76,1263,1283,1279,1267,1273,1500,1524,11016,769
44520,0,-4.29,3.37,-5.61,0.113,-0.087,0.968,0.00,0.00,0.00,4.80,4.29,1.43,0.11,4.11,1.88,5.63,-0.79,15.89,1263,1283,1279,1267,1273,1500,1524,11066,769
44532,0,-3.33,7.48,-7.28,0.075,-0.063,1.030,0.00,0.00,0.00,4.80,3.33,-2.68,0.11,4.13,2.09,4.19,-8.46,20.28,1263,1283,1279,1267,1274,1500,1524,11050,769
44544,0,-0.83,10.30,-9.08,-0.000,-0.014,1.100,0.00,0.00,0.00,4.80,0.83,-5.50,0.11,4.14,2.34,1.03,-12.01,25.03,1263,1283,1279,1267,1275,1500,1524,11100,769
44556,0,-0.40,7.62,-9.03,-0.034,-0.016,1.108,0.00,0.00,0.00,4.80,0.40,-2.82,0.10,4.14,2.57,2.00,-4.61,25.15,1263,1283,1279,1267,1275,1500,1524,11100,769
44568,0,-1.80,2.29,-9.43,-0.014,-0.044,1.109,0.00,0.00,0.00,5.00,1.80,2.71,0.10,4.13,2.80,5.12,7.35,26.37,1263,1283,1279,1267,1276,1502,1525,11066,769
44580,0,-1.76,2.91,-8.43,0.014,-0.055,1.089,0.00,0.00,0.00,4.80,1.76,1.89,0.09,4.13,3.01,4.90,7.38,24.09,1263,1283,1279,1267,1276,1500,1524,11050,769
44592,0,-0.39,3.10,-8.69,0.062,-0.055,1.020,0.00,0.00,0.00,4.80,0.39,1.70,0.09,4.14,3.24,1.97,5.34,24.95,1263,1283,1279,1267,1280,1500,1524,11029,769
44604,0,-2.11,-4.73,-5.83,0.114,-0.082,0.959,0.00,0.00,0.00,4.80,2.11,9.53,0.10,4.15,3.42,3.34,15.88,17.99,1217,1315,1287,1301,1280,1500,1524,11029,772
44616,0,-3.78,-2.61,-1.66,0.094,-0.091,0.943,0.00,0.00,0.00,4.80,3.78,7.41,0.11,4.18,3.49,4.03,9.83,7.63,1217,1315,1287,1301,1280,1500,1524,11004,772
44628,0,-6.10,-2.94,1.48,0.122,-0.105,0.896,0.00,0.00,0.00,-56.20,6.10,-53.26,0.13,4.04,3.45,5.30,-14.00,-0.25,1217,1315,1287,1301,1286,1500,1219,11012,772
44640,0,0.20,-7.82,2.46,0.150,-0.084,0.892,0.00,0.00,0.00,4.80,-0.20,12.62,0.14,3.98,3.39,-6.05,14.88,-2.74,1217,1315,1287,1301,1286,1500,1524,11029,772
44652,0,4.78,-6.50,1.87,0.121,-0.043,0.914,0.00,0.00,0.00,4.80,-4.78,11.30,0.15,4.00,3.35,-12.39,11.45,-1.34,1217,1315,1287,1301,1292,1500,1524,11025,772
44664,0,10.61,-3.34,1.67,0.094,-0.016,0.928,0.00,0.00,0.00,5.40,-10.61,8.74,0.14,4.03,3.32,-19.12,5.01,-0.87,1217,1315,1287,1301,1186,1500,1527,11000,772
44676,0,12.81,3.38,1.57,0.031,-0.038,0.986,0.00,0.00,0.00,5.40,-12.81,2.02,0.13,4.05,3.30,-20.54,-5.32,-0.62,1217,1315,1287,1301,1186,1500,1527,10941,772
44688,0,13.37,4.20,-0.11,0.016,-0.056,1.060,0.00,0.00,0.00,4.80,-13.37,0.60,0.13,4.05,3.31,-20.10,-3.24,3.59,1217,1315,1287,1301,1294,1500,1524,10983,772
44700,0,12.72,-2.13,-0.38,0.043,-0.094,1.080,0.00,0.00,0.00,4.80,-12.72,6.93,0.12,4.07,3.34,-17.74,7.66,4.29,1281,1297,1299,1299,1294,1500,1524,11045,772
44712,0,10.37,2.04,-1.57,0.045,-0.133,1.047,0.00,0.00,0.00,4.80,-10.37,2.76,0.11,4.09,3.39,-13.79,-0.03,7.31,1281,1297,1299,1299,1294,1500,1524,11012,772
44724,0,6.62,2.68,-1.77,0.073,-0.157,1.023,0.00,0.00,0.00,5.00,-6.62,2.32,0.11,4.11,3.47,-7.92,-1.50,7.89,1281,1297,1299,1299,1294,1500,1525,11058,772
44736,0,1.48,-0.45,-3.71,0.111,-0.181,0.982,0.00,0.00,0.00,5.00,-1.48,5.45,0.11,4.13,3.55,-0.07,3.42,12.82,1281,1297,1299,1299,1294,1500,1525,11033,772
44748,0,-2.00,0.65,-3.91,0.128,-0.167,0.931,0.00,0.00,0.00,4.80,2.00,4.15,0.11,4.15,3.66,4.78,0.54,13.42,1281,1297,1299,1299,1299,1500,1524,11041,772
44760,0,3.83,-6.46,-3.93,0.216,-0.143,0.855,0.00,0.00,0.00,4.80,-3.83,11.26,0.10,4.18,3.76,-4.69,10.85,13.58,1281,1297,1299,1299,1299,1500,1524,11041,772
44772,0,-2.11,-1.53,-6.29,0.156,-0.137,0.885,0.00,0.00,0.00,4.80,2.11,6.33,0.10,4.20,3.90,4.80,3.49,19.63,1281,1297,1299,1299,1297,1500,1524,11041,772
44784,0,-5.27,-9.20,-5.62,0.135,-0.146,0.885,0.00,0.00,0.00,4.80,5.27,14.00,0.10,4.22,4.03,9.02,16.10,18.09,1281,1297,1299,1299,1299,1500,1524,10996,772
44796,0,-4.19,1.58,-5.73,-0.002,-0.158,0.980,0.00,0.00,0.00,4.80,4.19,3.22,0.10,4.23,4.17,6.54,0.10,18.49,1275,1311,1323,1287,1299,1500,1524,10979,769
44808,0,-8.09,-7.79,-5.21,0.010,-0.171,0.967,0.00,0.00,0.00,4.80,8.09,12.59,0.11,4.24,4.30,12.56,18.18,17.31,1275,1311,1323,1287,1300,1500,1524,10996,769
44820,0,-8.52,-10.41,-4.10,0.038,-0.154,0.954,0.00,0.00,0.00,4.80,8.52,15.21,0.11,4.26,4.40,12.99,21.10,14.65,1275,1311,1323,1287,1300,1500,1524,10979,769
44832,0,-5.66,-4.50,-4.33,0.030,-0.124,0.945,0.00,0.00,0.00,4.80,5.66,9.30,0.11,4.28,4.49,8.42,9.66,15.32,1275,1311,1323,1287,1300,1500,1524,10925,769
44844,0,-5.76,-3.03,-4.39,0.049,-0.116,0.919,0.00,0.00,0.00,4.80,5.76,7.83,0.11,4.31,4.59,8.46,6.65,15.56,1275,1311,1323,1287,1302,1500,1524,10929,769
44856,0,-5.50,-3.47,-3.52,0.052,-0.100,0.941,0.00,0.00,0.00,4.80,5.50,8.27,0.11,4.33,4.69,7.29,6.27,13.48,1275,1311,1323,1287,1302,1500,1524,10937,769
44868,0,-5.75,-1.58,-3.48,0.057,-0.082,0.958,0.00,0.00,0.00,4.80,5.75,6.38,0.12,4.36,4.78,7.56,3.51,13.48,1275,1311,1323,1287,1303,1500,1524,10979,769
44880,0,-5.07,-1.57,-3.14,0.072,-0.077,0.955,0.00,0.00,0.00,4.80,5.07,6.37,0.12,4.38,4.87,6.22,3.23,12.73,1275,1311,1323,1287,1303,1500,1524,10996,769
44892,0,-1.46,3.76,-4.19,0.069,-0.066,0.968,0.00,0.00,0.00,4.80,1.46,1.04,0.12,4.39,4.98,0.86,-3.13,15.45,1275,1311,1323,1287,1303,1500,1524,11025,769
44904,0,0.12,2.43,-4.35,0.045,-0.042,0.989,0.00,0.00,0.00,4.80,-0.12,2.37,0.12,4.41,5.08,-1.09,-1.11,15.95,1272,1348,1290,1302,1305,1500,1524,10987,770
44916,0,1.31,-4.96,-4.65,0.091,-0.053,0.950,0.00,0.00,0.00,4.80,-1.31,9.76,0.12,4.44,5.21,-1.98,9.86,16.83,1272,1348,1290,1302,1305,1500,1524,11000,770
44928,0,2.09,-7.17,-5.16,0.142,-0.085,0.943,0.00,0.00,0.00,4.80,-2.09,11.97,0.11,4.46,5.34,-1.44,13.06,18.23,1272,1348,1290,1302,1306,1500,1524,10983,770
44940,0,3.06,-6.77,-5.81,0.118,-0.065,0.956,0.00,0.00,0.00,4.80,-3.06,11.57,0.09,4.49,5.49,-1.61,11.46,20.02,1272,1348,1290,1302,1306,1500,1524,10950,770
44952,0,3.46,-12.99,-6.72,0.157,-0.069,0.941,0.00,0.00,0.00,4.80,-3.46,17.79,0.08,4.51,5.67,-0.47,22.43,22.47,1272,1348,1290,1302,1306,1500,1524,10929,770
44964,0,2.64,-8.16,-6.55,0.102,-0.058,0.982,0.00,0.00,0.00,4.80,-2.64,12.96,0.06,4.52,5.84,2.65,15.45,22.21,1272,1348,1290,1302,1312,1500,1524,10916,770
44976,0,-1.19,-11.23,-6.51,0.066,-0.044,0.988,0.00,0.00,0.00,4.80,1.19,16.03,0.05,4.52,6.02,8.39,25.72,22.29,1272,1348,1290,1302,1312,1500,1524,10916,770
44988,0,-0.98,-8.12,-7.57,-0.012,-0.060,0.975,0.00,0.00,0.00,4.60,0.98,12.72,0.04,4.51,5.62,7.59,24.17,-48.35,1272,1348,1290,1302,1391,1501,1523,10875,770
45000,0,2.68,-9.55,-7.49,-0.074,-0.031,1.031,0.00,0.00,0.00,4.80,-2.68,14.35,0.02,4.49,4.93,1.58,30.06,-49.25,1474,1308,1368,1414,1391,1500,1524,10933,771
45012,0,-2.71,-7.78,-8.41,-0.106,-0.047,1.089,0.00,0.00,0.00,4.80,2.71,12.58,0.02,4.49,5.15,9.26,27.65,26.17,1474,1308,1368,1414,1314,1500,1524,10921,771
45024,0,1.03,-5.30,-8.43,-0.074,-0.039,1.089,0.00,0.00,0.00,4.60,-1.03,9.90,0.01,4.48,5.36,2.80,23.60,26.45,1474,1308,1368,1414,1314,1500,1523,10904,771
45036,0,0.91,0.42,-9.54,-0.030,-0.034,1.131,0.00,0.00,0.00,4.60,-0.91,4.18,0.00,4.49,5.61,2.04,11.39,29.46,1474,1308,1368,1414,1314,1500,1523,10896,771
45048,0,-0.31,-11.04,-10.85,0.135,-0.055,1.042,0.00,0.00,0.00,5.00,0.31,16.04,-0.00,4.51,5.88,3.93,27.24,33.01,1474,1308,1368,1414,1313,1500,1525,10891,771
45060,0,3.11,0.44,-10.66,0.182,-0.036,1.031,0.00,0.00,0.00,4.80,-3.11,4.36,-0.01,4.52,6.19,-0.91,8.20,32.85,1474,1308,1368,1414,1313,1500,1524,10891,771
45072,0,3.98,11.25,-11.52,0.129,-0.056,1.026,0.00,0.00,0.00,4.80,-3.98,-6.45,-0.03,4.50,6.50,-1.75,-5.52,35.29,1474,1308,1368,1414,1316,1500,1524,10900,771
45084,0,6.68,17.54,-11.87,0.059,-0.073,1.062,0.00,0.00,0.00,4.80,-6.68,-12.74,-0.04,4.46,6.83,-5.02,-8.16,36.52,1474,1308,1368,1414,1317,1500,1524,10937,771
45096,0,8.15,16.62,-12.49,-0.008,-0.093,1.087,0.00,0.00,0.00,4.80,-8.15,-11.82,-0.06,4.41,7.18,-5.66,-1.40,38.42,1285,1359,1351,1273,1317,1500,1524,10941,771
45108,0,9.02,10.68,-11.88,-0.001,-0.078,1.085,0.00,0.00,0.00,4.80,-9.02,-5.88,-0.09,4.38,7.53,-5.19,10.19,37.25,1285,1359,1351,1273,1318,1500,1524,10933,771
45120,0,11.69,13.20,-12.20,-0.008,-0.066,1.081,0.00,0.00,0.00,4.80,-11.69,-8.40,-0.11,4.36,7.87,-8.32,3.17,38.38,1285,1359,1351,1273,1318,1500,1524,10946,771
45132,0,15.97,16.97,-10.47,-0.014,-0.041,1.061,0.00,0.00,0.00,4.80,-15.97,-12.17,-0.14,4.34,8.20,-13.47,-3.86,34.37,1285,1359,1351,1273,1323,1500,1524,10946,771
45144,0,18.86,23.53,-10.76,0.004,-0.035,1.081,0.00,0.00,0.00,4.80,-18.86,-18.73,-0.18,4.31,8.53,-15.02,-14.93,35.44,1285,1359,1351,1273,1325,1500,1524,10941,771
45156,0,19.75,11.17,-8.44,-0.003,-0.026,1.049,0.00,0.00,0.00,4.80,-19.75,-6.37,-0.24,4.31,8.83,-12.55,2.16,29.92,1285,1359,1351,1273,1325,1500,1524,10908,771
45168,0,19.40,-2.08,-8.55,0.084,-0.052,1.009,0.00,0.00,0.00,4.80,-19.40,6.88,-0.29,4.30,9.13,-9.14,22.22,30.50,1285,1359,1351,1273,1325,1500,1524,10896,771
45180,0,19.75,-1.92,-8.42,0.126,-0.063,0.978,0.00,0.00,0.00,4.60,-19.75,6.52,-0.35,4.30,9.44,-6.96,20.29,30.49,1285,1359,1351,1273,1325,1501,1523,10908,771
45192,0,20.92,0.43,-8.88,0.134,-0.067,0.925,0.00,0.00,0.00,4.60,-20.92,4.17,-0.41,4.29,9.74,-6.80,14.73,31.94,1285,1359,1351,1273,1326,1501,1523,10891,771
45204,0,21.39,22.59,-8.27,0.040,-0.039,1.034,0.00,0.00,0.00,4.80,-21.39,-17.79,-0.47,4.28,10.04,-7.17,-20.73,30.72,1275,1389,1333,1307,1326,1500,1524,10946,769
45216,0,19.95,27.01,-7.87,-0.092,-0.034,1.104,0.00,0.00,0.00,4.80,-19.95,-22.21,-0.51,4.29,10.34,-5.87,-31.61,30.01,1275,1389,1333,1307,1326,1500,1524,10929,769
45228,0,18.43,15.99,-8.69,-0.105,-0.039,1.160,0.00,0.00,0.00,4.80,-18.43,-11.19,-0.57,4.31,10.67,-3.72,-17.10,32.39,1275,1389,1333,1307,1326,1500,1524,10896,769
45240,0,18.47,1.66,-8.80,-0.008,-0.058,1.102,0.00,0.00,0.00,4.80,-18.47,3.14,-0.62,4.34,10.98,-3.61,2.15,32.99,1275,1389,1333,1307,1326,1500,1524,10887,769
45252,0,21.46,5.36,-9.75,-0.009,-0.070,1.086,0.00,0.00,0.00,4.80,-21.46,-0.56,-0.68,4.37,11.29,-7.24,-7.37,35.67,1275,1389,1333,1307,1326,1500,1524,10887,769
45264,0,24.44,5.50,-9.54,-0.102,-0.045,1.111,0.00,0.00,0.00,4.80,-24.44,-0.70,-0.74,4.41,11.59,-11.81,-9.74,35.45,1275,1389,1333,1307,1327,1500,1524,10908,769
45276,0,22.59,-10.25,-8.73,-0.163,-0.031,1.136,0.00,0.00,0.00,4.80,-22.59,15.05,-0.79,4.46,11.90,-8.69,11.69,33.73,1275,1389,1333,1307,1327,1500,1524,10937,769
45288,0,18.90,-30.49,-8.10,-0.105,-0.026,1.087,0.00,0.00,0.00,4.80,-18.90,35.29,-0.85,4.53,12.19,-3.24,37.90,32.45,1275,1389,1333,1307,1327,1500,1524,10979,769
45300,0,15.90,-40.84,-8.03,-0.058,-0.011,1.075,0.00,0.00,0.00,4.60,-15.90,45.44,-0.90,4.62,12.46,0.70,46.71,32.54,1295,1399,1325,1289,1327,1501,1523,10954,769
45312,0,12.29,-45.78,-7.53,0.019,0.025,1.069,0.00,0.00,0.00,4.60,-12.29,50.38,-0.94,4.72,12.72,4.83,49.00,31.53,1295,1399,1325,1289,1326,1501,1523,10933,769
45324,0,10.74,-49.48,-5.79,-0.002,0.036,1.054,0.00,0.00,0.00,4.80,-10.74,54.28,-0.98,4.84,12.93,5.00,45.58,27.39,1295,1399,1325,1289,1231,1500,1524,10904,769
45336,0,6.92,-67.43,-6.50,0.071,0.006,1.001,0.00,0.00,0.00,4.80,-6.92,72.23,-1.01,4.98,13.14,8.84,68.36,29.39,1295,1399,1325,1289,1231,1500,1524,10896,769
45348,0,4.96,-71.33,-6.03,0.082,-0.014,1.009,0.00,0.00,0.00,5.00,-4.96,76.33,-1.04,5.12,11.80,9.34,67.23,-165.73,1295,1399,1325,1289,1326,1499,1525,10908,769
45360,0,5.85,-67.96,-6.33,0.036,-0.009,1.048,0.00,0.00,0.00,4.20,-5.85,72.16,-1.06,5.28,9.67,5.17,54.20,-167.10,1295,1399,1325,1289,1326,1503,1521,10891,769
45372,0,0.00,-69.97,-6.52,-0.056,-0.005,1.063,0.00,0.00,0.00,4.20,-0.00,74.17,-1.07,5.46,9.86,11.53,49.36,26.15,1295,1399,1325,1289,1326,1503,1521,10891,769
45384,0,-1.54,-80.15,-6.82,-0.049,-0.032,1.066,0.00,0.00,0.00,4.80,1.54,84.95,-1.09,5.65,10.09,11.97,59.82,27.14,1295,1399,1325,1289,1327,1500,1524,10871,769
45396,0,1.13,-83.64,-8.83,-0.071,-0.044,1.072,0.00,0.00,0.00,4.80,-1.13,88.44,-1.10,5.86,10.36,6.40,56.82,32.44,1233,1409,1309,1357,1327,1500,1524,10883,769
45408,0,8.08,-84.05,-10.88,-0.095,-0.067,1.078,0.00,0.00,0.00,4.80,-8.08,88.85,-1.12,6.08,10.68,-4.71,50.50,37.88,1233,1409,1309,1357,1327,1500,1524,10858,769
45420,0,11.71,-86.77,-12.84,-0.223,-0.044,1.164,0.00,0.00,0.00,4.80,-11.71,91.57,-1.15,6.31,11.04,-9.43,48.73,43.15,1233,1409,1309,1357,1327,1500,1524,10829,769
45432,0,10.10,-123.55,-12.96,-0.141,-0.042,1.087,0.00,0.00,0.00,4.80,-10.10,128.35,-1.18,6.58,11.43,-5.15,98.51,43.82,1233,1409,1309,1357,1327,1500,1524,10850,769
45444,0,10.28,-142.71,-12.90,-0.008,-0.070,0.962,0.00,0.00,0.00,4.80,-10.28,147.51,-1.21,6.87,11.80,-3.61,118.10,44.06,1233,1409,1309,1357,1327,1500,1524,10862,769
45456,0,14.61,-121.71,-19.11,-0.000,-0.025,1.146,0.00,0.00,0.00,4.80,-14.61,126.51,-1.26,7.14,12.28,-8.19,78.53,60.04,1233,1409,1309,1357,1327,1500,1524,10887,769
45468,0,16.65,-123.42,-14.22,-0.261,0.118,1.235,0.00,0.00,0.00,4.60,-16.65,128.02,-1.29,7.47,12.67,-11.03,68.73,48.23,1233,1409,1309,1357,1327,1500,1523,10867,769
45480,0,-4.57,-147.42,-14.17,-0.129,0.235,1.328,0.00,0.00,0.00,0.00,4.57,147.42,-1.29,7.78,13.08,17.33,101.66,48.51,1233,1409,1309,1357,1327,1500,1520,10842,769
45492,0,-31.17,-134.10,-10.36,0.139,0.189,1.190,0.00,0.00,0.00,0.00,31.17,134.10,-1.24,8.02,13.49,47.00,87.61,39.39,1233,1409,1309,1357,1327,1500,1520,10883,769
45504,0,-43.52,-100.62,-13.24,-0.132,0.178,1.270,0.00,0.00,0.00,0.00,43.52,100.62,-1.13,8.36,13.87,48.21,18.47,46.98,1100,1458,1282,1494,1327,1500,1520,10883,765
45516,0,-43.49,-123.85,-13.87,0.008,0.094,1.281,0.00,0.00,0.00,0.00,43.49,123.85,-1.02,8.65,14.29,33.65,60.00,48.96,1100,1458,1282,1494,1327,1500,1520,10871,765
45528,0,-45.68,-174.09,-14.67,0.104,0.096,1.190,0.00,0.00,0.00,0.00,45.68,174.09,-0.89,9.07,14.71,26.47,121.59,51.40,1100,1458,1282,1494,1327,1500,1513,10887,765
45540,0,-53.27,-215.47,-15.57,0.325,-0.009,0.964,0.00,0.00,0.00,0.00,53.27,215.47,-0.75,9.50,15.15,31.11,172.07,54.08,1100,1458,1282,1494,1327,1489,1505,10875,765
45552,0,-63.59,-201.36,-15.29,-0.028,-0.043,1.049,0.00,0.00,0.00,0.00,63.59,201.36,-0.62,9.98,15.59,42.64,127.65,53.80,1100,1458,1282,1494,1327,1489,1505,10833,765
45564,0,-58.34,-207.10,-19.42,-0.022,-0.009,1.153,0.00,0.00,0.00,0.00,58.34,207.10,-0.49,10.43,16.08,31.99,129.03,64.62,1100,1458,1282,1494,1326,1497,1506,10817,765
45576,0,-58.90,-188.36,-14.22,-0.288,0.132,1.294,0.00,0.00,0.00,0.00,58.90,188.36,-0.36,10.95,16.51,31.52,79.84,52.06,1100,1458,1282,1494,1326,1497,1506,10825,765
45588,0,-71.27,-289.95,-8.18,0.527,0.042,0.998,0.00,0.00,-100.00,-99.80,-28.73,190.15,-0.30,11.47,16.95,10.59,185.41,37.40,1100,1458,1282,1494,1327,1000,1001,10800,765
45600,0,-76.86,-240.09,-8.41,0.016,0.194,1.261,0.00,0.00,0.00,0.00,76.86,240.09,-0.28,11.99,17.19,49.47,106.95,38.22,1152,1482,1244,1430,1327,1496,1502,10787,771
45612,0,-72.17,-326.53,-5.11,0.580,0.070,0.941,0.00,0.00,0.00,0.00,72.17,326.53,-0.09,12.64,17.50,33.16,239.91,30.27,1152,1482,1244,1430,1328,1496,1502,10825,771
45624,0,-65.13,-299.77,-4.52,0.047,0.157,1.229,0.00,0.00,0.00,0.00,65.13,299.77,0.11,13.45,17.67,14.96,152.04,28.97,1152,1482,1244,1430,1327,1495,1503,10829,771
45636,0,-49.10,-357.02,-27.86,0.835,0.221,1.013,0.00,0.00,0.00,0.00,49.10,357.02,0.26,14.15,18.16,-6.38,246.31,87.80,1152,1482,1244,1430,1327,1495,1503,10821,771
45648,0,7.19,-128.59,-64.52,0.308,-0.156,1.813,0.00,0.00,0.00,0.00,-7.19,128.59,0.31,14.68,19.74,-76.87,-106.58,181.04,1152,1482,1244,1430,1327,1495,1504,10779,771
45660,0,-2.93,-367.74,-57.31,0.901,-0.407,0.808,0.00,0.00,0.00,0.00,2.93,367.74,0.33,15.36,21.62,-39.86,290.05,164.90,1152,1482,1244,1430,1327,1495,1502,10771,771
45672,64,39.47,-425.79,-71.29,0.513,0.227,0.625,0.00,0.00,0.00,0.00,-39.47,425.79,0.34,15.93,23.91,-94.64,400.00,202.14,1152,1482,1244,1430,1304,1495,1502,10762,771
45684,0,-33.02,-259.38,-76.94,-0.536,-0.353,1.407,0.00,0.00,0.00,0.00,33.02,259.38,0.40,16.49,26.20,27.09,131.06,218.56,1152,1482,1244,1430,1327,1495,1503,10775,771
