time_ms,flags,gyro_x,gyro_y,gyro_z,accel_x,accel_y,accel_z,angle_roll,angle_pitch,rate_sp_roll,rate_sp_pitch,rate_err_roll,rate_err_pitch,rate_i_roll,rate_i_pitch,rate_i_yaw,pid_roll,pid_pitch,pid_yaw,m1,m2,m3,m4,rc_thr,rc_roll,rc_pitch,battery_mv,loop_us
27018,0,0.85,-6.28,-0.50,0.060,-0.080,0.984,0.00,0.00,0.00,4.80,-0.85,11.08,0.00,0.03,-0.33,-1.47,11.00,-26.07,1100,1100,1100,1100,1062,1500,1524,11312,777
27029,0,-1.92,-3.08,0.32,0.071,-0.049,0.982,0.00,0.00,0.00,4.80,1.92,7.88,0.00,0.05,-0.53,3.05,3.96,-1.33,1100,1100,1100,1100,1030,1500,1524,11308,777
27041,0,-0.74,-4.01,0.13,0.084,-0.076,0.979,0.00,0.00,0.00,4.80,0.74,8.81,0.00,0.07,-0.55,1.06,5.44,-0.86,1100,1100,1100,1100,1030,1500,1524,11304,777
27053,0,-1.79,1.61,1.05,0.084,-0.082,0.960,0.00,0.00,0.00,4.80,1.79,3.19,0.01,0.08,-0.56,1.89,-2.90,-3.19,1100,1100,1100,1100,1030,1500,1524,11312,777
27065,0,-0.37,-0.73,-0.42,0.094,-0.067,0.962,0.00,0.00,0.00,4.80,0.37,5.53,0.01,0.10,-0.56,-0.23,1.03,0.48,1100,1100,1100,1100,1030,1500,1524,11304,777
27078,0,-1.51,1.11,0.36,0.061,-0.070,0.975,0.00,0.00,0.00,5.40,1.51,4.29,0.01,0.11,-0.56,0.79,-0.85,-1.47,1100,1100,1100,1100,1027,1500,1527,11283,777
27089,0,-2.56,0.94,-0.39,0.066,-0.028,0.989,0.00,0.00,0.00,4.80,2.56,3.86,0.02,0.12,-0.55,2.53,-0.04,0.41,1100,1100,1100,1100,1036,1500,1524,11291,777
27101,0,-1.39,-3.44,0.58,0.083,-0.065,0.958,0.00,0.00,0.00,4.80,1.39,8.24,0.02,0.13,-0.57,0.45,7.63,-2.03,1100,1100,1100,1100,1036,1500,1524,11287,777
27113,0,-3.21,1.10,-0.45,0.079,-0.067,0.964,0.00,0.00,0.00,4.80,3.21,3.70,0.03,0.15,-0.56,3.05,0.25,0.56,1100,1100,1100,1100,1030,1500,1524,11291,773
27125,0,-1.42,0.15,-0.12,0.049,-0.049,0.961,0.00,0.00,0.00,4.80,1.42,4.65,0.03,0.16,-0.57,0.34,2.09,-0.27,1100,1100,1100,1100,1030,1500,1524,11291,773
27138,0,-2.56,1.61,-0.27,0.013,-0.058,0.977,0.00,0.00,0.00,4.80,2.56,3.19,0.04,0.16,-0.56,1.65,0.17,0.12,1100,1100,1100,1100,1030,1500,1524,11291,773
27149,0,-2.75,3.54,0.29,0.001,-0.033,1.012,0.00,0.00,0.00,4.80,2.75,1.26,0.04,0.17,-0.57,2.02,-1.99,-1.29,1100,1100,1100,1100,1030,1500,1524,11283,773
27161,0,-2.31,3.77,0.70,-0.015,-0.056,1.014,0.00,0.00,0.00,4.80,2.31,1.03,0.05,0.17,-0.57,1.06,-1.33,-2.32,1100,1100,1100,1100,1030,1500,1524,11274,773
27173,0,-4.07,4.64,-0.48,0.030,-0.054,0.998,0.00,0.00,0.00,0.00,4.07,-4.64,0.05,0.17,-0.58,3.91,-4.88,0.61,1100,1100,1100,1100,1041,1501,1515,11274,773
27185,0,1.68,1.61,0.53,0.017,-0.061,0.983,0.00,0.00,0.00,0.00,-1.68,-1.61,0.05,0.16,-0.58,-4.72,0.70,-1.90,1100,1100,1100,1100,1041,1500,1515,11299,773
27198,0,0.38,1.92,-0.51,0.019,-0.064,0.988,0.00,0.00,0.00,5.40,-0.38,3.48,0.06,0.17,-0.57,-2.32,1.48,0.69,1100,1100,1100,1100,1027,1500,1527,11308,773
27209,0,0.86,-2.98,0.49,0.025,-0.065,1.001,0.00,0.00,0.00,4.80,-0.86,7.78,0.05,0.19,-0.58,-1.64,7.42,-1.82,1100,1100,1100,1100,1030,1500,1524,11299,772
27221,0,0.79,-1.11,-0.30,0.038,-0.083,0.994,0.00,0.00,0.00,4.80,-0.79,5.91,0.05,0.20,-0.58,-1.10,4.75,0.18,1100,1100,1100,1100,1030,1500,1524,11291,772
27233,0,0.16,-0.30,-0.34,0.056,-0.076,0.989,0.00,0.00,0.00,4.80,-0.16,5.10,0.05,0.22,-0.58,0.46,2.46,0.26,1100,1100,1100,1100,1030,1499,1524,11312,772
27245,0,2.87,-4.71,0.21,0.076,-0.085,0.990,0.00,0.00,0.00,4.80,-2.87,9.51,0.04,0.24,-0.57,-3.68,8.29,-1.10,1100,1100,1100,1100,1030,1500,1524,11308,772
27258,0,1.81,-1.49,0.13,0.079,-0.056,0.971,0.00,0.00,0.00,4.40,-1.81,5.89,0.04,0.25,-0.57,-1.74,2.04,-0.89,1100,1100,1100,1100,1033,1500,1522,11299,772
27269,0,2.61,-4.48,0.32,0.043,-0.045,0.984,0.00,0.00,0.00,5.20,-2.61,9.68,0.04,0.28,-0.57,-2.55,6.04,-1.38,1100,1100,1100,1100,1029,1499,1526,11283,772
27281,0,-0.54,-10.62,-0.23,0.111,-0.085,0.906,0.00,0.00,0.00,5.20,0.54,15.82,0.04,0.30,-0.58,2.16,14.66,-0.01,1100,1100,1100,1100,1029,1499,1526,11291,772
27293,0,0.19,-2.86,0.09,0.080,-0.102,0.929,0.00,0.00,0.00,5.00,-0.19,7.86,0.04,0.33,-0.59,0.53,0.55,-0.82,1100,1100,1100,1100,1029,1500,1525,11266,772
27305,0,1.11,3.74,0.43,0.057,-0.090,0.962,0.00,0.00,0.00,5.00,-1.11,1.26,0.03,0.34,-0.58,-1.03,-7.40,-1.67,1100,1100,1100,1100,1029,1500,1525,11279,772
27318,0,1.54,-3.30,0.38,0.114,-0.069,0.935,0.00,0.00,0.00,4.80,-1.54,8.10,0.03,0.36,-0.58,-1.78,4.32,-1.52,1100,1100,1100,1100,1030,1500,1524,11295,771
27329,0,0.18,-10.21,0.04,0.140,-0.072,0.899,0.00,0.00,0.00,4.60,-0.18,14.81,0.03,0.39,-0.59,0.29,12.94,-0.68,1100,1100,1100,1100,1031,1500,1523,11279,771
27341,0,-1.25,-11.00,0.21,0.163,-0.086,0.894,0.00,0.00,0.00,4.60,1.25,15.60,0.03,0.42,-0.60,2.83,12.79,-1.13,1100,1100,1100,1100,1031,1500,1523,11274,771
27353,0,2.86,0.02,-0.48,0.105,-0.078,0.939,0.00,0.00,0.00,4.60,-2.86,4.58,0.03,0.44,-0.60,-3.65,-4.84,0.60,1100,1100,1100,1100,1031,1500,1523,11283,771
27365,0,2.14,-5.04,0.69,0.120,-0.061,0.904,0.00,0.00,0.00,4.60,-2.14,9.64,0.02,0.47,-0.61,-2.22,3.87,-2.34,1100,1100,1100,1100,1031,1500,1523,11283,771
27378,0,0.44,-5.50,-0.18,0.079,-0.070,0.952,0.00,0.00,0.00,0.00,-0.44,5.50,0.02,0.48,-0.84,0.58,3.78,-21.10,1100,1100,1100,1100,1062,1500,1517,11274,771
27389,0,-0.32,-0.97,0.13,0.030,-0.051,0.994,0.00,0.00,0.00,5.20,0.32,6.17,0.02,0.49,-1.02,1.58,-1.11,-1.33,1100,1100,1100,1100,1028,1500,1526,11270,771
27401,0,0.15,0.21,-0.48,0.017,-0.062,1.026,0.00,0.00,0.00,5.20,-0.15,4.99,0.02,0.50,-1.01,1.18,-0.34,0.18,1100,1100,1100,1100,1028,1500,1526,11274,771
27413,0,4.91,2.95,-0.29,0.003,-0.063,1.008,0.00,0.00,0.00,4.80,-4.91,1.85,0.01,0.51,-1.01,-6.21,-4.27,-0.29,1100,1100,1100,1100,1030,1500,1524,11270,773
27425,0,3.52,2.05,0.01,-0.058,-0.032,1.048,0.00,0.00,0.00,4.80,-3.52,2.75,0.00,0.52,-0.99,-3.47,-1.56,-1.01,1100,1100,1100,1100,1030,1500,1524,11274,773
27438,0,1.77,2.45,-0.74,-0.064,-0.063,1.091,0.00,0.00,0.00,4.80,-1.77,2.35,0.00,0.52,-0.98,-0.53,0.28,0.87,1100,1100,1100,1100,1030,1500,1524,11279,773
27449,0,-0.23,3.95,0.65,-0.018,-0.072,1.058,0.00,0.00,0.00,5.20,0.23,1.25,-0.00,0.52,-0.99,2.60,-0.85,-2.61,1100,1100,1100,1100,1028,1500,1526,11287,773
27461,0,2.42,-2.85,-0.72,0.034,-0.064,1.026,0.00,0.00,0.00,5.20,-2.42,8.05,-0.01,0.53,-0.98,-1.60,9.49,0.82,1100,1100,1100,1100,1028,1500,1526,11279,773
27473,0,4.14,-0.30,0.39,0.059,-0.056,1.006,0.00,0.00,0.00,4.80,-4.14,5.10,-0.01,0.54,-0.99,-4.29,4.39,-1.97,1100,1100,1100,1100,1031,1500,1524,11279,773
27485,0,-0.30,0.16,0.20,0.070,-0.028,1.027,0.00,0.00,0.00,4.80,0.30,4.64,-0.02,0.56,-0.99,2.77,2.37,-1.48,1100,1100,1100,1100,1031,1499,1524,11283,773
27498,0,-1.85,-3.47,-0.52,0.081,-0.075,0.978,0.00,0.00,0.00,4.60,1.85,8.07,-0.01,0.57,-1.00,4.08,8.79,0.30,1100,1100,1100,1100,1033,1499,1523,11287,773
27509,0,-4.16,2.85,0.21,0.081,-0.077,0.964,0.00,0.00,0.00,4.60,4.16,1.75,-0.01,0.57,-0.99,6.81,-1.13,-1.51,1100,1100,1100,1100,1032,1500,1523,11274,801
27521,0,1.39,7.81,-0.99,0.017,-0.056,1.072,0.00,0.00,0.00,4.60,-1.39,-3.21,-0.01,0.57,-0.98,-2.58,-7.97,1.48,1100,1100,1100,1100,1032,1500,1523,11270,801
27533,0,1.85,8.79,0.53,-0.022,-0.055,1.050,0.00,0.00,0.00,5.20,-1.85,-3.59,-0.01,0.57,-0.97,-3.79,-6.49,-2.30,1100,1100,1100,1100,1029,1499,1526,11283,801
27545,0,1.50,3.47,0.21,0.014,-0.037,1.041,0.00,0.00,0.00,5.20,-1.50,1.73,-0.01,0.57,-0.97,-2.30,2.20,-1.49,1100,1100,1100,1100,1029,1501,1526,11279,801
27558,0,3.16,-1.17,0.43,0.009,-0.056,1.019,0.00,0.00,0.00,0.00,-3.16,1.17,-0.01,0.57,-0.99,-4.71,6.59,-2.06,1100,1100,1100,1100,1037,1501,1517,11270,801
27569,0,-2.94,0.83,-1.13,-0.001,-0.058,1.017,0.00,0.00,0.00,4.40,2.94,3.57,-0.01,0.57,-0.96,5.51,4.76,1.85,1100,1100,1100,1100,1032,1500,1522,11274,801
27581,0,0.17,2.04,-1.01,-0.027,-0.047,1.067,0.00,0.00,0.00,4.40,-0.17,2.36,-0.02,0.57,-0.95,0.70,2.40,1.57,1100,1100,1100,1100,1032,1500,1522,11295,801
27593,0,1.98,6.39,0.60,-0.062,-0.043,1.050,0.00,0.00,0.00,0.00,-1.98,-6.39,-0.02,0.56,-0.94,-2.74,-5.88,-2.45,1100,1100,1100,1100,1044,1500,1520,11283,801
27605,0,-0.65,4.71,0.34,-0.028,-0.022,1.049,0.00,0.00,0.00,0.00,0.65,-4.71,-0.02,0.55,-0.95,1.98,-2.93,-1.80,1100,1100,1100,1100,1044,1500,1520,11274,801
27618,0,1.05,0.90,0.03,-0.036,-0.059,1.047,0.00,0.00,0.00,4.40,-1.05,3.50,-0.02,0.56,-0.95,-1.58,4.63,-1.04,1100,1100,1100,1100,1032,1500,1522,11287,773
27629,0,-2.14,5.61,-1.59,-0.037,-0.043,1.033,0.00,0.00,0.00,4.40,2.14,-1.21,-0.01,0.56,-0.92,2.79,-2.16,3.04,1100,1100,1100,1100,1032,1500,1522,11308,773
27641,0,-1.29,1.99,0.01,-0.045,-0.046,1.042,0.00,0.00,0.00,4.40,1.29,2.41,-0.01,0.56,-0.91,1.29,3.28,-0.94,1100,1100,1100,1100,1032,1500,1522,11291,773
27653,0,-2.63,5.79,0.18,-0.059,-0.058,1.053,0.00,0.00,0.00,4.40,2.63,-1.39,-0.01,0.56,-0.91,2.77,-2.30,-1.35,1100,1100,1100,1100,1032,1500,1522,11308,773
27665,0,-2.25,3.18,0.68,-0.042,-0.042,1.051,0.00,0.00,0.00,4.40,2.25,1.22,-0.00,0.56,-0.93,2.28,1.62,-2.62,1100,1100,1100,1100,1032,1500,1522,11308,773
27678,0,0.48,-2.74,-0.01,0.004,-0.083,1.012,0.00,0.00,0.00,4.40,-0.48,7.14,-0.00,0.57,-0.92,-2.24,10.47,-0.89,1100,1100,1100,1100,1032,1500,1522,11287,773
27689,0,-2.96,-1.76,-0.21,0.032,-0.081,0.974,0.00,0.00,0.00,5.00,2.96,6.76,0.00,0.59,-0.94,2.90,6.00,-0.42,1100,1100,1100,1100,1029,1500,1525,11270,773
27701,0,-0.82,-2.82,0.83,0.023,-0.064,0.993,0.00,0.00,0.00,5.00,0.82,7.82,0.01,0.61,-0.94,-0.31,6.61,-3.02,1100,1100,1100,1100,1029,1500,1525,11274,773
27713,0,-1.53,-2.60,-0.38,0.027,-0.045,0.979,0.00,0.00,0.00,5.00,1.53,7.60,0.01,0.62,-0.94,0.37,6.04,0.01,1100,1100,1100,1100,1029,1500,1525,11258,773
27725,0,-3.34,-0.04,-0.09,0.015,-0.050,0.992,0.00,0.00,0.00,5.00,3.34,5.04,0.01,0.63,-0.93,3.86,2.30,-0.72,1100,1100,1100,1100,1029,1499,1525,11270,773
27738,0,-2.46,1.24,-0.10,0.020,-0.086,1.000,0.00,0.00,0.00,4.60,2.46,3.36,0.02,0.64,-0.93,2.30,0.61,-0.67,1100,1100,1100,1100,1031,1499,1523,11291,773
27749,0,-2.08,6.35,0.14,-0.001,-0.053,1.009,0.00,0.00,0.00,0.00,2.08,-6.35,0.02,0.64,-0.93,1.36,-9.13,-1.28,1100,1100,1100,1100,1038,1497,1517,11291,773
27761,0,2.22,5.56,0.22,-0.014,-0.038,1.031,0.00,0.00,0.00,0.00,-2.22,-5.56,0.02,0.63,-0.92,-5.30,-5.77,-1.48,1100,1100,1100,1100,1038,1497,1517,11283,773
27773,0,-1.17,2.33,-0.54,-0.043,-0.029,1.042,0.00,0.00,0.00,4.40,1.17,2.07,0.03,0.63,-0.91,-0.14,2.94,0.43,1100,1100,1100,1100,1032,1500,1522,11270,773
27785,0,-5.00,2.35,-0.33,-0.047,-0.044,1.048,0.00,0.00,0.00,4.40,5.00,2.05,0.03,0.63,-0.91,6.18,3.59,-0.08,1100,1100,1100,1100,1032,1499,1522,11270,773
27798,0,-2.77,6.09,-0.26,-0.063,-0.045,1.054,0.00,0.00,0.00,4.80,2.77,-1.29,0.04,0.62,-0.90,2.20,-2.05,-0.26,1100,1100,1100,1100,1031,1499,1524,11266,773
27809,0,-2.35,6.37,0.01,-0.088,-0.046,1.062,0.00,0.00,0.00,4.40,2.35,-1.97,0.04,0.62,-0.90,1.52,-1.91,-0.93,1100,1100,1100,1100,1033,1499,1522,11266,771
27821,0,0.33,7.07,0.31,-0.127,-0.028,1.087,0.00,0.00,0.00,4.40,-0.33,-2.67,0.05,0.62,-0.91,-2.74,-2.68,-1.68,1100,1100,1100,1100,1033,1499,1522,11279,771
27833,0,-1.16,4.47,0.36,-0.146,-0.026,1.094,0.00,0.00,0.00,4.20,1.16,-0.27,0.05,0.62,-0.90,-0.35,0.88,-1.82,1100,1100,1100,1100,1033,1500,1521,11274,771
27845,0,-1.97,2.26,-0.56,-0.139,-0.059,1.102,0.00,0.00,0.00,4.20,1.97,1.94,0.05,0.62,-0.90,1.62,3.77,0.51,1100,1100,1100,1100,1033,1500,1521,11279,771
27858,0,-1.21,5.49,-0.42,-0.165,-0.057,1.066,0.00,0.00,0.00,4.60,1.21,-0.89,0.05,0.62,-0.89,0.88,-1.02,0.16,1100,1100,1100,1100,1031,1500,1523,11258,771
27869,0,0.97,-0.84,-0.24,-0.136,-0.042,1.079,0.00,0.00,0.00,4.20,-0.97,5.04,0.05,0.63,-0.89,-2.31,8.65,-0.28,1100,1100,1100,1100,1033,1500,1521,11262,771
27881,0,0.66,1.34,0.53,-0.151,-0.018,1.115,0.00,0.00,0.00,4.20,-0.66,2.86,0.05,0.64,-0.89,-1.28,2.59,-2.22,1100,1100,1100,1100,1033,1500,1521,11287,771
27893,0,0.93,-3.49,-0.51,-0.116,-0.047,1.054,0.00,0.00,0.00,5.00,-0.93,8.49,0.05,0.65,-0.88,-0.83,9.72,0.39,1100,1100,1100,1100,1029,1500,1525,11287,771
27905,0,1.90,4.55,-0.79,-0.132,-0.049,1.085,0.00,0.00,0.00,5.00,-1.90,0.45,0.05,0.66,-0.88,-2.07,-3.87,1.11,1100,1100,1100,1100,1029,1500,1525,11295,771
27918,0,0.83,-4.43,-0.32,-0.116,-0.044,1.053,0.00,0.00,0.00,4.20,-0.83,8.63,0.04,0.67,-0.86,0.41,10.00,-0.05,1100,1100,1100,1100,1033,1500,1521,11299,772
27929,0,2.80,-4.88,-0.43,-0.075,-0.074,1.055,0.00,0.00,0.00,4.20,-2.80,9.08,0.03,0.68,-0.93,-2.40,10.60,-18.75,1100,1100,1100,1100,1056,1500,1521,11279,772
27941,0,2.91,2.85,0.65,-0.130,-0.045,1.099,0.00,0.00,0.00,4.20,-2.91,1.35,0.03,0.70,-1.16,-2.16,-3.82,-21.68,1100,1100,1100,1100,1056,1500,1521,11274,772
27953,0,4.48,-1.10,-0.68,-0.121,-0.060,1.079,0.00,0.00,0.00,4.80,-4.48,5.90,0.02,0.71,-1.23,-4.00,3.78,0.48,1100,1100,1100,1100,1030,1500,1524,11295,772
27965,0,4.59,3.61,-0.51,-0.104,-0.052,1.068,0.00,0.00,0.00,4.80,-4.59,1.19,0.01,0.72,-1.23,-4.04,-2.65,0.04,1100,1100,1100,1100,1030,1500,1524,11304,772
27978,0,2.50,0.51,-0.55,-0.103,-0.048,1.074,0.00,0.00,0.00,4.20,-2.50,3.69,0.00,0.73,-1.20,-0.17,2.42,0.17,1100,1100,1100,1100,1033,1500,1521,11312,772
27989,0,5.42,3.30,-0.69,-0.119,-0.051,1.127,0.00,0.00,0.00,4.80,-5.42,1.50,-0.01,0.73,-1.18,-4.51,-0.39,0.53,1100,1100,1100,1100,1030,1500,1524,11320,772
28001,0,2.55,-0.56,0.26,-0.123,-0.060,1.078,0.00,0.00,0.00,4.80,-2.55,5.36,-0.02,0.74,-1.18,0.14,4.70,-1.82,1100,1100,1100,1100,1030,1500,1524,11320,772
28013,0,2.02,3.67,-0.48,-0.120,-0.018,1.112,0.00,0.00,0.00,0.00,-2.02,-3.67,-0.02,0.74,-1.17,0.61,-4.21,0.04,1100,1100,1100,1100,1041,1496,1517,11254,769
28025,0,1.93,6.04,-0.33,-0.122,-0.010,1.093,0.00,0.00,0.00,0.00,-1.93,-6.04,-0.02,0.74,-1.17,-0.87,-7.35,-0.34,1100,1100,1100,1100,1041,1499,1517,11262,769
28038,0,-2.13,3.88,-0.22,-0.110,-0.008,1.097,0.00,0.00,0.00,4.40,2.13,0.52,-0.02,0.74,-1.16,4.28,-0.45,-0.60,1100,1100,1100,1100,1051,1499,1522,11270,769
28049,0,-1.66,2.26,-0.03,-0.098,-0.020,1.104,0.00,0.00,0.00,4.40,1.66,2.14,-0.01,0.73,-1.15,2.22,3.54,-1.07,1100,1100,1100,1100,1033,1499,1522,11249,769
28061,0,-6.22,5.72,-0.72,-0.117,-0.052,1.083,0.00,0.00,0.00,4.40,6.22,-1.32,-0.00,0.73,-1.13,8.28,-1.46,0.68,1100,1100,1100,1100,1033,1499,1522,11274,769
28073,0,-3.55,1.54,-0.80,-0.077,-0.064,1.053,0.00,0.00,0.00,4.40,3.55,2.86,0.00,0.73,-1.12,3.83,4.54,0.88,1100,1100,1100,1100,1033,1500,1522,11283,769
28085,0,1.38,-0.57,0.42,-0.080,-0.075,1.022,0.00,0.00,0.00,4.40,-1.38,4.97,0.01,0.74,-1.13,-4.74,7.52,-2.17,1100,1100,1100,1100,1033,1499,1522,11274,769
28098,0,-2.34,2.13,0.75,-0.072,-0.026,1.062,0.00,0.00,0.00,4.20,2.34,2.07,0.01,0.75,-1.15,1.54,0.83,-3.02,1100,1100,1100,1100,1033,1499,1521,11274,769
28109,0,-1.53,-5.24,0.08,-0.037,-0.045,1.037,0.00,0.00,0.00,0.00,1.53,5.24,0.01,0.76,-1.15,0.40,10.10,-1.36,1100,1100,1100,1100,1034,1500,1520,11258,769
28121,0,-1.94,0.14,-0.45,0.016,-0.064,0.987,0.00,0.00,0.00,0.00,1.94,-0.14,0.02,0.76,-1.15,0.91,1.02,-0.03,1100,1100,1100,1100,1034,1500,1520,11266,769
28133,0,1.18,-1.87,-0.16,0.029,-0.050,0.974,0.00,0.00,0.00,0.00,-1.18,1.87,0.02,0.77,-1.14,-3.22,2.87,-0.73,1100,1100,1100,1100,1034,1500,1520,11274,769
28145,0,2.73,-2.53,0.38,0.017,-0.079,0.991,0.00,0.00,0.00,0.00,-2.73,2.53,0.02,0.77,-1.14,-5.53,4.04,-2.09,1100,1100,1100,1100,1034,1500,1520,11266,769
28157,0,-4.53,-1.93,0.17,-0.000,-0.044,1.013,0.00,0.00,0.00,0.00,4.53,1.93,0.02,0.78,-1.14,6.41,1.64,-1.56,1100,1100,1100,1100,1034,1500,1520,11291,769
28169,0,-0.07,-0.09,-1.02,-0.015,-0.058,1.037,0.00,0.00,0.00,0.00,0.07,0.09,0.02,0.77,-1.13,-0.37,0.36,1.42,1100,1100,1100,1100,1034,1500,1520,11279,769
28181,0,1.27,6.20,-0.23,-0.026,-0.034,1.034,0.00,0.00,0.00,0.00,-1.27,-6.20,0.02,0.77,-1.13,-2.61,-8.63,-0.55,1100,1100,1100,1100,1034,1500,1520,11287,769
28193,0,2.15,3.71,0.76,-0.049,-0.028,1.065,0.00,0.00,0.00,0.00,-2.15,-3.71,0.02,0.76,-1.12,-3.02,-3.01,-3.02,1100,1100,1100,1100,1034,1500,1520,11274,769
28205,0,2.81,7.74,0.26,-0.099,-0.029,1.126,0.00,0.00,0.00,0.00,-2.81,-7.74,0.02,0.74,-1.12,-4.11,-7.27,-1.76,1100,1100,1100,1100,1034,1500,1520,11295,769
28218,0,-4.57,5.97,-1.01,-0.101,-0.033,1.108,0.00,0.00,0.00,4.20,4.57,-1.77,0.02,0.74,-1.10,7.99,-1.77,1.42,1100,1100,1100,1100,1033,1500,1521,11308,771
28229,0,1.99,3.80,-1.43,-0.088,-0.063,1.085,0.00,0.00,0.00,0.00,-1.99,-3.80,0.01,0.73,-1.08,-2.82,1.56,2.48,1100,1100,1100,1100,1034,1500,1520,11283,771
28241,0,0.49,5.10,0.33,-0.089,-0.030,1.086,0.00,0.00,0.00,0.00,-0.49,-5.10,0.02,0.71,-1.08,-0.93,-0.88,-1.90,1100,1100,1100,1100,1034,1500,1520,11283,771
28253,0,1.32,1.12,0.57,-0.078,-0.019,1.089,0.00,0.00,0.00,0.00,-1.32,-1.12,0.01,0.71,-1.08,-1.84,4.06,-2.52,1100,1100,1100,1100,1034,1500,1520,11270,771
28265,0,1.85,2.76,0.17,-0.065,-0.037,1.083,0.00,0.00,0.00,0.00,-1.85,-2.76,0.02,0.70,-1.09,-2.92,0.38,-1.51,1100,1100,1100,1100,1034,1500,1520,11274,771
28278,0,-2.34,0.14,-1.52,-0.029,-0.036,1.058,0.00,0.00,0.00,0.00,2.34,-0.14,0.01,0.70,-1.06,4.27,3.16,2.74,1100,1100,1100,1100,1034,1500,1520,11266,771
28289,0,2.85,-2.80,-0.55,-0.004,-0.062,1.011,0.00,0.00,0.00,4.40,-2.85,7.20,0.01,0.70,-1.05,-3.88,9.50,0.33,1100,1100,1100,1100,1032,1500,1522,11274,771
28301,0,0.07,1.36,0.44,-0.025,-0.068,1.044,0.00,0.00,0.00,4.40,-0.07,3.04,0.01,0.72,-1.05,0.57,1.43,-2.15,1100,1100,1100,1100,1032,1500,1522,11287,771
28313,0,1.80,-4.64,0.79,0.040,-0.055,1.013,0.00,0.00,0.00,0.00,-1.80,4.64,0.01,0.73,-1.08,-1.66,7.78,-3.04,1100,1100,1100,1100,1034,1500,1520,11295,767
28325,0,1.46,-3.97,0.77,0.050,-0.074,0.993,0.00,0.00,0.00,0.00,-1.46,3.97,0.00,0.74,-1.09,-1.41,4.59,-3.01,1100,1100,1100,1100,1034,1499,1520,11295,767
28338,0,0.69,-3.39,-1.34,0.064,-0.087,0.994,0.00,0.00,0.00,4.20,-0.69,7.59,0.00,0.76,-1.07,0.36,3.95,2.28,1100,1100,1100,1100,1034,1499,1521,11291,767
28349,0,3.98,-6.42,0.88,0.072,-0.081,0.956,0.00,0.00,0.00,0.00,-3.98,6.42,-0.01,0.77,-1.08,-4.52,7.49,-3.27,1100,1100,1100,1100,1035,1499,1520,11304,767
28361,0,2.21,-1.89,0.44,0.043,-0.085,1.004,0.00,0.00,0.00,0.00,-2.21,1.89,-0.01,0.78,-1.08,-1.21,-0.26,-2.18,1100,1100,1100,1100,1035,1499,1520,11304,767
28373,0,0.93,-7.64,0.48,0.084,-0.077,0.967,0.00,0.00,0.00,0.00,-0.93,7.64,-0.02,0.80,-1.11,0.97,7.79,-2.30,1100,1100,1100,1100,1041,1498,1519,11308,767
28385,0,-0.92,-0.63,0.06,0.063,-0.082,0.963,0.00,0.00,0.00,0.00,0.92,0.63,-0.02,0.80,-1.11,3.22,-2.60,-1.27,1100,1100,1100,1100,1041,1500,1519,11304,767
28398,0,-0.70,0.12,-0.42,0.084,-0.077,0.969,0.00,0.00,0.00,4.40,0.70,4.28,-0.02,0.81,-1.12,2.23,-0.51,-0.06,1100,1100,1100,1100,1032,1500,1522,11291,767
28409,0,-0.85,0.10,1.37,0.101,-0.069,0.945,0.00,0.00,0.00,0.00,0.85,-0.10,-0.02,0.82,-1.13,1.79,-0.42,-4.57,1100,1100,1100,1100,1034,1500,1520,11274,769
28421,0,-0.26,5.25,-0.43,0.078,-0.058,0.991,0.00,0.00,0.00,0.00,0.26,-5.25,-0.01,0.81,-1.13,-0.03,-7.41,-0.07,1100,1100,1100,1100,1034,1500,1520,11279,769
28433,0,-1.91,-0.06,0.55,0.081,-0.048,0.969,0.00,0.00,0.00,0.00,1.91,0.06,-0.01,0.81,-1.14,2.28,1.33,-2.51,1100,1100,1100,1100,1035,1500,1519,11262,769
28445,0,-2.56,-1.11,-1.00,0.079,-0.062,0.976,0.00,0.00,0.00,0.00,2.56,1.11,-0.01,0.81,-1.12,3.05,3.86,1.39,1100,1100,1100,1100,1035,1500,1519,11287,769
28458,0,-2.55,3.04,-0.38,0.061,-0.082,0.983,0.00,0.00,0.00,0.00,2.55,-3.04,-0.00,0.80,-1.13,2.56,-2.04,-0.19,1100,1100,1100,1100,1035,1500,1519,11291,769
28469,0,0.11,8.06,1.30,0.045,-0.067,1.006,0.00,0.00,0.00,0.00,-0.11,-8.06,0.00,0.78,-1.13,-1.69,-8.78,-4.39,1100,1100,1100,1100,1035,1500,1519,11295,769
28481,0,1.95,3.18,0.51,0.082,-0.051,1.009,0.00,0.00,0.00,0.00,-1.95,-3.18,0.00,0.78,-1.15,-4.45,-0.64,-2.43,1100,1100,1100,1100,1035,1500,1519,11295,769
28493,0,-1.99,-1.58,-0.13,0.080,-0.058,0.978,0.00,0.00,0.00,0.00,1.99,1.58,0.01,0.78,-1.15,1.88,5.78,-0.83,1100,1100,1100,1100,1034,1500,1520,11291,769
28505,0,-2.18,-3.67,-1.34,0.103,-0.080,0.962,0.00,0.00,0.00,0.00,2.18,3.67,0.01,0.78,-1.13,2.67,7.75,2.21,1100,1100,1100,1100,1034,1500,1520,11291,769
28518,0,0.28,1.26,0.56,0.054,-0.090,0.966,0.00,0.00,0.00,4.40,-0.28,3.14,0.01,0.79,-1.14,-1.28,0.64,-2.54,1100,1100,1100,1100,1032,1500,1522,11274,773
28529,0,1.22,0.60,1.60,0.050,-0.065,0.956,0.00,0.00,0.00,0.00,-1.22,-0.60,0.01,0.80,-1.15,-2.58,-0.78,-5.15,1100,1100,1100,1100,1034,1500,1520,11274,773
28541,0,0.13,0.34,0.73,0.042,-0.059,0.992,0.00,0.00,0.00,0.00,-0.13,-0.34,0.01,0.81,-1.17,-0.75,-0.16,-3.00,1100,1100,1100,1100,1034,1500,1520,11274,773
28553,0,-1.86,-4.07,-0.50,0.087,-0.093,0.950,0.00,0.00,0.00,0.00,1.86,4.07,0.01,0.81,-1.17,2.39,6.76,0.09,1100,1100,1100,1100,1035,1500,1519,11274,773
28565,0,-1.44,-6.63,-0.67,0.129,-0.090,0.913,0.00,0.00,0.00,0.00,1.44,6.63,0.01,0.82,-1.18,1.91,9.31,0.49,1100,1100,1100,1100,1035,1502,1519,11270,773
28578,0,1.28,-3.42,1.14,0.101,-0.085,0.913,0.00,0.00,0.00,0.00,-1.28,3.42,0.01,0.83,-1.20,-2.40,2.18,-4.05,1100,1100,1100,1100,1036,1502,1514,11266,773
28589,0,0.40,-6.44,0.99,0.118,-0.046,0.900,0.00,0.00,0.00,0.00,-0.40,6.44,0.01,0.85,-1.21,-0.86,5.05,-3.68,1100,1100,1100,1100,1039,1499,1518,11274,773
28601,0,-1.06,-12.68,0.58,0.115,-0.069,0.894,0.00,0.00,0.00,0.00,1.06,12.68,0.01,0.87,-1.23,1.40,13.90,-2.69,1100,1100,1100,1100,1039,1499,1518,11291,773
28613,0,-2.98,-7.25,0.19,0.141,-0.111,0.884,0.00,0.00,0.00,0.00,2.98,7.25,0.02,0.89,-1.24,3.91,4.61,-1.72,1100,1100,1100,1100,1036,1499,1519,11299,802
28625,0,-1.50,-3.91,-0.21,0.116,-0.081,0.895,0.00,0.00,0.00,0.00,1.50,3.91,0.02,0.90,-1.25,1.47,-0.65,-0.74,1100,1100,1100,1100,1036,1499,1519,11291,802
28638,0,3.08,0.45,0.28,0.070,-0.062,0.935,0.00,0.00,0.00,0.00,-3.08,-0.45,0.02,0.90,-1.25,-5.98,-5.40,-1.96,1100,1100,1100,1100,1036,1499,1519,11320,802
28649,0,-1.62,-1.96,0.62,0.053,-0.014,0.955,0.00,0.00,0.00,4.20,1.62,6.16,0.02,0.92,-1.26,1.67,0.75,-2.80,1100,1100,1100,1100,1033,1500,1521,11320,802
28661,0,-4.50,-9.34,-0.28,0.056,-0.060,0.965,0.00,0.00,0.00,4.20,4.50,13.54,0.03,0.94,-1.25,5.81,13.13,-0.54,1100,1100,1100,1100,1033,1500,1521,11312,802
28673,0,-4.27,6.70,-0.57,0.005,-0.079,0.993,0.00,0.00,0.00,0.00,4.27,-6.70,0.04,0.94,-1.25,4.36,-12.96,0.17,1100,1100,1100,1100,1036,1500,1518,11308,802
28685,0,-1.54,3.90,0.59,0.017,-0.067,0.993,0.00,0.00,0.00,0.00,1.54,-3.90,0.04,0.93,-1.25,-0.15,-6.31,-2.74,1100,1100,1100,1100,1036,1500,1518,11299,802
28698,0,2.01,1.67,0.23,0.033,-0.062,1.006,0.00,0.00,0.00,0.00,-2.01,-1.67,0.04,0.93,-1.25,-5.97,-1.37,-1.82,1100,1100,1100,1100,1034,1500,1520,11304,802
28709,0,-5.43,-3.03,0.15,0.059,-0.036,0.971,0.00,0.00,0.00,0.00,5.43,3.03,0.05,0.93,-1.26,6.22,5.18,-1.63,1100,1100,1100,1100,1034,1500,1520,11287,764
28721,0,-1.68,-6.26,-0.20,0.092,-0.075,0.955,0.00,0.00,0.00,0.00,1.68,6.26,0.05,0.93,-1.26,0.90,10.82,-0.76,1100,1100,1100,1100,1034,1500,1520,11283,764
28733,0,-1.67,5.02,0.28,0.065,-0.080,0.960,0.00,0.00,0.00,0.00,1.67,-5.02,0.06,0.94,-1.27,0.47,-8.28,-1.96,1100,1100,1100,1100,1035,1500,1519,11254,764
28745,0,-1.50,3.85,0.08,0.045,-0.061,0.961,0.00,0.00,0.00,0.00,1.50,-3.85,0.06,0.94,-1.27,1.02,-6.15,-1.48,1100,1100,1100,1100,1035,1501,1519,11254,764
28757,0,2.56,2.77,0.34,0.041,-0.078,0.991,0.00,0.00,0.00,0.00,-2.56,-2.77,0.06,0.93,-1.27,-5.57,-2.06,-2.12,1100,1100,1100,1100,1034,1501,1520,11237,764
28769,0,-3.54,1.84,-0.47,0.034,-0.065,0.993,0.00,0.00,0.00,0.00,3.54,-1.84,0.06,0.93,-1.47,4.37,-0.73,-50.68,1100,1100,1100,1100,1092,1500,1520,11254,764
28781,0,-0.53,-4.35,-0.57,0.078,-0.076,0.979,0.00,0.00,0.00,0.00,0.53,4.35,0.06,0.92,-2.07,0.13,9.53,-51.03,1100,1100,1100,1100,1092,1500,1520,11258,764
28793,0,0.18,1.60,0.55,0.045,-0.061,0.964,0.00,0.00,0.00,0.00,-0.18,-1.60,0.07,0.92,-2.27,-1.41,-1.32,-3.65,1100,1100,1100,1100,1036,1500,1518,11274,764
28805,0,0.70,0.74,0.30,0.042,-0.055,0.987,0.00,0.00,0.00,0.00,-0.70,-0.74,0.06,0.93,-2.28,-1.25,-0.49,-3.01,1100,1100,1100,1100,1036,1500,1518,11283,764
28818,0,2.30,-2.26,0.59,0.013,-0.058,0.993,0.00,0.00,0.00,0.00,-2.30,2.26,0.06,0.93,-2.28,-4.14,3.62,-3.75,1100,1100,1100,1100,1036,1500,1518,11274,769
28829,0,-4.47,-1.29,-1.76,0.001,-0.078,1.000,0.00,0.00,0.00,0.00,4.47,1.29,0.07,0.93,-2.26,6.72,3.13,2.15,1100,1100,1100,1100,1041,1499,1518,11283,769
28841,0,-1.08,1.18,-0.28,0.015,-0.074,1.010,0.00,0.00,0.00,0.00,1.08,-1.18,0.07,0.92,-2.27,1.21,-0.31,-1.58,1100,1100,1100,1100,1041,1499,1518,11274,769
28853,0,-0.27,0.22,0.82,0.025,-0.069,0.959,0.00,0.00,0.00,0.00,0.27,-0.22,0.07,0.93,-2.27,-0.66,0.62,-4.30,1100,1100,1100,1100,1035,1500,1519,11274,769
28865,0,0.22,-0.98,0.88,0.058,-0.044,0.977,0.00,0.00,0.00,0.00,-0.22,0.98,0.07,0.93,-2.27,-1.04,1.74,-4.46,1100,1100,1100,1100,1035,1499,1519,11270,769
28877,0,-0.28,-7.80,0.31,0.048,-0.073,0.956,0.00,0.00,0.00,0.00,0.28,7.80,0.07,0.94,-2.28,-0.26,11.42,-3.06,1100,1100,1100,1100,1036,1499,1518,11254,769
28889,0,-2.88,-2.37,-1.15,0.060,-0.097,0.972,0.00,0.00,0.00,0.00,2.88,2.37,0.08,0.95,-2.28,3.70,1.89,0.59,1100,1100,1100,1100,1037,1499,1518,11266,769
28901,0,-0.28,-3.03,0.85,0.085,-0.094,0.930,0.00,0.00,0.00,0.00,0.28,3.03,0.08,0.96,-2.30,-0.36,2.57,-4.41,1100,1100,1100,1100,1037,1499,1518,11283,769
28913,0,-0.06,-2.06,0.28,0.093,-0.105,0.921,0.00,0.00,0.00,0.00,0.06,2.06,0.08,0.96,-2.30,-1.16,0.92,-3.01,1100,1100,1100,1100,1036,1499,1520,11274,769
28925,0,-1.35,-7.68,0.62,0.114,-0.063,0.930,0.00,0.00,0.00,0.00,1.35,7.68,0.08,0.98,-2.31,1.35,8.12,-3.86,1100,1100,1100,1100,1036,1500,1520,11274,769
28937,0,-0.22,-5.09,-0.31,0.066,-0.091,0.935,0.00,0.00,0.00,0.00,0.22,5.09,0.08,0.99,-2.30,-0.36,4.48,-1.52,1100,1100,1100,1100,1037,1500,1518,11262,769
28949,0,-2.13,0.09,-0.33,0.056,-0.099,0.959,0.00,0.00,0.00,0.00,2.13,-0.09,0.08,0.99,-2.31,3.05,-3.01,-1.50,1100,1100,1100,1100,1037,1500,1518,11279,769
28961,0,2.59,1.93,0.50,0.013,-0.065,0.967,0.00,0.00,0.00,0.00,-2.59,-1.93,0.08,1.00,-2.31,-4.13,-5.54,-3.56,1100,1100,1100,1100,1037,1500,1518,11283,769
28973,0,2.15,-1.66,-0.46,0.002,-0.052,0.978,0.00,0.00,0.00,0.00,-2.15,1.66,0.08,1.00,-2.31,-3.46,1.73,-1.15,1100,1100,1100,1100,1036,1500,1519,11279,769
28986,0,-1.09,0.16,-0.27,-0.035,-0.030,1.031,0.00,0.00,0.00,0.00,1.09,-0.16,0.08,1.00,-2.30,2.03,-0.66,-1.63,1100,1100,1100,1100,1036,1499,1519,11279,769
28997,0,-0.74,0.63,-0.76,-0.048,-0.067,1.033,0.00,0.00,0.00,0.00,0.74,-0.63,0.08,0.99,-2.28,1.16,0.48,-0.38,1100,1100,1100,1100,1036,1499,1519,11291,769
29009,0,-2.44,5.41,0.08,-0.052,-0.056,1.052,0.00,0.00,0.00,0.00,2.44,-5.41,0.08,0.98,-2.29,3.78,-5.92,-2.48,1100,1100,1100,1100,1037,1500,1517,11283,767
29021,0,1.95,2.74,-0.08,-0.069,-0.038,1.040,0.00,0.00,0.00,0.00,-1.95,-2.74,0.08,0.98,-2.28,-3.20,-1.69,-2.09,1100,1100,1100,1100,1037,1500,1517,11287,767
29033,0,0.28,2.56,-0.66,-0.110,-0.053,1.060,0.00,0.00,0.00,0.00,-0.28,-2.56,0.09,0.97,-2.28,-1.04,-0.75,-0.63,1100,1100,1100,1100,1035,1500,1519,11262,767
29045,0,-0.24,3.87,-0.31,-0.136,-0.052,1.113,0.00,0.00,0.00,0.00,0.24,-3.87,0.08,0.96,-2.26,0.45,-1.74,-1.48,1100,1100,1100,1100,1035,1500,1519,11254,767
29057,0,-0.83,1.27,-0.28,-0.117,-0.067,1.050,0.00,0.00,0.00,0.00,0.83,-1.27,0.08,0.95,-2.25,1.65,3.04,-1.54,1100,1100,1100,1100,1037,1500,1517,11262,767
29069,0,-0.03,4.41,-0.05,-0.117,-0.060,1.083,0.00,0.00,0.00,0.00,0.03,-4.41,0.08,0.95,-2.25,0.43,-3.42,-2.13,1100,1100,1100,1100,1037,1500,1518,11274,767
29081,0,3.92,6.61,-0.06,-0.153,-0.045,1.112,0.00,0.00,0.00,0.00,-3.92,-6.61,0.08,0.94,-2.24,-5.54,-6.21,-2.08,1100,1100,1100,1100,1037,1500,1518,11274,767
29093,0,2.82,3.69,-0.13,-0.175,-0.039,1.123,0.00,0.00,0.00,0.00,-2.82,-3.69,0.08,0.93,-2.22,-3.74,-0.64,-1.91,1100,1100,1100,1100,1036,1500,1520,11291,767
29105,0,-1.08,1.66,-0.92,-0.160,-0.039,1.126,0.00,0.00,0.00,0.00,1.08,-1.66,0.08,0.92,-2.20,2.94,3.02,0.11,1100,1100,1100,1100,1036,1500,1520,11295,767
29118,0,-1.03,2.12,-0.17,-0.152,-0.053,1.076,0.00,0.00,0.00,0.00,1.03,-2.12,0.07,0.91,-2.20,2.83,2.19,-1.77,1100,1100,1100,1100,1038,1500,1517,11291,767
29129,0,0.34,6.02,-0.73,-0.175,-0.061,1.112,0.00,0.00,0.00,0.00,-0.34,-6.02,0.07,0.90,-2.19,0.46,-4.43,-0.35,1100,1100,1100,1100,1036,1499,1518,11287,767
29141,0,3.64,8.71,0.19,-0.193,-0.029,1.142,0.00,0.00,0.00,0.00,-3.64,-8.71,0.07,0.89,-2.19,-4.90,-8.58,-2.67,1100,1100,1100,1100,1036,1499,1518,11279,767
29153,0,1.45,1.84,0.07,-0.194,-0.027,1.130,0.00,0.00,0.00,0.00,-1.45,-1.84,0.07,0.88,-2.17,-1.41,3.32,-2.34,1100,1100,1100,1100,1037,1499,1518,11279,767
29165,0,-2.04,-0.30,-0.89,-0.140,-0.050,1.105,0.00,0.00,0.00,0.00,2.04,0.30,0.07,0.87,-2.16,4.29,6.16,0.08,1100,1100,1100,1100,1037,1499,1518,11279,767
29177,0,-1.08,-1.20,0.28,-0.127,-0.054,1.056,0.00,0.00,0.00,0.00,1.08,1.20,0.07,0.87,-2.16,2.36,5.57,-2.86,1100,1100,1100,1100,1037,1499,1518,11274,767
29189,0,1.16,2.62,-0.43,-0.106,-0.051,1.084,0.00,0.00,0.00,4.40,-1.16,1.78,0.07,0.87,-2.16,-1.45,0.60,-1.09,1100,1100,1100,1100,1034,1500,1522,11295,767
29201,0,1.17,1.48,-0.05,-0.123,-0.047,1.073,0.00,0.00,0.00,4.40,-1.17,2.92,0.07,0.89,-2.15,-1.69,1.36,-2.02,1100,1100,1100,1100,1034,1500,1522,11299,767
29213,0,1.50,-0.97,-0.50,-0.083,-0.061,1.047,0.00,0.00,0.00,0.00,-1.50,0.97,0.06,0.88,-2.13,-1.97,4.47,-0.88,1100,1100,1100,1100,1037,1500,1517,11295,767
29225,0,-0.48,2.29,0.37,-0.058,-0.058,1.052,0.00,0.00,0.00,0.00,0.48,-2.29,0.06,0.88,-2.15,1.28,-2.09,-3.06,1100,1100,1100,1100,1037,1500,1517,11287,767
29238,0,-0.04,-1.12,0.30,-0.028,-0.064,0.998,0.00,0.00,0.00,0.00,0.04,1.12,0.06,0.89,-2.14,0.74,2.39,-2.88,1100,1100,1100,1100,1037,1500,1517,11291,767
29249,0,1.66,-3.83,-0.71,0.015,-0.063,0.992,0.00,0.00,0.00,0.00,-1.66,3.83,0.06,0.90,-2.14,-1.72,5.25,-0.36,1100,1100,1100,1100,1037,1500,1517,11287,767
29261,0,1.82,-3.34,0.64,-0.009,-0.067,1.009,0.00,0.00,0.00,0.00,-1.82,3.34,0.05,0.90,-2.14,-1.58,4.26,-3.75,1100,1100,1100,1100,1037,1500,1517,11287,767
29273,0,1.32,-5.75,-0.42,0.025,-0.064,0.999,0.00,0.00,0.00,0.00,-1.32,5.75,0.05,0.91,-2.14,-0.75,6.85,-1.08,1100,1100,1100,1100,1035,1500,1519,11283,767
29285,0,1.79,-2.83,0.89,0.037,-0.068,0.984,0.00,0.00,0.00,0.00,-1.79,2.83,0.05,0.93,-2.16,-1.36,0.86,-4.39,1100,1100,1100,1100,1035,1500,1519,11291,767
29298,0,3.05,-3.17,0.53,0.045,-0.067,0.953,0.00,0.00,0.00,0.00,-3.05,3.17,0.04,0.94,-2.15,-3.02,0.31,-3.47,1100,1100,1100,1100,1037,1500,1517,11262,767
29309,0,3.10,-9.04,0.40,0.077,-0.049,0.963,0.00,0.00,0.00,0.00,-3.10,9.04,0.04,0.96,-2.16,-2.63,9.34,-3.17,1100,1100,1100,1100,1037,1499,1517,11270,766
29321,0,0.22,-8.77,-0.13,0.015,-0.064,0.966,0.00,0.00,0.00,0.00,-0.22,8.77,0.03,0.98,-2.17,1.91,6.78,-1.85,1100,1100,1100,1100,1037,1499,1517,11274,766
29333,0,0.10,-4.21,-0.82,0.012,-0.062,0.979,0.00,0.00,0.00,0.00,-0.10,4.21,0.03,0.99,-2.17,2.38,1.37,-0.12,1100,1100,1100,1100,1037,1500,1517,11287,766
29345,0,3.42,5.11,0.05,-0.040,-0.049,1.033,0.00,0.00,0.00,0.00,-3.42,-5.11,0.02,0.99,-2.17,-2.95,-12.21,-2.29,1100,1100,1100,1100,1037,1500,1517,11283,766
29358,0,0.21,-4.14,0.75,0.034,-0.031,0.970,0.00,0.00,0.00,0.00,-0.21,4.14,0.02,1.00,-2.18,1.60,3.42,-4.04,1100,1100,1100,1100,1037,1500,1517,11262,766
29369,0,0.01,-2.26,0.11,0.025,-0.020,0.989,0.00,0.00,0.00,0.00,-0.01,2.26,0.02,1.00,-2.17,0.77,2.20,-2.45,1100,1100,1100,1100,1038,1500,1518,11262,766
29381,0,-2.12,-6.78,-0.68,0.039,-0.053,0.963,0.00,0.00,0.00,0.00,2.12,6.78,0.03,1.01,-2.18,3.33,8.44,-0.48,1100,1100,1100,1100,1038,1500,1518,11279,766
29393,0,-2.97,-0.97,-0.31,0.040,-0.054,1.009,0.00,0.00,0.00,0.00,2.97,0.97,0.03,1.01,-2.17,4.28,-0.14,-1.40,1100,1100,1100,1100,1046,1500,1518,11291,766
29405,0,1.07,3.41,-0.43,0.005,-0.041,1.008,0.00,0.00,0.00,0.00,-1.07,-3.41,0.03,1.01,-2.17,-2.78,-6.40,-1.10,1100,1100,1100,1100,1046,1500,1518,11287,766
29418,0,-0.73,-1.03,1.29,0.016,-0.015,0.970,0.00,0.00,0.00,0.00,0.73,1.03,0.04,1.01,-2.18,-0.27,0.89,-5.40,1100,1100,1100,1100,1035,1500,1519,11283,769
29429,0,-2.29,0.03,0.44,-0.017,-0.041,1.009,0.00,0.00,0.00,0.00,2.29,-0.03,0.04,1.01,-2.19,2.11,0.75,-3.28,1100,1100,1100,1100,1038,1499,1517,11279,769
29441,0,-3.25,1.29,-0.41,-0.042,-0.055,1.015,0.00,0.00,0.00,0.00,3.25,-1.29,0.05,1.01,-2.20,2.99,-1.35,-1.16,1100,1100,1100,1100,1038,1499,1517,11287,769
29453,0,-2.80,1.30,-0.33,-0.054,-0.024,1.038,0.00,0.00,0.00,0.00,2.80,-1.30,0.05,1.00,-2.18,2.39,-0.33,-1.36,1100,1100,1100,1100,1038,1499,1517,11266,769
29465,0,-0.84,4.59,-1.42,-0.103,-0.043,1.048,0.00,0.00,0.00,0.00,0.84,-4.59,0.06,1.00,-2.17,-0.97,-4.87,1.38,1100,1100,1100,1100,1038,1500,1517,11274,769
29478,0,-1.47,3.22,0.79,-0.088,-0.024,1.033,0.00,0.00,0.00,0.00,1.47,-3.22,0.06,0.99,-2.16,0.29,-2.17,-4.14,1100,1100,1100,1100,1037,1500,1517,11283,769
29489,0,-0.20,0.85,-0.19,-0.100,-0.029,1.061,0.00,0.00,0.00,0.00,0.20,-0.85,0.06,0.99,-2.16,-1.70,1.82,-1.69,1100,1100,1100,1100,1037,1500,1517,11279,769
29501,0,-4.18,4.39,0.11,-0.102,-0.057,1.060,0.00,0.00,0.00,0.00,4.18,-4.39,0.07,0.98,-2.16,4.13,-3.26,-2.43,1100,1100,1100,1100,1037,1500,1517,11266,769
29513,0,-3.26,-1.20,-0.85,-0.036,-0.052,1.031,0.00,0.00,0.00,0.00,3.26,1.20,0.08,0.98,-2.14,3.13,5.48,-0.02,1100,1100,1100,1100,1037,1500,1517,11270,769
29525,0,0.48,1.12,-0.30,-0.044,-0.056,1.022,0.00,0.00,0.00,0.00,-0.48,-1.12,0.08,0.97,-2.15,-3.05,1.01,-1.41,1100,1100,1100,1100,1037,1500,1517,11270,769
29538,0,-2.58,-1.64,0.78,-0.032,-0.051,1.012,0.00,0.00,0.00,0.00,2.58,1.64,0.08,0.98,-2.16,2.36,3.92,-4.12,1100,1100,1100,1100,1037,1500,1517,11274,769
29549,0,0.48,-3.20,-0.26,-0.018,-0.067,1.013,0.00,0.00,0.00,0.00,-0.48,3.20,0.08,0.98,-2.16,-1.93,6.62,-1.51,1100,1100,1100,1100,1036,1500,1518,11274,769
29561,0,-1.19,1.96,0.62,-0.019,-0.093,1.007,0.00,0.00,0.00,0.00,1.19,-1.96,0.09,0.98,-2.16,0.66,-3.31,-3.70,1100,1100,1100,1100,1036,1500,1518,11279,769
29573,0,1.03,-2.64,-0.26,0.030,-0.075,0.974,0.00,0.00,0.00,0.00,-1.03,2.64,0.08,0.99,-2.15,-2.11,2.95,-1.50,1100,1100,1100,1100,1035,1500,1519,11279,769
29585,0,3.36,-2.01,0.45,0.005,-0.061,0.996,0.00,0.00,0.00,0.00,-3.36,2.01,0.08,1.00,-2.16,-5.67,2.15,-3.30,1100,1100,1100,1100,1035,1499,1519,11291,769
29598,0,-2.46,-8.35,-0.23,0.068,-0.056,0.951,0.00,0.00,0.00,0.00,2.46,8.35,0.08,1.01,-2.16,4.34,11.11,-1.58,1100,1100,1100,1100,1041,1499,1517,11279,769
29609,0,0.80,-8.02,-0.75,0.098,-0.067,0.957,0.00,0.00,0.00,0.00,-0.80,8.02,0.08,1.02,-2.16,-0.27,9.56,-0.30,1100,1100,1100,1100,1037,1500,1517,11291,765
29621,0,1.67,-1.79,0.24,0.098,-0.094,0.952,0.00,0.00,0.00,0.00,-1.67,1.79,0.08,1.03,-2.16,-1.83,-1.37,-2.75,1100,1100,1100,1100,1037,1500,1517,11304,765
29633,0,2.65,-2.41,0.47,0.147,-0.091,0.919,0.00,0.00,0.00,0.00,-2.65,2.41,0.07,1.05,-2.16,-2.65,-0.63,-3.33,1100,1100,1100,1100,1036,1499,1519,11279,765
29645,0,4.92,-3.23,0.73,0.114,-0.096,0.947,0.00,0.00,0.00,0.00,-4.92,3.23,0.07,1.05,-2.17,-6.49,1.27,-3.98,1100,1100,1100,1100,1036,1500,1519,11283,765
29658,0,-2.93,-7.85,-1.08,0.144,-0.084,0.915,0.00,0.00,0.00,0.00,2.93,7.85,0.07,1.07,-1.85,6.17,8.83,26.96,1100,1100,1100,1100,1037,1500,1517,11262,765
29669,0,1.00,-7.18,0.09,0.153,-0.098,0.929,0.00,0.00,0.00,0.00,-1.00,7.18,0.06,1.07,-1.55,0.32,8.24,23.44,1100,1100,1100,1100,1037,1499,1518,11237,765
29681,0,2.91,-0.62,0.57,0.131,-0.098,0.934,0.00,0.00,0.00,0.00,-2.91,0.62,0.06,1.08,-1.25,-3.25,-3.39,22.53,1100,1100,1100,1100,1037,1499,1518,11262,765
29693,0,2.42,-1.18,0.95,0.149,-0.055,0.928,0.00,0.00,0.00,0.00,-2.42,1.18,0.05,1.09,-1.16,-1.99,-2.45,-3.53,1100,1100,1100,1100,1037,1500,1518,11262,765
29705,0,2.36,-6.85,-0.01,0.145,-0.077,0.929,0.00,0.00,0.00,0.00,-2.36,6.85,0.05,1.10,-1.16,-2.27,7.47,-1.14,1100,1100,1100,1100,1037,1499,1518,11254,765
29718,0,-4.35,-7.43,-0.82,0.199,-0.079,0.875,0.00,0.00,0.00,0.00,4.35,7.43,0.05,1.11,-1.17,8.14,8.17,0.87,1100,1100,1100,1100,1036,1499,1519,11258,765
29729,0,0.77,-5.44,0.93,0.181,-0.093,0.919,0.00,0.00,0.00,0.00,-0.77,5.44,0.05,1.13,-1.18,-0.29,4.44,-3.52,1100,1100,1100,1100,1037,1499,1518,11249,765
29741,0,-0.59,1.36,0.53,0.178,-0.069,0.914,0.00,0.00,0.00,0.00,0.59,-1.36,0.06,1.13,-1.19,0.56,-5.05,-2.52,1100,1100,1100,1100,1037,1499,1518,11245,765
29753,0,-1.59,-2.71,0.58,0.185,-0.058,0.896,0.00,0.00,0.00,0.00,1.59,2.71,0.06,1.13,-1.21,2.32,2.01,-2.65,1100,1100,1100,1100,1037,1500,1517,11274,765
29765,0,1.08,-4.23,-0.30,0.149,-0.085,0.919,0.00,0.00,0.00,0.00,-1.08,4.23,0.06,1.14,-1.21,-2.62,4.80,-0.46,1100,1100,1100,1100,1037,1500,1517,11262,765
29777,0,-3.43,1.03,-0.09,0.116,-0.077,0.931,0.00,0.00,0.00,0.00,3.43,-1.03,0.06,1.14,-1.22,4.41,-2.58,-1.00,1100,1100,1100,1100,1036,1500,1518,11287,765
29789,0,-0.63,0.19,0.11,0.068,-0.082,0.979,0.00,0.00,0.00,0.00,0.63,-0.19,0.07,1.14,-1.22,-0.20,-0.08,-1.51,1100,1100,1100,1100,1037,1500,1517,11287,765
29801,0,-1.96,2.84,0.42,0.044,-0.069,0.962,0.00,0.00,0.00,0.00,1.96,-2.84,0.07,1.13,-1.23,1.31,-2.91,-2.28,1100,1100,1100,1100,1037,1500,1517,11304,765
29813,0,-3.31,0.54,0.15,0.040,-0.066,0.983,0.00,0.00,0.00,0.00,3.31,-0.54,0.07,1.13,-1.23,3.98,0.52,-1.60,1100,1100,1100,1100,1037,1500,1517,11287,769
29825,0,0.41,-0.92,-0.18,0.059,-0.067,0.978,0.00,0.00,0.00,0.00,-0.41,0.92,0.08,1.13,-1.23,-2.30,3.67,-0.79,1100,1100,1100,1100,1037,1500,1517,11283,769
29838,0,-4.03,-0.29,-0.35,0.066,-0.087,0.957,0.00,0.00,0.00,0.00,4.03,0.29,0.08,1.13,-1.23,4.80,1.32,-0.35,1100,1100,1100,1100,1036,1500,1518,11291,769
29849,0,0.34,-1.50,0.19,0.075,-0.080,0.954,0.00,0.00,0.00,0.00,-0.34,1.50,0.08,1.14,-1.23,-1.91,2.47,-1.71,1100,1100,1100,1100,1037,1500,1517,11274,769
29861,0,0.27,2.67,1.33,0.064,-0.057,0.958,0.00,0.00,0.00,0.00,-0.27,-2.67,0.09,1.14,-1.25,-2.01,-4.42,-4.58,1100,1100,1100,1100,1037,1500,1517,11274,769
29873,0,-0.58,-4.49,0.78,0.093,-0.044,0.954,0.00,0.00,0.00,0.00,0.58,4.49,0.09,1.15,-1.26,-0.04,6.07,-3.22,1100,1100,1100,1100,1036,1500,1518,11266,769
29885,0,-2.51,-7.59,-0.31,0.093,-0.075,0.928,0.00,0.00,0.00,0.00,2.51,7.59,0.09,1.16,-1.27,2.52,10.54,-0.50,1100,1100,1100,1100,1036,1500,1518,11262,769
29897,0,-3.99,0.67,-1.39,0.067,-0.086,0.961,0.00,0.00,0.00,0.00,3.99,-0.67,0.10,1.15,-1.25,4.74,-1.80,2.23,1100,1100,1100,1100,1036,1500,1519,11258,769
29909,0,1.72,4.29,0.69,0.054,-0.056,0.967,0.00,0.00,0.00,4.40,-1.72,0.11,0.10,1.15,-1.26,-4.25,-4.55,-2.99,1100,1100,1100,1100,1034,1500,1522,11279,773
29921,0,-1.07,0.26,0.91,0.052,-0.067,0.965,0.00,0.00,0.00,4.40,1.07,4.14,0.10,1.16,-1.27,-0.11,2.56,-3.54,1100,1100,1100,1100,1034,1500,1522,11274,773
29933,0,-3.47,-4.60,-0.01,0.067,-0.053,0.973,0.00,0.00,0.00,0.00,3.47,4.60,0.11,1.17,-1.28,3.80,7.90,-1.25,1100,1100,1100,1100,1036,1500,1518,11270,773
29945,0,-3.61,-2.12,-0.73,0.037,-0.095,0.967,0.00,0.00,0.00,0.00,3.61,2.12,0.11,1.17,-1.27,3.43,4.18,0.55,1100,1100,1100,1100,1036,1500,1518,11274,773
29958,0,-2.07,3.49,-0.96,0.039,-0.102,0.984,0.00,0.00,0.00,0.00,2.07,-3.49,0.12,1.17,-1.25,1.42,-4.98,1.14,1100,1100,1100,1100,1036,1500,1518,11254,773
29969,0,3.91,0.92,1.39,0.027,-0.076,0.950,0.00,0.00,0.00,0.00,-3.91,-0.92,0.11,1.17,-1.26,-7.58,-0.70,-4.74,1100,1100,1100,1100,1037,1500,1518,11220,773
29981,0,0.74,-1.53,0.05,-0.010,-0.062,1.004,0.00,0.00,0.00,0.00,-0.74,1.53,0.12,1.18,-1.27,-1.96,3.10,-1.38,1100,1100,1100,1100,1037,1500,1518,11224,773
29993,0,-1.41,-1.61,-0.20,-0.018,-0.049,1.031,0.00,0.00,0.00,0.00,1.41,1.61,0.11,1.18,-1.28,2.50,3.29,-0.77,1100,1100,1100,1100,1037,1499,1518,11220,773
30005,0,-0.07,-2.05,-0.66,-0.039,-0.080,1.019,0.00,0.00,0.00,0.00,0.07,2.05,0.11,1.17,-1.26,0.36,4.71,0.39,1100,1100,1100,1100,1037,1495,1518,11220,773
30018,0,-1.61,3.14,-0.29,-0.043,-0.069,1.026,0.00,0.00,0.00,0.00,1.61,-3.14,0.11,1.17,-1.25,2.80,-3.97,-0.53,1100,1100,1100,1100,1038,1495,1516,11249,769
30029,0,3.32,2.34,0.71,-0.064,-0.038,1.015,0.00,0.00,0.00,4.20,-3.32,1.86,0.11,1.18,-1.25,-4.94,-0.68,-3.02,1100,1100,1100,1100,1033,1500,1521,11241,769
30041,0,1.23,2.71,-0.27,-0.088,-0.032,1.061,0.00,0.00,0.00,4.20,-1.23,1.49,0.11,1.18,-1.26,-1.80,-0.07,-0.58,1100,1100,1100,1100,1033,1500,1521,11233,769
30053,0,-2.06,3.04,0.19,-0.086,-0.043,1.074,0.00,0.00,0.00,0.00,2.06,-3.04,0.11,1.17,-1.26,3.39,-1.08,-1.75,1100,1100,1100,1100,1037,1500,1517,11241,769
30065,0,-2.17,7.39,-0.88,-0.106,-0.070,1.087,0.00,0.00,0.00,0.00,2.17,-7.39,0.12,1.16,-1.24,2.89,-6.43,0.96,1100,1100,1100,1100,1037,1500,1517,11233,769
30078,0,-0.91,7.88,0.36,-0.102,-0.057,1.092,0.00,0.00,0.00,0.00,0.91,-7.88,0.12,1.14,-1.24,0.61,-6.41,-2.14,1100,1100,1100,1100,1037,1500,1517,11258,769
30089,0,1.91,-0.04,0.24,-0.093,-0.055,1.067,0.00,0.00,0.00,0.00,-1.91,0.04,0.12,1.14,-1.33,-3.54,4.87,-23.52,1100,1100,1100,1100,1063,1500,1517,11254,769
30101,0,0.03,-1.16,-0.84,-0.092,-0.053,1.066,0.00,0.00,0.00,0.00,-0.03,1.16,0.12,1.14,-1.58,-0.66,5.68,-21.08,1100,1100,1100,1100,1063,1500,1517,11254,769
30113,0,-2.40,-3.29,-0.52,-0.052,-0.085,1.061,0.00,0.00,0.00,0.00,2.40,3.29,0.12,1.14,-1.66,4.10,7.87,-0.37,1100,1100,1100,1100,1037,1500,1517,11254,768
30125,0,0.55,2.09,-0.57,-0.075,-0.089,1.049,0.00,0.00,0.00,0.00,-0.55,-2.09,0.12,1.14,-1.64,-0.49,-1.23,-0.21,1100,1100,1100,1100,1037,1500,1517,11270,768
30138,0,2.99,8.31,0.46,-0.110,-0.045,1.079,0.00,0.00,0.00,4.20,-2.99,-4.11,0.11,1.15,-1.64,-4.04,-9.36,-2.79,1100,1100,1100,1100,1033,1500,1521,11249,768
30149,0,5.53,2.19,0.40,-0.108,-0.033,1.082,0.00,0.00,0.00,0.00,-5.53,-2.19,0.11,1.15,-1.64,-7.29,0.05,-2.64,1100,1100,1100,1100,1036,1500,1518,11249,768
30161,0,1.34,0.31,-0.35,-0.121,-0.036,1.090,0.00,0.00,0.00,0.00,-1.34,-0.31,0.10,1.14,-1.64,-0.45,3.42,-0.77,1100,1100,1100,1100,1036,1500,1518,11245,768
30173,0,-0.73,-1.75,-1.44,-0.091,-0.047,1.081,0.00,0.00,0.00,4.80,0.73,6.55,0.10,1.14,-1.62,3.42,8.78,1.99,1100,1100,1100,1100,1030,1500,1524,11274,768
30185,0,0.65,0.48,-0.45,-0.083,-0.047,1.046,0.00,0.00,0.00,4.80,-0.65,4.32,0.10,1.15,-1.61,1.12,3.96,-0.48,1100,1100,1100,1100,1030,1500,1524,11274,768
30197,0,2.16,4.02,0.10,-0.105,-0.043,1.074,0.00,0.00,0.00,0.00,-2.16,-4.02,0.09,1.15,-1.59,-1.35,-3.59,-1.84,1100,1100,1100,1100,1036,1500,1518,11283,768
30209,0,4.16,5.59,0.24,-0.122,-0.036,1.097,0.00,0.00,0.00,0.00,-4.16,-5.59,0.08,1.14,-1.60,-4.44,-4.51,-2.20,1100,1100,1100,1100,1037,1500,1517,11274,768
30221,0,1.43,0.70,0.05,-0.093,-0.049,1.094,0.00,0.00,0.00,0.00,-1.43,-0.70,0.08,1.13,-1.60,-0.18,3.49,-1.73,1100,1100,1100,1100,1037,1500,1517,11270,768
30233,0,0.14,2.14,-1.02,-0.051,-0.034,1.078,0.00,0.00,0.00,0.00,-0.14,-2.14,0.08,1.13,-1.58,2.17,0.98,0.97,1100,1100,1100,1100,1037,1500,1517,11266,768
30245,0,1.15,2.02,0.42,-0.019,-0.051,1.044,0.00,0.00,0.00,0.00,-1.15,-2.02,0.07,1.12,-1.58,0.61,0.74,-2.64,1100,1100,1100,1100,1037,1499,1517,11274,768
30258,0,3.12,1.02,0.08,0.001,-0.042,1.033,0.00,0.00,0.00,0.00,-3.12,-1.02,0.07,1.12,-1.58,-2.62,1.69,-1.80,1100,1100,1100,1100,1037,1499,1518,11266,768
30269,0,2.93,2.13,1.22,-0.009,-0.049,1.040,0.00,0.00,0.00,4.40,-2.93,2.27,0.06,1.12,-1.60,-2.40,0.96,-4.66,1100,1100,1100,1100,1033,1499,1522,11274,768
30281,0,0.54,3.22,-0.93,-0.027,-0.050,1.083,0.00,0.00,0.00,4.40,-0.54,1.18,0.06,1.13,-1.58,1.16,-0.34,0.73,1100,1100,1100,1100,1033,1499,1522,11262,768
30293,0,-0.51,2.19,-1.07,0.004,-0.050,1.035,0.00,0.00,0.00,0.00,0.51,-2.19,0.06,1.12,-1.58,2.70,1.04,1.09,1100,1100,1100,1100,1038,1500,1516,11254,768
30305,0,2.14,3.28,0.53,-0.008,-0.048,1.049,0.00,0.00,0.00,0.00,-2.14,-3.28,0.05,1.11,-1.58,-1.62,-0.89,-2.91,1100,1100,1100,1100,1038,1500,1516,11262,768
30318,0,1.73,1.93,-0.25,-0.009,-0.038,1.052,0.00,0.00,0.00,0.00,-1.73,-1.93,0.05,1.11,-1.58,-1.31,1.29,-0.96,1100,1100,1100,1100,1037,1500,1517,11254,769
30329,0,0.20,5.02,0.75,-0.023,-0.057,1.046,0.00,0.00,0.00,0.00,-0.20,-5.02,0.05,1.10,-1.58,1.03,-3.23,-3.46,1100,1100,1100,1100,1034,1500,1520,11249,769
30341,0,-0.50,1.04,-0.67,0.021,-0.075,1.061,0.00,0.00,0.00,0.00,0.50,-1.04,0.05,1.10,-1.56,1.85,2.08,0.12,1100,1100,1100,1100,1034,1500,1520,11254,769
30353,0,-0.74,-2.23,-0.41,0.048,-0.075,0.984,0.00,0.00,0.00,0.00,0.74,2.23,0.05,1.10,-1.57,1.80,6.74,-0.55,1100,1100,1100,1100,1037,1500,1517,11266,769
30365,0,1.66,1.60,-0.47,0.040,-0.076,1.000,0.00,0.00,0.00,0.00,-1.66,-1.60,0.05,1.09,-1.56,-2.15,0.43,-0.40,1100,1100,1100,1100,1037,1500,1517,11249,769
30377,0,2.45,0.53,0.10,0.066,-0.057,1.005,0.00,0.00,0.00,0.00,-2.45,-0.53,0.05,1.09,-1.57,-3.49,1.35,-1.82,1100,1100,1100,1100,1037,1500,1517,11229,769
30390,0,0.18,-3.95,1.04,0.113,-0.066,0.960,0.00,0.00,0.00,0.00,-0.18,3.95,0.05,1.10,-1.56,0.48,7.10,-4.15,1100,1100,1100,1100,1039,1500,1518,11229,769
30401,0,-2.30,-2.44,-0.85,0.131,-0.068,0.959,0.00,0.00,0.00,0.00,2.30,2.44,0.05,1.10,-1.56,4.35,3.74,0.58,1100,1100,1100,1100,1039,1500,1518,11237,769
30413,0,-1.67,-4.76,0.03,0.147,-0.099,0.899,0.00,0.00,0.00,4.20,1.67,8.96,0.05,1.11,-1.57,3.20,9.01,-1.64,1100,1100,1100,1100,1033,1500,1521,11229,772
30425,0,2.27,-4.28,0.07,0.166,-0.085,0.906,0.00,0.00,0.00,4.20,-2.27,8.48,0.04,1.13,-1.57,-3.25,7.37,-1.75,1100,1100,1100,1100,1033,1500,1521,11237,772
30438,0,2.22,1.09,0.86,0.111,-0.052,0.960,0.00,0.00,0.00,4.20,-2.22,3.11,0.04,1.15,-1.59,-3.51,-2.41,-3.73,1100,1100,1100,1100,1033,1500,1521,11237,772
30449,0,-0.81,-4.98,0.80,0.150,-0.053,0.900,0.00,0.00,0.00,0.00,0.81,4.98,0.05,1.17,-1.59,1.41,5.41,-3.59,1100,1100,1100,1100,1037,1499,1517,11237,772
30461,0,-0.92,-4.00,-0.54,0.128,-0.064,0.923,0.00,0.00,0.00,0.00,0.92,4.00,0.05,1.17,-1.59,1.56,4.50,-0.24,1100,1100,1100,1100,1037,1499,1517,11254,772
30473,0,-2.33,-1.98,-0.37,0.074,-0.080,0.933,0.00,0.00,0.00,0.00,2.33,1.98,0.05,1.17,-1.59,3.65,1.71,-0.67,1100,1100,1100,1100,1035,1500,1520,11254,772
30485,0,-0.66,-0.52,-0.55,0.055,-0.058,0.965,0.00,0.00,0.00,0.00,0.66,0.52,0.05,1.17,-1.58,0.87,0.28,-0.20,1100,1100,1100,1100,1035,1500,1520,11249,772
30497,0,0.74,2.13,0.27,0.012,-0.051,0.993,0.00,0.00,0.00,0.00,-0.74,-2.13,0.05,1.17,-1.58,-1.45,-3.62,-2.26,1100,1100,1100,1100,1038,1500,1517,11237,772
30509,0,1.66,-3.44,0.41,0.052,-0.014,0.959,0.00,0.00,0.00,0.00,-1.66,3.44,0.05,1.18,-1.58,-2.71,5.01,-2.60,1100,1100,1100,1100,1036,1499,1518,11262,767
30521,0,0.86,-2.57,-0.25,0.017,-0.025,1.011,0.00,0.00,0.00,0.00,-0.86,2.57,0.05,1.19,-1.58,-1.23,3.40,-0.96,1100,1100,1100,1100,1036,1499,1518,11266,767
30533,0,-2.33,1.70,-0.17,-0.012,-0.037,1.031,0.00,0.00,0.00,0.00,2.33,-1.70,0.05,1.18,-1.58,3.85,-2.59,-1.17,1100,1100,1100,1100,1035,1499,1520,11274,767
30545,0,-0.69,6.61,-0.78,-0.043,-0.020,1.049,0.00,0.00,0.00,0.00,0.69,-6.61,0.05,1.17,-1.56,1.46,-7.83,0.40,1100,1100,1100,1100,1035,1500,1520,11254,767
30558,0,3.25,6.51,-0.62,-0.078,-0.033,1.065,0.00,0.00,0.00,0.00,-3.25,-6.51,0.04,1.16,-1.55,-5.00,-5.70,0.00,1100,1100,1100,1100,1036,1500,1519,11270,767
30569,0,-0.21,7.32,0.50,-0.075,-0.016,1.093,0.00,0.00,0.00,0.00,0.21,-7.32,0.04,1.14,-1.55,0.78,-5.92,-2.80,1100,1100,1100,1100,1035,1500,1519,11274,767
30581,0,0.24,2.67,0.30,-0.075,-0.031,1.094,0.00,0.00,0.00,0.00,-0.24,-2.67,0.05,1.13,-1.55,-0.45,2.52,-2.30,1100,1100,1100,1100,1035,1500,1519,11279,767
30593,0,-4.59,2.73,-0.75,-0.030,-0.038,1.030,0.00,0.00,0.00,0.00,4.59,-2.73,0.05,1.12,-1.55,6.81,2.93,0.32,1100,1100,1100,1100,1037,1500,1517,11279,767
30605,0,-1.27,4.43,-0.92,-0.062,-0.050,1.061,0.00,0.00,0.00,0.00,1.27,-4.43,0.05,1.10,-1.53,1.88,0.02,0.76,1100,1100,1100,1100,1037,1491,1517,11274,767
30617,0,2.98,4.39,0.30,-0.088,-0.048,1.073,0.00,0.00,0.00,0.00,-2.98,-4.39,0.05,1.09,-1.53,-5.55,-0.03,-2.29,1100,1100,1100,1100,1037,1491,1517,11254,774
30629,0,0.18,8.28,0.80,-0.094,-0.005,1.109,0.00,0.00,0.00,0.00,-0.18,-8.28,0.05,1.08,-1.53,-0.49,-7.05,-3.53,1100,1100,1100,1100,1035,1500,1519,11254,774
30641,0,0.24,-2.89,-0.54,-0.035,-0.052,1.037,0.00,0.00,0.00,0.00,-0.24,2.89,0.05,1.08,-1.53,-0.65,10.62,-0.17,1100,1100,1100,1100,1035,1500,1519,11258,774
30653,0,-3.66,3.82,-0.65,-0.007,-0.058,1.013,0.00,0.00,0.00,0.00,3.66,-3.82,0.05,1.07,-1.53,5.30,-0.77,0.10,1100,1100,1100,1100,1035,1500,1519,11254,774
30665,0,-0.02,1.61,-0.16,-0.015,-0.055,1.040,0.00,0.00,0.00,0.00,0.02,-1.61,0.05,1.06,-1.53,-0.36,2.23,-1.12,1100,1100,1100,1100,1035,1500,1519,11237,774
30678,0,0.67,7.33,0.66,-0.022,-0.047,1.043,0.00,0.00,0.00,0.00,-0.67,-7.33,0.06,1.05,-1.52,-2.15,-5.96,-3.18,1100,1100,1100,1100,1037,1500,1517,11224,774
30689,0,-2.35,0.53,-0.05,0.010,-0.051,1.011,0.00,0.00,0.00,0.00,2.35,-0.53,0.06,1.05,-1.52,3.36,3.26,-1.40,1100,1100,1100,1100,1036,1500,1519,11241,774
30701,0,0.98,-5.53,-0.48,0.039,-0.075,0.975,0.00,0.00,0.00,0.00,-0.98,5.53,0.06,1.05,-1.52,-2.38,11.71,-0.31,1100,1100,1100,1100,1036,1500,1519,11245,774
30713,0,-3.65,0.66,0.14,0.017,-0.072,0.973,0.00,0.00,0.00,4.20,3.65,3.54,0.06,1.07,-1.52,4.75,1.55,-1.87,1100,1100,1100,1100,1034,1500,1521,11258,773
30725,0,0.96,0.60,0.06,0.005,-0.075,0.999,0.00,0.00,0.00,4.20,-0.96,3.60,0.06,1.08,-1.53,-2.22,1.39,-1.68,1100,1100,1100,1100,1034,1500,1521,11249,773
30738,0,0.67,1.00,0.68,0.006,-0.064,0.992,0.00,0.00,0.00,0.00,-0.67,-1.00,0.07,1.08,-1.54,-1.99,-0.53,-3.24,1100,1100,1100,1100,1035,1500,1519,11241,773
30749,0,-1.20,-2.71,-0.14,-0.006,-0.040,1.012,0.00,0.00,0.00,0.00,1.20,2.71,0.06,1.08,-1.54,1.67,4.80,-1.18,1100,1100,1100,1100,1035,1500,1519,11245,773
30761,0,-0.95,-3.24,-0.86,0.000,-0.071,0.995,0.00,0.00,0.00,0.00,0.95,3.24,0.07,1.08,-1.52,1.15,5.87,0.62,1100,1100,1100,1100,1035,1500,1519,11241,773
30773,0,1.22,6.60,0.51,-0.011,-0.063,1.029,0.00,0.00,0.00,4.40,-1.22,-2.20,0.06,1.08,-1.52,-1.88,-7.67,-2.80,1100,1100,1100,1100,1033,1500,1522,11233,773
30785,0,2.65,-1.33,0.85,0.017,-0.057,1.000,0.00,0.00,0.00,4.40,-2.65,5.73,0.06,1.10,-1.54,-3.63,4.47,-3.67,1100,1100,1100,1100,1033,1500,1522,11237,773
30798,0,-0.12,-2.58,0.57,0.040,-0.033,0.990,0.00,0.00,0.00,0.00,0.12,2.58,0.06,1.10,-1.54,0.09,4.96,-2.97,1100,1100,1100,1100,1037,1500,1518,11245,773
30809,0,-4.42,-3.52,-0.96,0.052,-0.046,0.981,0.00,0.00,0.00,0.00,4.42,3.52,0.07,1.10,-1.53,6.98,5.60,0.87,1100,1100,1100,1100,1037,1499,1518,11254,769
30821,0,-1.18,-3.89,0.07,0.059,-0.078,0.972,0.00,0.00,0.00,0.00,1.18,3.89,0.07,1.11,-1.54,1.07,6.12,-1.72,1100,1100,1100,1100,1037,1499,1518,11249,769
30833,0,-1.46,4.38,-0.41,0.047,-0.071,0.985,0.00,0.00,0.00,0.00,1.46,-4.38,0.07,1.11,-1.53,1.09,-7.07,-0.51,1100,1100,1100,1100,1036,1500,1518,11254,769
30845,0,2.12,3.03,0.51,0.017,-0.054,1.000,0.00,0.00,0.00,0.00,-2.12,-3.03,0.07,1.10,-1.53,-4.82,-3.71,-2.80,1100,1100,1100,1100,1036,1500,1518,11249,769
30858,0,-1.71,-1.40,-0.28,0.019,-0.057,0.998,0.00,0.00,0.00,0.00,1.71,1.40,0.08,1.10,-1.79,1.09,3.57,-23.60,1100,1100,1100,1100,1064,1500,1517,11241,769
30869,0,-5.39,-3.14,-0.71,0.026,-0.063,0.980,0.00,0.00,0.00,4.40,5.39,7.54,0.08,1.11,-1.97,7.23,8.41,-0.21,1100,1100,1100,1100,1032,1500,1522,11245,769
30881,0,-1.33,7.96,0.42,-0.029,-0.098,1.025,0.00,0.00,0.00,4.40,1.33,-3.56,0.09,1.10,-1.97,0.50,-7.74,-3.02,1100,1100,1100,1100,1032,1500,1522,11249,769
30893,0,1.55,5.72,-0.47,0.000,-0.060,1.024,0.00,0.00,0.00,0.00,-1.55,-5.72,0.09,1.10,-1.97,-3.96,-5.88,-0.79,1100,1100,1100,1100,1050,1500,1518,11237,769
30905,0,2.54,-0.27,0.83,-0.000,-0.037,1.007,0.00,0.00,0.00,0.00,-2.54,0.27,0.09,1.10,-1.96,-4.93,3.15,-4.04,1100,1100,1100,1100,1050,1500,1518,11233,769
30918,0,-2.81,-3.21,-1.07,0.004,-0.055,1.026,0.00,0.00,0.00,0.00,2.81,3.21,0.09,1.11,-1.94,3.54,7.11,0.73,1100,1100,1100,1100,1036,1500,1518,11229,769
30929,0,-5.41,-5.86,-0.28,0.059,-0.078,0.966,0.00,0.00,0.00,0.00,5.41,5.86,0.10,1.11,-1.96,7.69,10.85,-1.26,1100,1100,1100,1100,1036,1500,1518,11237,769
30941,0,0.02,3.91,0.75,0.034,-0.085,0.995,0.00,0.00,0.00,0.00,-0.02,-3.91,0.10,1.11,-1.97,-1.44,-5.80,-3.85,1100,1100,1100,1100,1036,1500,1518,11254,769
30953,0,0.27,2.01,0.16,0.054,-0.054,0.983,0.00,0.00,0.00,0.00,-0.27,-2.01,0.10,1.11,-1.97,-1.84,-2.09,-2.38,1100,1100,1100,1100,1036,1500,1518,11241,769
30965,0,-0.96,-1.12,0.16,0.043,-0.064,0.983,0.00,0.00,0.00,0.00,0.96,1.12,0.10,1.11,-1.96,0.13,2.39,-2.37,1100,1100,1100,1100,1036,1500,1518,11241,769
30978,0,-2.31,-0.26,-0.96,0.033,-0.068,1.002,0.00,0.00,0.00,0.00,2.31,0.26,0.11,1.11,-1.95,1.95,1.51,0.44,1100,1100,1100,1100,1036,1500,1518,11233,769
30989,0,-2.76,2.52,0.57,0.012,-0.066,1.000,0.00,0.00,0.00,0.00,2.76,-2.52,0.11,1.10,-1.97,2.59,-2.05,-3.40,1100,1100,1100,1100,1035,1500,1520,11249,769
31001,0,-0.86,5.86,0.14,-0.014,-0.063,1.016,0.00,0.00,0.00,0.00,0.86,-5.86,0.12,1.09,-1.97,-0.47,-6.09,-2.31,1100,1100,1100,1100,1035,1500,1520,11241,769
31013,0,1.08,2.69,-0.25,-0.070,-0.053,1.071,0.00,0.00,0.00,0.00,-1.08,-2.69,0.12,1.09,-1.97,-3.10,-0.29,-1.34,1100,1100,1100,1100,1037,1499,1517,11270,768
31025,0,0.33,5.10,-0.20,-0.116,-0.053,1.081,0.00,0.00,0.00,0.00,-0.33,-5.10,0.12,1.07,-1.95,-1.42,-3.20,-1.45,1100,1100,1100,1100,1037,1499,1517,11270,768
31037,0,-0.02,6.67,-0.84,-0.113,-0.051,1.114,0.00,0.00,0.00,0.00,0.02,-6.67,0.12,1.06,-1.93,-0.45,-4.15,0.17,1100,1100,1100,1100,1036,1499,1518,11254,768
31049,0,-0.62,1.92,-0.04,-0.098,-0.069,1.098,0.00,0.00,0.00,4.20,0.62,2.28,0.12,1.05,-1.93,1.12,4.67,-1.84,1100,1100,1100,1100,1033,1500,1521,11274,768
31061,0,2.66,2.46,-0.68,-0.089,-0.052,1.055,0.00,0.00,0.00,4.20,-2.66,1.74,0.11,1.05,-1.92,-3.29,3.72,-0.23,1100,1100,1100,1100,1033,1500,1521,11266,768
31073,0,3.62,4.07,-0.28,-0.134,-0.041,1.105,0.00,0.00,0.00,0.00,-3.62,-4.07,0.11,1.05,-1.92,-4.29,-1.43,-1.22,1100,1100,1100,1100,1038,1499,1517,11274,768
31085,0,2.12,6.21,0.21,-0.128,-0.049,1.111,0.00,0.00,0.00,0.00,-2.12,-6.21,0.10,1.04,-1.90,-1.39,-4.03,-2.42,1100,1100,1100,1100,1038,1499,1517,11274,768
31098,0,2.28,4.77,-0.28,-0.109,-0.058,1.124,0.00,0.00,0.00,0.00,-2.28,-4.77,0.10,1.03,-1.89,-1.29,-2.50,-1.18,1100,1100,1100,1100,1037,1499,1518,11241,768
31109,0,2.70,-3.80,-0.31,-0.046,-0.078,1.052,0.00,0.00,0.00,0.00,-2.70,3.80,0.09,1.03,-1.88,-1.68,10.57,-1.12,1100,1100,1100,1100,1037,1500,1517,11249,767
31121,0,2.94,-4.00,-0.17,-0.010,-0.064,1.009,0.00,0.00,0.00,0.00,-2.94,4.00,0.08,1.04,-1.89,-1.80,7.78,-1.47,1100,1100,1100,1100,1037,1500,1517,11241,767
31133,0,2.93,-6.78,0.26,-0.013,-0.070,1.019,0.00,0.00,0.00,10.20,-2.93,16.98,0.08,1.07,-1.90,-1.52,13.48,-2.54,1100,1100,1100,1100,1004,1500,1551,11270,767
31145,0,2.10,-6.32,0.30,0.032,-0.056,0.988,0.00,0.00,0.00,10.20,-2.10,16.52,0.07,1.11,-1.90,0.08,10.85,-2.64,1100,1100,1100,1100,1004,1500,1551,11270,767
31158,0,3.40,-8.93,0.14,0.057,-0.084,0.966,0.00,0.00,0.00,0.00,-3.40,8.93,0.06,1.13,-1.90,-1.62,9.48,-2.26,1100,1100,1100,1100,1034,1500,1520,11274,767
31169,0,3.91,-5.26,0.54,0.052,-0.104,0.950,0.00,0.00,0.00,10.20,-3.91,15.46,0.05,1.15,-1.92,-2.58,6.61,-3.28,1100,1100,1100,1100,1003,1500,1551,11279,767
31181,0,0.78,-4.02,0.76,0.048,-0.058,0.952,0.00,0.00,0.00,10.20,-0.78,14.22,0.05,1.19,-1.93,1.85,5.15,-3.83,1100,1100,1100,1100,1003,1500,1551,11270,767
31193,0,1.37,-4.04,0.09,0.067,-0.047,0.951,0.00,0.00,0.00,0.00,-1.37,4.04,0.05,1.20,-1.94,-0.29,2.24,-2.17,1100,1100,1100,1100,1037,1500,1517,11254,767
31205,0,-4.27,-6.75,0.57,0.126,-0.022,0.905,0.00,0.00,0.00,0.00,4.27,6.75,0.06,1.22,-1.97,7.33,6.51,-3.39,1100,1100,1100,1100,1037,1500,1517,11258,767
31217,0,-2.90,-5.82,-0.26,0.105,-0.052,0.925,0.00,0.00,0.00,0.00,2.90,5.82,0.06,1.22,-1.97,4.12,5.97,-1.30,1100,1100,1100,1100,1037,1500,1517,11266,826
31229,0,-1.70,0.02,0.15,0.107,-0.071,0.914,0.00,0.00,0.00,0.00,1.70,-0.02,0.07,1.23,-1.98,0.88,-2.85,-2.34,1100,1100,1100,1100,1037,1500,1517,11254,826
31241,0,-2.70,-1.28,0.43,0.095,-0.072,0.913,0.00,0.00,0.00,0.00,2.70,1.28,0.07,1.23,-1.97,2.23,-0.39,-3.06,1100,1100,1100,1100,1037,1500,1517,11245,826
31253,0,-0.73,2.99,-0.07,0.065,-0.063,0.950,0.00,0.00,0.00,0.00,0.73,-2.99,0.08,1.23,-1.98,-1.90,-5.24,-1.81,1100,1100,1100,1100,1037,1500,1517,11249,826
31265,0,-7.18,-0.20,0.37,0.075,-0.025,0.952,0.00,0.00,0.00,0.00,7.18,0.20,0.09,1.23,-1.98,7.89,0.70,-2.89,1100,1100,1100,1100,1037,1500,1517,11258,826
31277,0,-4.95,-4.37,-0.85,0.100,-0.059,0.951,0.00,0.00,0.00,4.40,4.95,8.77,0.10,1.24,-1.98,3.92,10.15,0.16,1100,1100,1100,1100,1032,1500,1522,11241,826
31289,0,-4.11,6.88,0.23,0.080,-0.066,0.944,0.00,0.00,0.00,10.00,4.11,3.12,0.11,1.24,-1.98,1.93,-4.74,-2.54,1100,1100,1100,1100,1005,1499,1550,11254,826
31301,0,-3.09,4.88,-0.04,0.036,-0.067,0.983,0.00,0.00,0.00,10.00,3.09,5.12,0.12,1.26,-1.97,0.50,-1.14,-1.88,1100,1100,1100,1100,1005,1499,1550,11262,826
31313,0,0.44,1.96,0.92,0.017,-0.064,1.006,0.00,0.00,0.00,0.00,-0.44,-1.96,0.13,1.26,-1.98,-5.48,1.10,-4.28,1100,1100,1100,1100,1051,1499,1518,11270,769
31325,0,-4.94,-2.62,0.15,0.019,-0.072,0.974,0.00,0.00,0.00,0.00,4.94,2.62,0.14,1.27,-1.99,4.28,7.04,-2.35,1100,1100,1100,1100,1051,1499,1518,11254,769
31338,0,-0.20,-5.57,-0.69,0.026,-0.098,0.955,0.00,0.00,0.00,0.00,0.20,5.57,0.13,1.27,-2.00,-1.88,10.86,-0.27,1100,1100,1100,1100,1037,1499,1518,11254,769
31349,0,1.61,3.98,0.39,-0.016,-0.080,0.982,0.00,0.00,0.00,10.20,-1.61,6.22,0.13,1.28,-1.99,-3.77,-1.25,-2.96,1100,1100,1100,1100,1004,1499,1551,11249,769
31361,0,3.96,1.99,0.27,-0.008,-0.067,1.013,0.00,0.00,0.00,10.20,-3.96,8.21,0.12,1.30,-1.99,-5.50,1.71,-2.66,1100,1100,1100,1100,1004,1499,1551,11254,769
31373,0,6.22,0.81,0.58,-0.019,-0.059,1.046,0.00,0.00,0.00,10.00,-6.22,9.19,0.12,1.33,-1.99,-8.48,3.31,-3.44,1100,1100,1100,1100,1005,1500,1550,11241,769
31385,0,-0.44,-6.25,-1.20,0.016,-0.068,1.004,0.00,0.00,0.00,10.00,0.44,16.25,0.11,1.36,-1.98,3.33,13.79,1.03,1100,1100,1100,1100,1005,1500,1550,11249,769
31398,0,4.11,-6.03,-0.51,0.027,-0.068,0.993,0.00,0.00,0.00,0.00,-4.11,6.03,0.10,1.37,-1.98,-2.67,9.40,-0.71,1100,1100,1100,1100,1036,1500,1519,11237,769
31409,0,5.70,-0.77,0.05,-0.011,-0.071,1.005,0.00,0.00,0.00,0.00,-5.70,0.77,0.09,1.38,-1.97,-4.79,-0.78,-2.08,1100,1100,1100,1100,1037,1499,1518,11237,831
31421,0,7.40,-5.12,0.39,0.027,-0.058,1.018,0.00,0.00,0.00,0.00,-7.40,5.12,0.07,1.39,-1.98,-6.22,5.44,-2.94,1100,1100,1100,1100,1037,1499,1518,11245,831
31433,0,7.69,-1.94,0.85,0.007,-0.036,1.041,0.00,0.00,0.00,0.00,-7.69,1.94,0.06,1.40,-1.98,-6.25,0.00,-4.10,1100,1100,1100,1100,1037,1500,1517,11245,831
31445,0,0.25,-5.91,-0.97,0.048,-0.048,0.997,0.00,0.00,0.00,0.00,-0.25,5.91,0.05,1.41,-1.98,5.42,6.39,0.45,1100,1100,1100,1100,1037,1500,1517,11237,831
31458,0,-1.73,0.48,0.74,0.052,-0.057,0.982,0.00,0.00,0.00,9.80,1.73,9.32,0.05,1.43,-2.01,6.79,1.62,-3.85,1100,1100,1100,1100,1006,1500,1549,11266,831
31469,0,-1.09,1.78,0.07,0.075,-0.047,0.943,0.00,0.00,0.00,10.00,1.09,8.22,0.06,1.45,-2.01,3.11,1.32,-2.19,1100,1100,1100,1100,1005,1500,1550,11241,831
31481,0,-4.89,-2.03,-0.23,0.095,-0.028,0.973,0.00,0.00,0.00,10.00,4.89,12.03,0.06,1.47,-2.00,7.46,8.03,-1.42,1100,1100,1100,1100,1005,1500,1550,11241,831
31493,0,-3.99,-2.32,-0.41,0.089,-0.076,0.962,0.00,0.00,0.00,0.00,3.99,2.32,0.07,1.48,-1.99,4.49,5.20,-0.97,1100,1100,1100,1100,1040,1500,1520,11241,831
31505,0,-3.81,3.08,-0.17,0.080,-0.083,0.960,0.00,0.00,0.00,0.00,3.81,-3.08,0.08,1.48,-2.01,3.40,-3.43,-1.58,1100,1100,1100,1100,1040,1500,1520,11258,831
31517,0,-0.12,2.10,0.96,0.065,-0.076,0.936,0.00,0.00,0.00,10.00,0.12,7.90,0.08,1.50,-2.02,-2.42,2.01,-4.41,1100,1100,1100,1100,1011,1500,1550,11283,782
31529,0,-0.61,-1.03,-0.25,0.071,-0.058,0.958,0.00,0.00,0.00,0.00,0.61,1.03,0.09,1.52,-2.02,-1.90,3.04,-1.38,1100,1100,1100,1100,1043,1500,1518,11283,782
31541,0,-3.82,-1.48,0.33,0.054,-0.043,0.991,0.00,0.00,0.00,0.00,3.82,1.48,0.09,1.52,-2.02,3.84,3.61,-2.84,1100,1100,1100,1100,1043,1500,1518,11283,782
31553,0,-1.06,0.43,-0.45,0.029,-0.075,0.999,0.00,0.00,0.00,9.80,1.06,9.37,0.10,1.54,-2.00,-0.15,4.31,-0.88,1100,1100,1100,1100,1018,1500,1549,11274,782
31565,0,0.73,5.49,-0.47,0.001,-0.049,1.007,0.00,0.00,0.00,9.80,-0.73,4.31,0.09,1.55,-2.01,-2.06,-2.37,-0.83,1100,1100,1100,1100,1018,1500,1549,11262,782
31578,0,3.47,3.53,0.19,-0.043,-0.053,1.017,0.00,0.00,0.00,9.80,-3.47,6.27,0.09,1.57,-2.00,-5.69,2.38,-2.48,1100,1100,1100,1100,1019,1500,1549,11220,782
31589,0,1.26,1.52,-0.41,-0.054,-0.062,1.049,0.00,0.00,0.00,0.00,-1.26,-1.52,0.09,1.58,-1.99,-1.95,1.84,-0.97,1100,1100,1100,1100,1069,1499,1518,11233,782
31601,0,-1.32,1.27,0.25,-0.062,-0.059,1.072,0.00,0.00,0.00,0.00,1.32,-1.27,0.09,1.57,-2.00,2.73,2.22,-2.62,1100,1100,1100,1100,1069,1499,1518,11233,782
31613,0,0.45,3.80,-0.01,-0.060,-0.052,1.058,0.00,0.00,0.00,0.00,-0.45,-3.80,0.09,1.56,-2.00,0.15,-1.26,-1.98,1100,1100,1100,1100,1071,1500,1516,11237,769
31625,0,1.95,0.95,0.13,-0.067,-0.056,1.050,0.00,0.00,0.00,0.00,-1.95,-0.95,0.08,1.56,-2.00,-2.04,2.95,-2.33,1100,1100,1100,1100,1071,1499,1516,11224,769
31638,0,5.55,4.87,0.05,-0.089,-0.042,1.084,0.00,0.00,0.00,0.00,-5.55,-4.87,0.08,1.56,-1.99,-7.05,-4.02,-2.11,1100,1100,1100,1100,1057,1499,1518,11229,769
31649,0,3.89,2.56,0.20,-0.127,-0.030,1.119,0.00,0.00,0.00,0.00,-3.89,-2.56,0.07,1.55,-1.98,-3.84,-0.38,-2.47,1100,1100,1100,1100,1055,1503,1516,11237,769
31661,0,0.15,-2.17,-0.51,-0.099,-0.055,1.082,0.00,0.00,0.00,0.00,-0.15,2.17,0.07,1.55,-1.97,2.45,7.55,-0.71,1100,1100,1100,1100,1055,1503,1516,11237,769
31673,0,-0.11,-0.83,-0.09,-0.088,-0.053,1.054,0.00,0.00,0.00,10.00,0.11,10.83,0.06,1.57,-1.99,2.86,8.16,-1.76,1100,1100,1100,1100,1032,1500,1550,11229,769
31685,0,1.35,1.12,0.21,-0.109,-0.046,1.085,0.00,0.00,0.00,10.00,-1.35,8.88,0.06,1.59,-2.00,-0.24,5.10,-2.52,1100,1100,1100,1100,1032,1500,1550,11237,769
31697,0,-0.15,10.36,0.05,-0.094,0.000,1.095,0.00,0.00,0.00,10.00,0.15,-0.36,0.06,1.59,-1.99,1.56,-7.78,-2.12,1100,1100,1100,1100,1032,1500,1550,11220,769
31709,0,-1.52,2.99,0.04,-0.058,-0.024,1.080,0.00,0.00,0.00,9.80,1.52,6.81,0.06,1.61,-1.98,3.02,4.32,-2.08,1100,1100,1100,1100,1033,1500,1549,11229,769
31721,0,-1.63,1.82,-0.67,-0.023,-0.056,1.030,0.00,0.00,0.00,9.80,1.63,7.98,0.06,1.63,-1.97,2.19,7.04,-0.30,1100,1100,1100,1100,1033,1500,1549,11220,769
31733,0,-1.82,3.40,-0.19,-0.048,-0.061,1.041,0.00,0.00,0.00,0.00,1.82,-3.40,0.07,1.63,-1.97,2.10,-0.12,-1.49,1100,1100,1100,1100,1064,1500,1518,11237,769
31745,0,-0.45,2.95,-0.13,-0.025,-0.076,1.037,0.00,0.00,0.00,0.00,0.45,-2.95,0.07,1.62,-1.97,-0.50,0.93,-1.64,1100,1100,1100,1100,1064,1500,1518,11254,769
31758,0,-3.37,-1.37,0.92,0.039,-0.055,0.975,0.00,0.00,0.00,5.00,3.37,6.37,0.08,1.63,-1.98,3.72,8.23,-4.27,1100,1100,1100,1100,1059,1500,1525,11254,769
31769,0,-1.08,-7.63,0.19,0.093,-0.072,0.956,0.00,0.00,0.00,9.80,1.08,17.43,0.08,1.66,-1.98,0.10,17.54,-2.46,1100,1100,1100,1100,1035,1500,1549,11245,769
31781,0,0.01,-7.79,0.79,0.166,-0.093,0.887,0.00,0.00,0.00,9.80,-0.01,17.59,0.08,1.70,-2.01,-1.61,14.39,-3.98,1100,1100,1100,1100,1035,1500,1549,11245,769
31793,0,0.06,-7.23,0.53,0.151,-0.091,0.904,0.00,0.00,0.00,10.00,-0.06,17.23,0.08,1.75,-2.02,-0.96,10.70,-3.35,1100,1100,1100,1100,1041,1500,1550,11254,769
31806,0,2.51,-4.40,-0.63,0.130,-0.082,0.925,0.00,0.00,0.00,10.00,-2.51,14.40,0.08,1.78,-2.01,-4.40,6.53,-0.45,1100,1100,1100,1100,1041,1500,1550,11254,769
31818,0,-2.56,-4.31,0.45,0.128,-0.057,0.912,0.00,0.00,0.00,0.00,2.56,4.31,0.08,1.79,-2.01,4.21,2.42,-3.15,1100,1100,1100,1100,1074,1500,1517,11274,767
31829,0,-1.52,-8.30,0.08,0.157,-0.105,0.899,0.00,0.00,0.00,0.00,1.52,8.30,0.08,1.80,-2.03,2.79,9.85,-2.23,1100,1100,1100,1100,1080,1500,1518,11274,767
31841,0,1.43,5.57,0.78,0.098,-0.082,0.948,0.00,0.00,0.00,0.00,-1.43,-5.57,0.08,1.80,-2.06,-2.65,-11.56,-4.02,1100,1100,1100,1100,1080,1500,1518,11258,767
31853,0,3.74,1.06,0.22,0.083,-0.051,0.963,0.00,0.00,0.00,0.00,-3.74,-1.06,0.08,1.80,-2.05,-5.52,-2.46,-2.59,1100,1100,1100,1100,1082,1500,1518,11249,767
31865,0,3.34,-1.13,-0.51,0.066,-0.038,0.999,0.00,0.00,0.00,0.00,-3.34,1.13,0.08,1.81,-2.03,-4.76,2.17,-0.75,1100,1100,1100,1100,1082,1500,1518,11241,767
31878,0,-5.91,-8.28,-0.64,0.089,-0.067,0.937,0.00,0.00,0.00,0.00,5.91,8.28,0.08,1.81,-2.02,10.37,13.07,-0.42,1100,1100,1100,1100,1082,1500,1518,11245,767
31889,0,-0.31,-2.42,-0.14,0.078,-0.100,0.959,0.00,0.00,0.00,9.80,0.31,12.22,0.07,1.82,-2.04,0.97,8.02,-1.70,1100,1100,1100,1100,1051,1499,1549,11254,767
31901,0,0.21,3.80,0.68,0.026,-0.066,0.970,0.00,0.00,0.00,9.80,-0.21,6.00,0.08,1.85,-2.05,-0.75,-2.36,-3.76,1100,1100,1100,1100,1051,1499,1549,11249,767
31913,0,0.45,3.98,0.35,0.025,-0.045,1.009,0.00,0.00,0.00,10.00,-0.45,6.02,0.08,1.86,-2.05,-0.76,-0.56,-2.92,1100,1100,1100,1100,1049,1500,1550,11254,771
31925,0,1.76,6.80,0.53,-0.026,-0.033,1.052,0.00,0.00,0.00,10.00,-1.76,3.20,0.08,1.88,-2.05,-3.61,-3.51,-3.37,1100,1100,1100,1100,1049,1500,1550,11237,771
31938,0,-4.49,-1.71,-0.81,0.012,-0.036,1.005,0.00,0.00,0.00,0.00,4.49,1.71,0.08,1.88,-2.04,6.46,6.72,-0.03,1100,1100,1100,1100,1082,1500,1517,11241,771
31949,0,-0.93,5.66,-0.83,0.005,-0.036,1.037,0.00,0.00,0.00,9.40,0.93,3.74,0.09,1.87,-2.04,0.62,0.66,0.04,1100,1100,1100,1100,1052,1500,1547,11241,771
31961,0,-1.92,7.30,0.02,-0.034,-0.041,1.034,0.00,0.00,0.00,9.40,1.92,2.10,0.09,1.88,-2.04,1.44,-2.18,-2.10,1100,1100,1100,1100,1052,1500,1547,11237,771
31973,0,0.20,0.09,1.02,0.022,-0.018,1.031,0.00,0.00,0.00,0.00,-0.20,-0.09,0.09,1.88,-2.04,-1.56,6.18,-4.58,1100,1100,1100,1100,1081,1500,1519,11254,771
31985,0,-1.74,5.81,0.28,-0.043,-0.030,1.055,0.00,0.00,0.00,0.00,1.74,-5.81,0.10,1.87,-2.04,1.05,-2.91,-2.74,1100,1100,1100,1100,1081,1500,1519,11258,771
31998,0,-4.13,4.27,-1.36,-0.010,-0.050,1.043,0.00,0.00,0.00,9.40,4.13,5.13,0.10,1.88,-2.03,5.41,3.88,1.36,1100,1100,1100,1100,1053,1500,1547,11270,771
32009,0,2.43,4.40,-0.19,-0.033,-0.049,1.043,0.00,0.00,0.00,0.00,-2.43,-4.40,0.10,1.89,-2.03,-4.79,0.03,-1.55,1100,1100,1100,1100,1087,1500,1517,11270,819
32021,0,2.75,5.21,-0.11,-0.070,-0.046,1.064,0.00,0.00,0.00,0.00,-2.75,-5.21,0.10,1.88,-2.01,-4.86,-1.60,-1.74,1100,1100,1100,1100,1087,1500,1517,11262,819
32033,0,2.12,2.48,0.92,-0.052,-0.021,1.080,0.00,0.00,0.00,0.00,-2.12,-2.48,0.09,1.87,-2.02,-2.76,1.92,-4.33,1100,1100,1100,1100,1096,1502,1515,11295,819
32045,0,0.48,0.86,-0.21,-0.054,-0.048,1.063,0.00,0.00,0.00,0.00,-0.48,-0.86,0.09,1.86,-2.01,-0.01,4.72,-1.49,1100,1100,1100,1100,1096,1500,1515,11283,819
32058,0,-2.72,-4.45,-0.31,0.027,-0.069,1.002,0.00,0.00,0.00,9.60,2.72,14.05,0.09,1.89,-2.03,5.46,15.29,-1.26,1100,1100,1100,1100,1068,1500,1548,11287,819
32069,0,3.85,-6.21,0.59,0.034,-0.079,0.976,0.00,0.00,0.00,9.60,-3.85,15.81,0.09,1.92,-2.04,-4.81,15.11,-3.52,1100,1100,1100,1100,1071,1500,1548,11283,819
32081,0,3.68,-2.76,0.02,0.043,-0.068,1.001,0.00,0.00,0.00,9.60,-3.68,12.36,0.08,1.96,-2.04,-4.18,7.40,-2.11,1100,1100,1100,1100,1071,1500,1548,11270,819
32093,0,3.18,-5.22,0.40,0.073,-0.054,0.984,0.00,0.00,0.00,0.00,-3.18,5.22,0.07,1.98,-2.05,-2.28,5.44,-3.05,1100,1100,1100,1100,1101,1499,1518,11266,819
32105,0,2.51,-9.33,-0.07,0.106,-0.079,0.962,0.00,0.00,0.00,0.00,-2.51,9.33,0.07,2.00,-2.05,-1.15,11.06,-1.88,1100,1100,1100,1100,1101,1500,1518,11254,819
32118,0,-0.12,-8.18,0.45,0.134,-0.066,0.942,0.00,0.00,0.00,0.00,0.12,8.18,0.06,2.01,-2.07,2.70,8.75,-3.20,1100,1100,1100,1100,1102,1500,1518,11254,765
32129,0,-0.47,-6.01,0.25,0.138,-0.076,0.915,0.00,0.00,0.00,0.00,0.47,6.01,0.06,2.03,-2.07,2.63,5.08,-2.69,1100,1100,1100,1100,1101,1499,1518,11266,765
32141,0,0.32,1.25,-0.47,0.114,-0.046,0.970,0.00,0.00,0.00,0.00,-0.32,-1.25,0.06,2.03,-2.07,0.59,-4.98,-0.90,1100,1100,1100,1100,1101,1499,1518,11254,765
32153,0,-0.63,4.00,-0.14,0.100,-0.052,0.980,0.00,0.00,0.00,9.40,0.63,5.40,0.07,2.04,-2.06,1.04,-3.61,-1.72,1100,1100,1100,1100,1073,1499,1547,11270,765
32165,0,-0.21,2.21,-0.73,0.087,-0.052,0.965,0.00,0.00,0.00,9.40,0.21,7.19,0.07,2.06,-2.05,-0.27,2.48,-0.21,1100,1100,1100,1100,1073,1499,1547,11266,765
32178,0,-2.09,3.78,-0.34,0.069,-0.076,1.002,0.00,0.00,0.00,9.80,2.09,6.02,0.07,2.07,-2.03,2.28,1.85,-1.18,1100,1100,1100,1100,1073,1499,1549,11270,765
32189,0,-1.12,8.81,0.42,0.020,-0.092,1.023,0.00,0.00,0.00,0.00,1.12,-8.81,0.08,2.07,-2.03,0.68,-8.25,-3.08,1100,1100,1100,1100,1101,1500,1520,11245,765
32201,0,0.77,9.25,0.45,0.007,-0.084,1.028,0.00,0.00,0.00,0.00,-0.77,-9.25,0.08,2.05,-2.02,-2.45,-7.52,-3.16,1100,1100,1100,1100,1101,1500,1520,11245,765
32214,0,0.77,4.38,-0.33,0.024,-0.082,0.989,0.00,0.00,0.00,0.00,-0.77,-4.38,0.08,2.04,-2.03,-2.29,1.35,-1.21,1100,1100,1100,1100,1104,1492,1516,11245,817
32225,0,-0.56,-5.93,0.14,0.052,-0.064,0.955,0.00,0.00,0.00,0.00,0.56,5.93,0.08,2.04,-2.04,0.30,15.92,-2.37,1100,1100,1100,1100,1104,1500,1516,11266,817
32238,0,-0.66,-4.26,0.18,0.049,-0.067,0.984,0.00,0.00,0.00,0.00,0.66,4.26,0.08,2.05,-2.04,0.73,10.01,-2.49,1100,1100,1100,1100,1111,1500,1517,11245,817
32249,0,-1.28,-5.21,0.27,0.086,-0.054,0.919,0.00,0.00,0.00,0.00,1.28,5.21,0.08,2.06,-2.05,1.93,8.53,-2.72,1100,1100,1100,1100,1108,1500,1517,11220,817
32261,0,1.00,-8.90,0.71,0.091,-0.074,0.897,0.00,0.00,0.00,0.00,-1.00,8.90,0.08,2.08,-2.06,-1.29,12.94,-3.84,1100,1100,1100,1100,1108,1500,1517,11229,817
32273,0,0.74,-1.30,0.43,0.064,-0.074,0.918,0.00,0.00,0.00,0.00,-0.74,1.30,0.08,2.09,-2.08,-1.03,-0.70,-3.16,1100,1100,1100,1100,1111,1500,1517,11241,817
32285,0,1.34,-2.39,0.65,0.025,-0.037,0.956,0.00,0.00,0.00,0.00,-1.34,2.39,0.08,2.10,-2.09,-1.55,1.07,-3.71,1100,1100,1100,1100,1111,1500,1517,11237,817
32298,0,3.56,-1.80,-0.68,0.020,-0.040,1.000,0.00,0.00,0.00,9.40,-3.56,11.20,0.07,2.12,-2.08,-4.84,5.05,-0.38,1100,1100,1100,1100,1081,1500,1547,11249,817
32309,0,-1.22,-3.38,-0.72,-0.003,-0.033,1.004,0.00,0.00,0.00,10.00,1.22,13.38,0.07,2.16,-2.07,3.27,7.70,-0.27,1100,1100,1100,1100,1089,1500,1550,11274,774
32321,0,0.38,-7.07,-0.55,0.033,-0.064,0.984,0.00,0.00,0.00,10.00,-0.38,17.07,0.07,2.18,-2.05,0.75,15.23,-0.67,1100,1100,1100,1100,1089,1500,1550,11279,774
32333,0,-1.61,3.01,0.12,0.030,-0.070,0.972,0.00,0.00,0.00,9.40,1.61,6.39,0.07,2.20,-2.07,2.99,-1.02,-2.36,1100,1100,1100,1100,1093,1500,1547,11266,774
32345,0,0.23,-4.32,1.18,0.073,-0.063,0.948,0.00,0.00,0.00,9.40,-0.23,13.72,0.07,2.24,-2.08,-0.02,9.91,-5.03,1100,1100,1100,1100,1093,1500,1547,11254,774
32358,0,2.18,-0.20,0.12,0.040,-0.046,0.983,0.00,0.00,0.00,13.00,-2.18,13.20,0.07,2.27,-2.09,-4.24,4.51,-2.39,1100,1100,1100,1100,1079,1500,1565,11258,774
32369,0,-4.95,-0.05,-0.18,0.009,-0.053,1.001,0.00,0.00,0.00,9.80,4.95,9.85,0.08,2.31,-2.08,7.01,3.75,-1.64,1100,1100,1100,1100,1094,1500,1549,11283,774
32381,0,-0.92,1.03,-1.02,0.009,-0.069,1.006,0.00,0.00,0.00,9.80,0.92,8.77,0.08,2.32,-2.07,0.87,4.94,0.48,1100,1100,1100,1100,1094,1500,1549,11270,774
32393,0,-0.43,2.64,-0.05,-0.038,-0.050,0.998,0.00,0.00,0.00,9.20,0.43,6.56,0.08,2.34,-2.07,-0.27,2.35,-1.94,1100,1100,1100,1100,1097,1499,1546,11283,774
32406,0,0.64,2.89,0.47,-0.064,-0.034,1.052,0.00,0.00,0.00,9.20,-0.64,6.31,0.08,2.35,-2.07,-1.38,3.25,-3.24,1100,1100,1100,1100,1097,1507,1546,11274,774
32418,0,1.32,4.53,-0.04,-0.109,-0.040,1.093,0.00,0.00,0.00,7.00,-1.32,2.47,0.08,2.36,-2.06,-2.77,0.22,-1.97,1100,1100,1100,1100,1102,1507,1535,11274,772
32429,0,-1.39,-3.34,-0.88,-0.016,-0.059,1.036,0.00,0.00,0.00,9.40,1.39,12.74,0.08,2.38,-2.05,2.58,13.43,0.14,1100,1100,1100,1100,1102,1499,1547,11254,772
32441,0,4.64,-2.14,0.02,0.005,-0.044,1.008,0.00,0.00,0.00,9.40,-4.64,11.54,0.07,2.41,-2.06,-6.66,9.80,-2.10,1100,1100,1100,1100,1102,1499,1547,11254,772
32453,0,0.13,2.39,-0.46,-0.043,-0.051,1.052,0.00,0.00,0.00,0.00,-0.13,-2.39,0.07,2.42,-2.46,0.84,-1.44,-53.52,1100,1100,1100,1100,1192,1500,1518,11270,772
32465,0,-1.99,-0.54,0.22,0.040,-0.033,1.036,0.00,0.00,0.00,0.00,1.99,0.54,0.07,2.41,-3.09,4.30,5.16,-55.84,1100,1100,1100,1100,1192,1500,1518,11266,772
32478,0,-0.76,-2.97,0.81,0.075,-0.068,0.955,0.00,0.00,0.00,9.20,0.76,12.17,0.07,2.43,-3.09,1.24,11.34,-5.11,1100,1100,1100,1100,1107,1500,1546,11270,772
32489,0,0.47,0.33,-0.48,0.132,-0.074,0.965,0.00,0.00,0.00,9.40,-0.47,9.07,0.07,2.46,-3.10,-0.92,4.47,-1.90,1100,1100,1100,1100,1107,1500,1547,11249,772
32501,0,4.26,-2.84,0.94,0.139,-0.058,0.939,0.00,0.00,0.00,9.40,-4.26,12.24,0.07,2.49,-3.10,-6.71,8.73,-5.45,1100,1100,1100,1100,1107,1500,1547,11233,772
32513,0,0.89,-4.77,-0.03,0.124,-0.079,0.929,0.00,0.00,0.00,9.80,-0.89,14.57,0.07,2.52,-3.10,-1.07,11.55,-3.03,1100,1100,1100,1100,1106,1500,1549,11220,773
32525,0,-1.99,1.55,-0.24,0.080,-0.056,0.968,0.00,0.00,0.00,9.80,1.99,8.25,0.07,2.55,-3.11,4.07,1.81,-2.50,1100,1100,1100,1100,1106,1500,1549,11208,773
32538,0,0.69,0.65,0.36,0.046,-0.075,0.989,0.00,0.00,0.00,9.80,-0.69,9.15,0.07,2.57,-3.11,-0.26,5.04,-4.01,1100,1100,1100,1100,1106,1500,1549,11229,773
32549,0,-1.71,2.16,-0.30,0.080,-0.056,1.014,0.00,0.00,0.00,9.20,1.71,7.04,0.07,2.59,-3.12,3.12,2.44,-2.37,1100,1100,1100,1100,1115,1500,1546,11262,773
32561,0,-1.55,-4.37,0.22,0.157,-0.078,0.924,0.00,0.00,0.00,9.20,1.55,13.57,0.07,2.62,-3.13,3.19,11.56,-3.67,1100,1100,1100,1100,1115,1500,1546,11270,773
32573,0,-0.83,1.77,-0.02,0.081,-0.080,0.950,0.00,0.00,0.00,9.20,0.83,7.43,0.07,2.65,-3.12,1.36,0.74,-3.07,1100,1100,1100,1100,1115,1500,1546,11283,773
32585,0,-3.81,14.65,-0.02,-0.028,-0.042,1.039,0.00,0.00,0.00,9.20,3.81,-5.45,0.07,2.65,-3.11,5.79,-15.96,-3.05,1100,1100,1100,1100,1115,1500,1546,11274,773
32597,0,-2.71,-3.70,-1.01,-0.008,-0.054,0.993,0.00,0.00,0.00,0.00,2.71,3.70,0.07,2.65,-3.10,3.62,11.09,-0.58,1100,1100,1100,1100,1150,1500,1517,11270,773
32609,0,-0.30,-0.15,0.12,0.017,-0.052,1.000,0.00,0.00,0.00,0.00,0.30,0.15,0.08,2.64,-2.96,-0.68,5.62,32.74,1116,1190,1180,1126,1153,1499,1517,11270,822
32621,0,-1.29,-4.10,-0.16,0.050,-0.082,0.983,0.00,0.00,0.00,0.00,1.29,4.10,0.08,2.66,-2.53,1.09,8.60,33.87,1116,1190,1180,1126,1153,1499,1517,11233,822
32633,0,5.29,2.91,1.30,0.033,-0.058,1.017,0.00,0.00,0.00,9.40,-5.29,6.49,0.08,2.67,-2.41,-8.94,1.71,-5.66,1116,1190,1180,1126,1125,1500,1547,11229,822
32645,0,2.17,0.72,0.36,-0.004,-0.054,1.024,0.00,0.00,0.00,9.40,-2.17,8.68,0.08,2.69,-2.40,-3.39,5.55,-3.30,1116,1190,1180,1126,1125,1500,1547,11212,822
32658,0,-0.97,4.68,-0.91,-0.036,-0.076,1.067,0.00,0.00,0.00,17.20,0.97,12.52,0.07,2.72,-2.40,2.47,3.94,-0.13,1116,1190,1180,1126,1087,1500,1586,11191,822
32669,0,2.57,1.73,0.90,-0.026,-0.071,1.037,0.00,0.00,0.00,12.20,-2.57,10.47,0.07,2.75,-2.41,-3.33,7.14,-4.67,1116,1190,1180,1126,1114,1500,1561,11208,822
32681,0,1.06,1.38,-0.46,-0.014,-0.043,1.039,0.00,0.00,0.00,12.20,-1.06,10.82,0.07,2.78,-2.40,-0.99,6.46,-1.24,1116,1190,1180,1126,1114,1500,1561,11208,822
32693,0,-3.04,-3.71,-0.34,0.031,-0.048,1.000,0.00,0.00,0.00,9.60,3.04,13.31,0.07,2.81,-2.41,5.62,13.07,-1.57,1116,1190,1180,1126,1129,1499,1548,11229,822
32705,0,-1.41,3.58,0.45,-0.005,-0.061,1.016,0.00,0.00,0.00,9.60,1.41,6.02,0.07,2.83,-2.40,2.22,0.93,-3.52,1116,1190,1180,1126,1129,1499,1548,11241,822
32717,0,-2.00,5.20,-0.87,0.010,-0.059,1.019,0.00,0.00,0.00,9.60,2.00,4.40,0.07,2.84,-2.39,2.78,0.79,-0.21,1100,1100,1100,1100,1129,1499,1548,11237,771
32729,0,-1.92,-2.60,-0.47,0.024,-0.040,0.985,0.00,0.00,0.00,9.20,1.92,11.80,0.08,2.87,-2.39,2.26,11.10,-1.22,1100,1100,1100,1100,1133,1500,1546,11216,771
32741,0,0.33,3.95,-0.29,0.000,-0.051,1.016,0.00,0.00,0.00,9.20,-0.33,5.25,0.08,2.89,-2.37,-1.20,1.97,-1.64,1100,1100,1100,1100,1133,1500,1546,11216,771
32753,0,-0.61,-6.86,0.41,0.074,-0.064,0.961,0.00,0.00,0.00,16.80,0.61,23.66,0.08,2.93,-2.39,0.25,20.87,-3.41,1100,1100,1100,1100,1095,1500,1584,11233,771
32765,0,0.79,0.46,0.54,0.024,-0.064,0.998,0.00,0.00,0.00,16.80,-0.79,16.34,0.08,2.97,-2.39,-1.57,7.66,-3.73,1100,1100,1100,1100,1095,1500,1584,11245,771
32778,0,1.66,-6.55,-0.83,0.084,-0.087,0.943,0.00,0.00,0.00,9.00,-1.66,15.55,0.08,3.00,-2.39,-2.67,15.48,-0.32,1100,1100,1100,1100,1135,1500,1545,11254,771
32789,0,3.19,4.21,0.41,0.040,-0.057,1.011,0.00,0.00,0.00,9.00,-3.19,4.79,0.07,3.03,-2.40,-4.77,-3.05,-3.42,1100,1100,1100,1100,1135,1500,1545,11254,771
32801,0,-0.73,0.04,1.26,0.087,-0.051,0.987,0.00,0.00,0.00,9.00,0.73,8.96,0.07,3.05,-2.40,1.85,5.06,-5.54,1100,1100,1100,1100,1135,1500,1545,11254,771
32813,0,-1.90,2.06,-1.08,0.086,-0.061,0.966,0.00,0.00,0.00,9.00,1.90,6.94,0.08,3.08,-2.39,3.25,1.89,0.31,1100,1100,1100,1100,1137,1500,1545,11254,772
32825,0,-1.08,1.35,0.18,0.098,-0.076,0.936,0.00,0.00,0.00,9.00,1.08,7.65,0.08,3.09,-2.40,1.94,5.35,-2.85,1100,1100,1100,1100,1137,1501,1545,11254,772
32838,0,0.72,1.82,-0.55,0.049,-0.041,0.980,0.00,0.00,0.00,0.00,-0.72,-1.82,0.08,3.09,-2.39,-1.51,1.15,-1.00,1100,1100,1100,1100,1170,1501,1516,11245,772
32849,0,-0.12,-0.41,0.09,0.016,-0.018,1.016,0.00,0.00,0.00,0.00,0.12,0.41,0.08,3.08,-2.39,-0.25,6.03,-2.61,1100,1100,1100,1100,1167,1500,1517,11258,772
32861,0,-1.41,1.25,0.50,0.001,-0.021,1.036,0.00,0.00,0.00,0.00,1.41,-1.25,0.08,3.08,-2.38,1.76,2.38,-3.63,1100,1100,1100,1100,1167,1500,1517,11262,772
32873,0,-0.64,-5.94,-1.01,0.065,-0.043,0.965,0.00,0.00,0.00,8.80,0.64,14.74,0.08,3.10,-2.38,0.62,16.61,0.13,1100,1100,1100,1100,1141,1500,1544,11229,772
32885,0,2.82,-0.16,1.40,0.041,-0.043,0.996,0.00,0.00,0.00,8.80,-2.82,8.96,0.08,3.13,-2.39,-4.84,3.56,-5.89,1100,1100,1100,1100,1141,1500,1544,11216,772
32897,0,0.45,-2.52,1.14,0.124,-0.031,0.959,0.00,0.00,0.00,8.80,-0.45,11.32,0.08,3.16,-2.40,-0.66,7.81,-5.26,1100,1100,1100,1100,1144,1500,1544,11208,772
32909,0,-1.64,-6.84,0.19,0.112,-0.062,0.940,0.00,0.00,0.00,0.00,1.64,6.84,0.08,3.20,-2.41,3.05,8.34,-2.89,1162,1174,1164,1184,1171,1499,1517,11208,768
32921,0,5.30,3.15,-0.86,0.064,-0.077,0.969,0.00,0.00,0.00,0.00,-5.30,-3.15,0.07,3.19,-2.41,-7.87,-4.88,-0.25,1162,1174,1164,1184,1171,1499,1517,11204,768
32933,0,0.36,1.92,0.72,0.107,-0.043,0.941,0.00,0.00,0.00,9.00,-0.36,7.08,0.07,3.21,-2.41,0.52,1.26,-4.23,1162,1174,1164,1184,1150,1500,1545,11187,768
32945,0,3.71,6.18,0.83,0.019,-0.033,1.032,0.00,0.00,0.00,9.00,-3.71,2.82,0.07,3.22,-2.41,-4.90,-3.40,-4.50,1162,1174,1164,1184,1150,1499,1545,11204,768
32958,0,2.84,-5.01,-0.74,0.106,-0.066,0.941,0.00,0.00,0.00,0.00,-2.84,5.01,0.07,3.22,-2.40,-4.38,11.82,-0.55,1162,1174,1164,1184,1178,1499,1520,11191,768
32969,0,-0.99,-2.80,0.51,0.114,-0.044,0.934,0.00,0.00,0.00,9.80,0.99,12.60,0.07,3.24,-2.40,1.98,9.31,-3.67,1162,1174,1164,1184,1150,1499,1549,11187,768
32981,0,3.27,2.61,0.78,0.008,-0.035,1.029,0.00,0.00,0.00,9.80,-3.27,7.19,0.07,3.26,-2.39,-4.88,1.92,-4.34,1162,1174,1164,1184,1150,1499,1549,11170,768
32993,0,2.02,-1.43,-0.08,0.055,-0.058,0.988,0.00,0.00,0.00,8.60,-2.02,10.03,0.07,3.28,-2.40,-3.69,9.87,-2.20,1162,1174,1164,1184,1163,1500,1543,11154,768
33005,0,-0.67,1.93,1.10,0.047,-0.065,0.990,0.00,0.00,0.00,8.60,0.67,6.67,0.07,3.31,-2.40,1.43,2.44,-5.14,1162,1174,1164,1184,1163,1500,1543,11187,768
33018,0,4.75,-2.42,0.66,-0.006,-0.046,1.028,0.00,0.00,0.00,0.00,-4.75,2.42,0.07,3.31,-2.40,-6.46,6.22,-4.05,1190,1184,1188,1190,1188,1500,1518,11179,806
33029,0,4.65,-0.11,-0.21,0.017,-0.046,1.019,0.00,0.00,0.00,0.00,-4.65,0.11,0.07,3.30,-2.39,-6.76,4.30,-1.86,1190,1184,1188,1190,1188,1500,1520,11179,806
33041,0,-4.76,-0.61,1.34,0.068,-0.031,0.943,0.00,0.00,0.00,0.00,4.76,0.61,0.07,3.31,-2.40,8.84,3.02,-5.76,1190,1184,1188,1190,1188,1500,1520,11154,806
33053,0,1.57,-6.82,-0.10,0.057,-0.040,0.950,0.00,0.00,0.00,0.00,-1.57,6.82,0.06,3.33,-2.40,-1.12,11.27,-2.15,1190,1184,1188,1190,1194,1500,1518,11120,806
33065,0,4.33,8.09,-0.89,-0.032,-0.028,1.072,0.00,0.00,0.00,0.00,-4.33,-8.09,0.06,3.31,-2.38,-6.31,-9.70,-0.16,1190,1184,1188,1190,1194,1500,1518,11104,806
33077,0,1.64,16.71,-0.48,-0.069,-0.033,1.086,0.00,0.00,0.00,8.60,-1.64,-8.11,0.06,3.31,-2.36,-2.65,-16.74,-1.16,1190,1184,1188,1190,1165,1500,1543,11108,806
33089,0,-3.24,-2.47,-0.69,0.001,-0.016,1.004,0.00,0.00,0.00,4.20,3.24,6.67,0.06,3.33,-2.34,6.06,11.79,-0.61,1190,1184,1188,1190,1193,1500,1521,11083,806
33101,0,2.17,-11.20,-0.49,0.080,-0.062,0.996,0.00,0.00,0.00,4.20,-2.17,15.40,0.05,3.34,-2.34,-1.94,25.40,-1.13,1190,1184,1188,1190,1193,1500,1521,11104,806
33113,0,1.35,8.12,1.25,0.083,-0.093,1.037,0.00,0.00,0.00,9.20,-1.35,1.08,0.05,3.36,-2.36,-0.92,-6.06,-5.49,1169,1171,1157,1175,1168,1500,1546,11129,770
33125,0,2.14,9.46,0.92,0.014,-0.067,1.030,0.00,0.00,0.00,9.20,-2.14,-0.26,0.05,3.39,-2.35,-2.75,-9.51,-4.65,1169,1171,1157,1175,1168,1499,1546,11116,770
33138,0,-4.65,-19.44,-2.20,0.097,-0.051,0.910,0.00,0.00,0.00,9.80,4.65,29.24,0.06,3.41,-2.33,7.76,39.40,3.16,1169,1171,1157,1175,1165,1499,1549,11108,770
33149,0,-2.63,-8.83,-1.54,0.128,-0.031,0.961,0.00,0.00,0.00,8.60,2.63,17.43,0.05,3.42,-2.30,4.79,24.30,1.56,1169,1171,1157,1175,1171,1500,1543,11116,770
33161,0,3.39,14.41,-1.35,0.053,-0.057,1.058,0.00,0.00,0.00,8.60,-3.39,-5.81,0.05,3.45,-2.26,-5.14,-18.66,1.12,1169,1171,1157,1175,1171,1500,1543,11133,770
33173,0,2.06,-11.81,-1.04,0.066,-0.034,0.903,0.00,0.00,0.00,8.60,-2.06,20.41,0.06,3.51,-2.22,-4.73,19.28,0.39,1169,1171,1157,1175,1174,1500,1543,11166,770
33185,0,-6.84,-28.54,-1.16,0.230,-0.137,0.780,0.00,0.00,0.00,8.60,6.84,37.14,0.07,3.54,-2.18,9.67,48.15,0.73,1169,1171,1157,1175,1174,1500,1543,11154,770
33198,0,-5.50,14.46,-2.08,0.024,-0.049,1.054,0.00,0.00,0.00,8.60,5.50,-5.86,0.06,3.56,-2.14,8.65,-22.42,3.07,1169,1171,1157,1175,1174,1500,1543,11204,770
33209,0,7.83,-3.13,-1.45,0.065,-0.056,0.940,0.00,0.00,0.00,8.60,-7.83,11.73,0.06,3.60,-2.08,-12.85,5.58,1.56,1180,1192,1158,1166,1174,1500,1543,11204,828
33221,0,1.30,-13.40,-2.69,0.157,-0.116,0.817,0.00,0.00,0.00,8.60,-1.30,22.00,0.07,3.61,-1.98,-3.01,27.41,4.74,1180,1192,1158,1166,1174,1500,1543,11204,828
33233,0,0.83,11.98,-6.37,0.006,-0.086,0.997,0.00,0.00,0.00,0.00,-0.83,-11.98,0.06,3.61,-1.85,-1.28,-15.50,14.06,1180,1192,1158,1166,1203,1499,1518,11200,828
33245,0,-6.29,-7.83,-4.38,-0.023,-0.032,0.974,0.00,0.00,0.00,0.00,6.29,7.83,0.06,3.62,-1.73,10.74,14.52,9.21,1180,1192,1158,1166,1203,1499,1518,11175,828
33257,0,0.00,-2.70,-3.36,0.004,-0.059,0.994,0.00,0.00,0.00,0.00,-0.00,2.70,0.06,3.60,-1.58,0.60,10.43,6.83,1180,1192,1158,1166,1202,1499,1519,11141,828
33269,0,1.20,11.71,-4.71,0.019,-0.064,1.015,0.00,0.00,0.00,9.00,-1.20,-2.71,0.06,3.61,-1.45,-1.95,-10.33,10.32,1180,1192,1158,1166,1177,1500,1545,11137,828
33281,0,-0.49,-9.98,-2.67,0.201,-0.019,0.856,0.00,0.00,0.00,9.00,0.49,18.98,0.06,3.64,-1.37,0.68,22.30,5.31,1180,1192,1158,1166,1177,1500,1545,11125,828
33293,0,0.97,-6.76,-1.65,0.191,-0.059,0.911,0.00,0.00,0.00,8.80,-0.97,15.56,0.06,3.67,-1.31,-1.28,15.59,2.82,1180,1192,1158,1166,1178,1500,1544,11104,828
33305,0,-1.35,-10.71,-0.90,0.064,-0.035,0.959,0.00,0.00,0.00,8.80,1.35,19.51,0.06,3.72,-1.29,2.08,17.82,0.96,1180,1192,1158,1166,1178,1500,1544,11087,828
33318,0,-0.75,-14.37,0.65,0.230,-0.086,0.817,0.00,0.00,0.00,9.00,0.75,23.37,0.06,3.74,-1.28,1.61,28.19,-2.90,1194,1174,1184,1156,1177,1500,1545,11095,773
33329,0,-0.27,25.80,-0.44,0.117,-0.029,0.995,0.00,0.00,0.00,8.40,0.27,-17.40,0.06,3.76,-1.26,1.19,-38.06,-0.16,1194,1174,1184,1156,1185,1500,1542,11108,773
33341,0,2.32,-13.30,-0.68,0.128,-0.018,0.832,0.00,0.00,0.00,8.40,-2.32,21.70,0.06,3.81,-1.26,-3.33,22.90,0.44,1194,1174,1184,1156,1185,1500,1542,11108,773
33353,0,3.89,-12.77,-0.62,0.077,-0.101,0.907,0.00,0.00,0.00,8.60,-3.89,21.37,0.06,3.80,-1.25,-5.92,28.71,0.30,1194,1174,1184,1156,1185,1500,1543,11100,773
33365,0,-1.55,20.97,-1.94,-0.133,-0.017,1.115,0.00,0.00,0.00,8.60,1.55,-12.37,0.06,3.83,-1.22,2.48,-28.39,3.64,1194,1174,1184,1156,1185,1500,1543,11125,773
33378,0,-3.75,-19.74,0.20,0.180,-0.027,0.788,0.00,0.00,0.00,8.40,3.75,28.14,0.05,3.86,-1.18,6.91,37.57,-1.69,1194,1174,1184,1156,1186,1500,1542,11125,773
33389,0,3.39,20.72,-2.35,0.102,-0.081,0.975,0.00,0.00,0.00,11.40,-3.39,-9.32,0.05,3.86,-1.12,-3.76,-23.44,4.75,1194,1174,1184,1156,1171,1500,1557,11133,773
33401,0,9.76,1.50,-2.94,-0.069,0.009,1.014,0.00,0.00,0.00,11.40,-9.76,9.90,0.05,3.92,-1.06,-15.96,1.42,6.28,1194,1174,1184,1156,1171,1500,1557,11125,773
33413,0,-8.98,-26.28,-2.15,0.113,-0.091,0.847,0.00,0.00,0.00,8.80,8.98,35.08,0.06,3.93,-0.99,13.69,51.29,4.39,1169,1165,1213,1189,1184,1500,1544,11150,772
33425,0,-12.51,27.03,-3.69,-0.098,-0.007,1.118,0.00,0.00,0.00,8.80,12.51,-18.23,0.06,3.93,-0.91,20.20,-34.83,8.32,1169,1165,1213,1189,1184,1500,1544,11154,772
33438,0,6.10,-14.82,-2.95,0.053,-0.003,0.914,0.00,0.00,0.00,0.00,-6.10,14.82,0.05,3.95,-0.82,-9.59,27.92,6.55,1169,1165,1213,1189,1212,1500,1517,11133,772
33449,0,9.33,2.25,-3.45,0.038,-0.140,0.989,0.00,0.00,0.00,0.00,-9.33,-2.25,0.05,3.92,-0.70,-15.52,5.00,7.94,1169,1165,1213,1189,1212,1500,1517,11162,772
33461,0,2.20,16.54,-4.54,-0.154,-0.078,1.099,0.00,0.00,0.00,0.00,-2.20,-16.54,0.06,3.93,-0.57,-5.07,-23.43,10.78,1169,1165,1213,1189,1212,1500,1517,11116,772
33473,0,-14.39,-17.77,-5.51,0.008,-0.113,0.927,0.00,0.00,0.00,8.40,14.39,26.17,0.07,3.95,-0.43,22.76,37.83,13.36,1169,1165,1213,1189,1187,1500,1542,11133,772
33485,0,-5.08,6.10,-6.87,-0.073,-0.067,1.038,0.00,0.00,0.00,8.40,5.08,2.30,0.06,3.94,-0.26,9.33,1.32,16.93,1169,1165,1213,1189,1187,1499,1542,11133,772
33498,0,11.84,9.53,-5.67,-0.103,-0.107,1.127,0.00,0.00,0.00,8.40,-11.84,-1.13,0.05,3.96,-0.06,-18.89,-4.46,14.11,1169,1165,1213,1189,1187,1499,1542,11104,772
33509,0,2.52,9.00,-6.29,-0.093,-0.142,1.070,0.00,0.00,0.00,11.80,-2.52,2.80,0.06,3.97,0.16,-4.79,-2.26,15.90,1161,1187,1183,1149,1170,1499,1559,11100,771
33521,0,-5.45,-10.31,-7.41,-0.036,-0.073,1.045,0.00,0.00,0.00,11.80,5.45,22.11,0.06,4.02,0.36,8.98,26.00,18.88,1161,1187,1183,1149,1170,1499,1559,11100,771
33533,0,-0.09,0.74,-4.67,-0.103,-0.035,1.119,0.00,0.00,0.00,8.40,0.09,7.66,0.05,4.04,0.51,1.66,6.12,12.19,1161,1187,1183,1149,1186,1500,1542,11112,771
33545,0,0.58,-16.53,-1.84,-0.023,-0.069,1.000,0.00,0.00,0.00,8.40,-0.58,24.93,0.05,4.07,0.59,0.14,32.11,5.17,1161,1187,1183,1149,1186,1500,1542,11120,771
33557,0,-0.18,6.97,-3.18,-0.043,-0.022,1.095,0.00,0.00,0.00,8.20,0.18,1.23,0.05,4.07,0.65,0.32,-1.77,8.61,1161,1187,1183,1149,1188,1500,1541,11104,771
33569,0,-1.67,11.97,-0.63,-0.016,-0.033,1.086,0.00,0.00,0.00,17.40,1.67,5.43,0.06,4.09,0.71,0.76,-6.69,2.28,1161,1187,1183,1149,1142,1500,1587,11150,771
33581,0,-8.73,23.72,-2.09,-0.010,-0.043,1.096,0.00,0.00,0.00,17.40,8.73,-6.32,0.07,4.10,0.75,11.99,-20.37,5.98,1161,1187,1183,1149,1142,1500,1587,11133,771
33593,0,1.59,20.29,-3.07,-0.154,0.033,1.156,0.00,0.00,0.00,0.00,-1.59,-20.29,0.07,4.10,0.82,-4.74,-22.20,8.50,1161,1187,1183,1149,1213,1500,1517,11116,771
33605,0,-0.92,-13.09,0.58,-0.105,-0.025,1.077,0.00,0.00,0.00,0.00,0.92,13.09,0.07,4.09,0.84,0.30,33.57,-0.62,1161,1187,1183,1149,1213,1500,1517,11141,771
33618,0,4.37,0.63,-0.11,-0.121,0.008,1.130,0.00,0.00,0.00,10.60,-4.37,9.97,0.07,4.11,0.87,-7.48,12.39,1.14,1160,1194,1164,1190,1177,1500,1553,11179,771
33629,0,2.11,-2.59,-1.50,-0.033,0.019,1.032,0.00,0.00,0.00,0.00,-2.11,2.59,0.07,4.14,0.86,-3.02,9.71,4.60,1160,1194,1164,1190,1213,1500,1518,11179,771
33641,0,4.44,6.80,1.88,0.008,-0.012,1.024,0.00,0.00,0.00,0.00,-4.44,-6.80,0.06,4.14,0.87,-5.62,-6.96,-3.83,1160,1194,1164,1190,1213,1500,1518,11166,771
33653,0,3.34,7.63,-2.00,-0.081,0.010,1.134,0.00,0.00,0.00,9.00,-3.34,1.37,0.06,4.16,0.92,-4.46,-5.64,5.92,1160,1194,1164,1190,1187,1500,1545,11150,771
33665,0,-7.61,-25.81,-0.03,0.062,-0.020,0.921,0.00,0.00,0.00,9.00,7.61,34.81,0.06,4.20,0.90,13.08,47.81,0.98,1160,1194,1164,1190,1187,1500,1545,11133,771
33677,0,-3.60,6.45,0.36,0.096,-0.027,1.027,0.00,0.00,0.00,0.00,3.60,-6.45,0.06,4.19,0.90,7.09,-7.59,0.01,1160,1194,1164,1190,1215,1500,1517,11100,771
33689,0,6.62,3.26,0.62,0.123,-0.014,1.011,0.00,0.00,0.00,8.40,-6.62,5.14,0.06,4.22,0.86,-10.29,-3.43,-0.70,1160,1194,1164,1190,1192,1499,1542,11120,771
33701,0,3.34,-23.55,1.02,0.244,-0.100,0.795,0.00,0.00,0.00,8.40,-3.34,31.95,0.06,4.26,0.86,-6.20,39.63,-1.69,1160,1194,1164,1190,1192,1499,1542,11108,771
33713,0,2.82,15.90,-3.71,0.062,-0.089,1.031,0.00,0.00,0.00,8.40,-2.82,-7.50,0.07,4.26,0.90,-5.87,-18.68,10.18,1211,1145,1247,1165,1192,1499,1542,11133,770
33725,0,-14.08,-2.13,1.30,0.072,-0.023,0.935,0.00,0.00,0.00,8.40,14.08,10.53,0.08,4.28,0.89,21.57,10.16,-2.35,1211,1145,1247,1165,1192,1499,1542,11133,770
33738,0,-6.85,5.03,1.60,0.143,-0.015,0.983,0.00,0.00,0.00,8.20,6.85,3.17,0.06,4.31,0.89,12.74,-1.88,-3.10,1211,1145,1247,1165,1193,1499,1541,11145,770
33749,0,16.98,-10.51,-0.22,0.107,0.024,0.956,0.00,0.00,0.00,8.80,-16.98,19.31,0.05,4.35,0.87,-25.33,19.76,1.42,1211,1145,1247,1165,1193,1500,1544,11100,770
33761,0,6.91,-11.11,-1.12,0.084,-0.061,0.937,0.00,0.00,0.00,8.80,-6.91,19.91,0.05,4.35,0.90,-9.64,26.33,3.70,1211,1145,1247,1165,1193,1500,1544,11083,770
33773,0,-1.76,5.87,-1.05,0.028,-0.029,1.023,0.00,0.00,0.00,0.00,1.76,-5.87,0.05,4.37,0.89,4.12,-7.66,3.53,1211,1145,1247,1165,1217,1500,1519,11129,770
33785,0,-10.48,-8.36,-0.24,0.149,-0.031,0.883,0.00,0.00,0.00,0.00,10.48,8.36,0.05,4.38,0.91,18.22,15.21,1.51,1211,1145,1247,1165,1217,1499,1519,11108,770
33798,0,-1.85,4.26,-0.93,0.125,-0.054,1.003,0.00,0.00,0.00,8.60,1.85,4.34,0.04,4.39,0.93,4.99,0.22,3.25,1211,1145,1247,1165,1194,1499,1543,11129,770
33809,0,8.50,-11.54,0.95,0.141,-0.052,0.917,0.00,0.00,0.00,11.00,-8.50,22.54,0.05,4.43,0.93,-14.07,24.19,-1.45,1172,1218,1142,1192,1181,1500,1555,11137,770
33821,0,0.24,-3.13,0.67,0.106,-0.112,0.932,0.00,0.00,0.00,11.00,-0.24,14.13,0.06,4.46,0.92,-1.88,10.71,-0.74,1172,1218,1142,1192,1181,1500,1555,11141,770
33833,0,-6.19,0.33,-0.78,0.104,-0.061,0.971,0.00,0.00,0.00,0.00,6.19,-0.33,0.06,4.48,0.92,9.28,0.48,2.88,1172,1218,1142,1192,1219,1499,1518,11141,770
33845,0,-1.52,9.71,-0.97,0.096,-0.056,0.965,0.00,0.00,0.00,0.00,1.52,-9.71,0.05,4.47,0.92,3.42,-11.87,3.34,1172,1218,1142,1192,1219,1500,1518,11129,770
33858,0,5.28,-14.66,-0.39,0.094,-0.061,0.923,0.00,0.00,0.00,8.00,-5.28,22.66,0.05,4.52,0.95,-7.74,27.38,1.93,1172,1218,1142,1192,1197,1500,1540,11091,770
33869,0,1.34,-3.56,0.16,0.058,-0.073,0.963,0.00,0.00,0.00,0.00,-1.34,3.56,0.05,4.51,0.96,-1.60,9.54,0.56,1172,1218,1142,1192,1224,1500,1519,11066,770
33881,0,-0.83,0.27,1.71,0.066,-0.053,0.960,0.00,0.00,0.00,0.00,0.83,-0.27,0.05,4.53,0.93,1.15,0.62,-3.33,1172,1218,1142,1192,1224,1500,1519,11066,770
33893,0,-5.50,4.82,0.37,0.050,-0.063,0.981,0.00,0.00,0.00,13.00,5.50,8.18,0.05,4.53,0.92,8.59,3.39,-0.02,1172,1218,1142,1192,1174,1500,1565,11066,770
33905,0,3.72,8.88,-1.63,-0.105,-0.021,1.094,0.00,0.00,0.00,13.00,-3.72,4.12,0.05,4.55,0.93,-6.40,-1.12,5.00,1172,1218,1142,1192,1174,1500,1565,11100,770
33918,0,4.83,4.63,-0.07,-0.096,-0.092,1.105,0.00,0.00,0.00,8.80,-4.83,4.17,0.05,4.55,0.94,-7.86,7.27,1.12,1200,1192,1208,1188,1197,1500,1544,11095,773
33929,0,-1.20,-5.02,-0.78,-0.034,-0.048,1.020,0.00,0.00,0.00,8.00,1.20,13.02,0.06,4.58,0.98,1.40,18.07,2.94,1200,1192,1208,1188,1201,1500,1540,11079,773
33941,0,-7.07,4.01,0.33,-0.005,-0.073,1.037,0.00,0.00,0.00,8.00,7.07,3.99,0.05,4.59,0.96,11.75,3.89,0.14,1200,1192,1208,1188,1201,1500,1540,11100,773
33953,0,-0.56,3.71,1.94,-0.026,-0.027,1.028,0.00,0.00,0.00,9.00,0.56,5.29,0.05,4.62,0.95,1.27,1.42,-3.90,1200,1192,1208,1188,1196,1500,1545,11083,773
33965,0,2.80,-16.13,-0.41,0.048,-0.061,0.960,0.00,0.00,0.00,9.00,-2.80,25.13,0.05,4.65,0.94,-4.30,34.86,1.97,1200,1192,1208,1188,1196,1500,1545,11083,773
33978,0,5.51,8.77,0.44,-0.132,-0.035,1.125,0.00,0.00,0.00,17.40,-5.51,8.63,0.06,4.67,0.93,-9.67,-0.04,-0.18,1200,1192,1208,1188,1158,1500,1587,11075,773
33989,0,-4.96,-3.68,-1.20,-0.030,-0.076,1.039,0.00,0.00,0.00,8.60,4.96,12.28,0.06,4.71,0.96,7.35,15.15,3.96,1200,1192,1208,1188,1200,1500,1543,11095,773
34001,0,-6.35,13.78,-1.17,0.007,-0.004,1.052,0.00,0.00,0.00,8.60,6.35,-5.18,0.06,4.72,0.98,10.10,-13.10,3.90,1200,1192,1208,1188,1200,1500,1543,11095,773
34013,0,5.28,2.14,0.72,0.002,0.016,1.025,0.00,0.00,0.00,8.60,-5.28,6.46,0.05,4.76,0.98,-8.44,3.46,-0.81,1168,1238,1168,1234,1202,1500,1543,11116,772
34025,0,8.62,-4.99,1.13,-0.015,-0.062,0.984,0.00,0.00,0.00,8.60,-8.62,13.59,0.06,4.76,0.97,-14.39,19.21,-1.85,1168,1238,1168,1234,1202,1500,1543,11116,772
34037,0,-0.07,-1.32,-1.04,-0.103,-0.060,1.067,0.00,0.00,0.00,8.00,0.07,9.32,0.06,4.78,0.97,-0.87,10.89,3.56,1168,1238,1168,1234,1209,1500,1540,11120,772
34049,0,-6.51,4.38,0.19,-0.002,-0.068,1.057,0.00,0.00,0.00,0.00,6.51,-4.38,0.06,4.78,0.90,10.30,1.68,-20.28,1168,1238,1168,1234,1248,1500,1517,11087,772
34061,0,-5.91,20.98,-1.64,-0.086,-0.040,1.141,0.00,0.00,0.00,0.00,5.91,-20.98,0.06,4.77,0.68,10.61,-26.98,-15.92,1168,1238,1168,1234,1248,1500,1517,11070,772
34073,0,4.39,-19.93,0.94,0.147,-0.063,0.907,0.00,0.00,0.00,8.20,-4.39,28.13,0.05,4.80,0.57,-5.46,42.20,-1.79,1168,1238,1168,1234,1204,1499,1541,11104,772
34085,0,11.27,13.41,-0.86,-0.077,-0.077,1.113,0.00,0.00,0.00,8.20,-11.27,-5.21,0.05,4.81,0.59,-17.62,-13.56,2.75,1168,1238,1168,1234,1204,1500,1541,11070,772
34098,0,-2.77,-11.12,1.36,0.032,-0.127,0.936,0.00,0.00,0.00,4.60,2.77,15.72,0.06,4.82,0.59,4.05,26.79,-2.80,1168,1238,1168,1234,1221,1500,1523,11066,772
34109,0,-12.59,16.62,-0.49,-0.086,-0.064,1.112,0.00,0.00,0.00,11.80,12.59,-4.82,0.06,4.83,0.61,20.36,-16.97,1.84,1180,1150,1222,1188,1185,1500,1559,11054,775
34121,0,-5.98,-2.64,1.74,0.105,-0.044,0.967,0.00,0.00,0.00,11.80,5.98,14.44,0.05,4.85,0.55,10.18,17.14,-3.80,1180,1150,1222,1188,1185,1500,1559,11091,775
34133,0,4.73,-0.87,-0.86,0.010,-0.052,1.056,0.00,0.00,0.00,8.00,-4.73,8.87,0.05,4.89,0.56,-6.78,7.27,2.72,1180,1150,1222,1188,1204,1500,1540,11050,775
34145,0,1.53,-7.90,-1.66,0.083,-0.068,0.977,0.00,0.00,0.00,8.00,-1.53,15.90,0.05,4.89,0.60,-1.80,23.52,4.75,1180,1150,1222,1188,1204,1500,1540,11041,775
34158,0,4.62,-4.46,-1.02,0.078,-0.064,0.970,0.00,0.00,0.00,8.40,-4.62,12.86,0.05,4.94,0.62,-7.57,12.25,3.17,1180,1150,1222,1188,1202,1500,1542,11075,775
34169,0,2.32,-2.31,-0.94,0.038,-0.038,0.986,0.00,0.00,0.00,7.80,-2.32,10.11,0.05,4.96,0.66,-3.83,9.57,3.01,1180,1150,1222,1188,1205,1500,1539,11091,775
34181,0,-0.51,5.28,0.48,-0.041,-0.098,1.045,0.00,0.00,0.00,7.80,0.51,2.52,0.05,4.96,0.65,0.55,1.51,-0.55,1180,1150,1222,1188,1205,1500,1539,11095,775
34193,0,-1.67,5.52,0.89,-0.098,-0.078,1.073,0.00,0.00,0.00,7.80,1.67,2.28,0.06,4.97,0.65,1.18,1.19,-1.58,1180,1150,1222,1188,1205,1500,1539,11091,775
34205,0,-5.14,4.84,0.25,0.015,-0.107,1.007,0.00,0.00,0.00,7.80,5.14,2.96,0.06,4.97,0.65,7.62,6.37,0.01,1180,1150,1222,1188,1205,1499,1539,11108,775
34218,0,-5.91,5.06,-0.45,0.001,-0.018,1.025,0.00,0.00,0.00,11.60,5.91,6.54,0.06,5.02,0.65,8.95,0.08,1.76,1141,1237,1135,1231,1186,1499,1558,11079,775
34229,0,-1.29,6.31,-1.84,0.094,-0.017,1.030,0.00,0.00,0.00,8.00,1.29,1.69,0.05,5.03,0.69,2.95,-0.54,5.28,1141,1237,1135,1231,1204,1500,1540,11083,775
34241,0,8.07,-0.64,-0.39,0.002,0.009,1.021,0.00,0.00,0.00,8.00,-8.07,8.64,0.06,5.07,0.70,-13.19,7.43,1.66,1141,1237,1135,1231,1204,1500,1540,11083,775
34253,0,8.79,-5.84,-2.02,-0.073,-0.093,1.086,0.00,0.00,-10.40,0.00,-19.19,5.84,0.03,5.05,0.75,-18.87,18.81,5.80,1141,1237,1135,1231,1227,1448,1520,11066,775
34265,0,-5.15,0.97,1.51,-0.202,-0.115,1.096,0.00,0.00,0.00,0.00,5.15,-0.97,0.04,5.03,0.74,4.76,8.09,-3.02,1141,1237,1135,1231,1227,1500,1520,11070,775
34278,0,-5.10,6.86,-0.85,-0.150,-0.109,1.086,0.00,0.00,0.00,8.60,5.10,1.74,0.03,5.05,0.75,6.18,1.99,2.88,1141,1237,1135,1231,1201,1500,1543,11083,775
34289,0,-14.09,8.88,0.38,0.007,-0.101,1.006,0.00,0.00,0.00,8.00,14.09,-0.88,0.03,5.07,0.77,22.88,-4.22,-0.17,1141,1237,1135,1231,1204,1499,1540,11112,775
34301,0,-3.56,1.49,-0.25,0.133,-0.011,0.949,0.00,0.00,0.00,8.00,3.56,6.51,0.03,5.09,0.76,6.02,6.48,1.38,1141,1237,1135,1231,1204,1499,1540,11100,775
34313,0,9.83,-1.77,-0.01,0.074,-0.025,1.013,0.00,0.00,0.00,11.00,-9.83,12.77,0.02,5.13,0.79,-15.73,10.78,0.81,1170,1236,1158,1200,1191,1499,1555,11116,774
34325,0,10.73,-20.75,-0.20,0.147,-0.046,0.895,0.00,0.00,0.00,11.00,-10.73,31.75,0.03,5.15,0.79,-18.82,44.02,1.29,1170,1236,1158,1200,1191,1499,1555,11091,774
34338,0,1.55,0.06,-1.87,-0.015,-0.115,1.033,0.00,0.00,0.00,8.00,-1.55,7.94,0.04,5.18,0.81,-4.50,4.85,5.47,1170,1236,1158,1200,1206,1499,1540,11066,774
34349,0,-6.48,-2.86,-0.25,0.039,-0.097,0.923,0.00,0.00,0.00,8.20,6.48,11.06,0.04,5.19,0.81,8.81,14.81,1.45,1170,1236,1158,1200,1204,1500,1541,11075,774
34361,0,-4.85,13.40,-0.04,-0.018,-0.100,1.052,0.00,0.00,0.00,8.20,4.85,-5.20,0.04,5.21,0.83,7.87,-13.68,0.93,1170,1236,1158,1200,1204,1500,1541,11104,774
34373,0,-5.34,1.17,-1.30,0.043,-0.069,0.925,0.00,0.00,0.00,8.60,5.34,7.43,0.04,5.23,0.88,9.09,6.96,4.14,1170,1236,1158,1200,1202,1500,1543,11129,774
34385,0,3.82,-0.30,-2.87,-0.002,-0.022,1.009,0.00,0.00,0.00,8.60,-3.82,8.90,0.03,5.24,0.95,-5.09,10.78,8.13,1170,1236,1158,1200,1202,1500,1543,11116,774
34398,0,5.34,-0.86,-1.31,0.011,-0.036,1.033,0.00,0.00,0.00,18.20,-5.34,19.06,0.03,5.30,1.03,-7.67,12.13,4.31,1170,1236,1158,1200,1154,1500,1591,11100,774
34409,0,-0.61,0.71,-3.04,0.086,-0.060,0.987,0.00,0.00,0.00,7.60,0.61,6.89,0.03,5.33,1.08,2.19,7.39,8.68,1190,1220,1210,1208,1207,1500,1538,11108,774
34421,0,0.40,-12.80,-2.71,0.050,-0.020,0.946,0.00,0.00,0.00,7.60,-0.40,20.40,0.03,5.37,1.12,-0.56,25.25,7.89,1190,1220,1210,1208,1207,1500,1538,11133,774
34433,0,5.72,-10.27,-2.10,0.031,-0.083,0.955,0.00,0.00,0.00,8.40,-5.72,18.67,0.03,5.39,1.18,-9.54,24.05,6.44,1190,1220,1210,1208,1203,1500,1542,11133,774
34445,0,-9.69,-2.96,-3.28,-0.002,-0.078,0.965,0.00,0.00,0.00,8.40,9.69,11.36,0.04,5.41,1.27,14.92,11.10,9.47,1190,1220,1210,1208,1203,1500,1542,11133,774
34458,0,-10.91,21.64,-0.38,0.023,-0.056,1.065,0.00,0.00,0.00,0.00,10.91,-21.64,0.04,5.38,1.33,17.47,-26.66,2.29,1190,1220,1210,1208,1226,1500,1519,11116,774
34469,0,-1.33,-9.66,-2.43,0.173,0.015,0.904,0.00,0.00,0.00,7.60,1.33,17.26,0.04,5.42,1.39,1.48,22.01,7.46,1190,1220,1210,1208,1207,1500,1538,11083,774
34481,0,9.70,8.10,-0.04,0.020,-0.047,1.037,0.00,0.00,0.00,7.60,-9.70,-0.50,0.03,5.40,1.41,-15.52,-0.53,1.51,1190,1220,1210,1208,1207,1500,1538,11066,774
34493,0,7.26,-17.34,-1.49,-0.067,-0.049,1.033,0.00,0.00,0.00,22.40,-7.26,39.74,0.04,5.47,1.41,-13.63,41.74,5.14,1190,1220,1210,1208,1133,1500,1612,11100,774
34505,0,3.03,13.44,0.51,-0.126,-0.092,1.086,0.00,0.00,0.00,22.40,-3.03,8.96,0.04,5.48,1.42,-5.77,-1.32,0.15,1190,1220,1210,1208,1133,1500,1612,11100,774
34518,0,-11.92,-15.30,-1.45,0.065,-0.078,0.925,0.00,0.00,0.00,7.80,11.92,23.10,0.04,5.53,1.43,18.79,33.43,5.06,1185,1257,1159,1227,1207,1500,1539,11100,774
34529,0,-7.01,25.63,-0.57,0.010,-0.057,1.083,0.00,0.00,0.00,8.40,7.01,-17.23,0.03,5.54,1.48,13.64,-33.58,2.90,1185,1257,1159,1227,1204,1500,1542,11133,774
34541,0,7.04,-5.60,-1.66,0.108,-0.019,0.931,0.00,0.00,0.00,8.40,-7.04,14.00,0.02,5.58,1.54,-9.70,16.02,5.68,1185,1257,1159,1227,1204,1500,1542,11133,774
34553,0,7.53,1.95,-1.69,0.055,-0.065,1.021,0.00,0.00,0.00,7.60,-7.53,5.65,0.02,5.57,1.60,-10.99,7.56,5.82,1185,1257,1159,1227,1209,1500,1538,11133,774
34565,0,-0.72,-3.56,-2.28,0.092,-0.093,0.968,0.00,0.00,0.00,7.60,0.72,11.16,0.03,5.61,1.62,0.97,12.21,7.33,1185,1257,1159,1227,1209,1499,1538,11129,774
34578,0,-2.43,14.76,-2.99,-0.045,-0.042,1.051,0.00,0.00,0.00,8.60,2.43,-6.16,0.03,5.61,1.69,3.42,-12.10,9.17,1185,1257,1159,1227,1205,1499,1543,11087,774
34589,0,-4.29,-1.78,-2.38,-0.065,-0.074,1.062,0.00,0.00,0.00,4.40,4.29,6.18,0.03,5.61,1.75,6.63,14.86,7.71,1185,1257,1159,1227,1226,1499,1522,11066,774
34601,0,1.71,0.46,1.86,-0.050,-0.079,1.066,0.00,0.00,0.00,4.40,-1.71,3.94,0.03,5.62,1.76,-3.00,10.50,-2.89,1185,1257,1159,1227,1226,1499,1522,11066,774
34613,0,2.47,3.68,-0.23,-0.025,-0.038,1.040,0.00,0.00,0.00,7.40,-2.47,3.72,0.03,5.64,1.77,-4.08,3.59,2.34,1184,1226,1202,1228,1210,1500,1537,11066,775
34625,0,-3.29,3.42,-0.76,0.009,-0.033,1.040,0.00,0.00,0.00,7.40,3.29,3.98,0.03,5.65,1.77,6.13,5.69,3.66,1184,1226,1202,1228,1210,1499,1537,11041,775
34638,0,1.32,6.67,-0.09,-0.062,-0.014,1.075,0.00,0.00,0.00,4.40,-1.32,-2.27,0.03,5.67,1.76,-1.87,-3.54,1.98,1184,1226,1202,1228,1226,1499,1522,11041,775
34649,0,4.74,-20.81,-0.58,0.035,-0.067,0.939,0.00,0.00,0.00,10.80,-4.74,31.61,0.03,5.69,1.76,-7.73,43.52,3.21,1184,1226,1202,1228,1194,1500,1554,11012,775
34661,0,-1.26,-0.54,0.42,-0.065,-0.066,1.056,0.00,0.00,0.00,10.80,1.26,11.34,0.04,5.71,1.73,0.94,10.92,0.69,1184,1226,1202,1228,1194,1500,1554,11004,775
34673,0,-5.42,7.76,2.17,0.000,-0.086,1.037,0.00,0.00,0.00,7.40,5.42,-0.36,0.04,5.73,1.73,8.11,-3.98,-3.68,1184,1226,1202,1228,1211,1500,1537,11012,775
34685,0,-7.20,10.41,-0.96,0.023,-0.023,1.015,0.00,0.00,0.00,7.40,7.20,-3.01,0.04,5.74,1.75,11.51,-8.03,4.16,1184,1226,1202,1228,1211,1500,1537,11033,775
34697,0,5.02,-7.38,-0.65,0.091,-0.018,1.004,0.00,0.00,0.00,26.20,-5.02,33.58,0.03,5.82,1.78,-7.65,26.83,3.40,1184,1226,1202,1228,1118,1500,1631,11066,775
34709,0,9.56,-9.46,-0.35,0.027,-0.036,1.043,0.00,0.00,0.00,7.40,-9.56,16.86,0.03,5.87,1.77,-14.76,23.23,2.65,1201,1251,1177,1219,1212,1500,1537,11091,775
34721,0,4.61,-17.72,-0.79,0.080,-0.059,0.961,0.00,0.00,0.00,7.40,-4.61,25.12,0.03,5.89,1.75,-6.88,36.68,3.74,1201,1251,1177,1219,1212,1500,1537,11100,775
34733,0,0.59,8.95,-0.45,-0.050,-0.066,1.062,0.00,0.00,0.00,7.80,-0.59,-1.15,0.03,5.90,1.76,-0.74,-6.90,2.90,1201,1251,1177,1219,1210,1500,1539,11100,775
34745,0,-5.21,2.34,-0.67,0.051,-0.037,0.973,0.00,0.00,0.00,7.80,5.21,5.46,0.03,5.92,1.79,8.71,5.58,3.47,1201,1251,1177,1219,1210,1500,1539,11104,775
34758,0,-4.09,16.09,1.07,0.030,-0.039,1.025,0.00,0.00,0.00,10.20,4.09,-5.89,0.03,5.94,1.79,7.14,-15.11,-0.89,1201,1251,1177,1219,1199,1500,1551,11116,775
34769,0,2.26,-7.04,0.53,0.071,-0.015,0.977,0.00,0.00,0.00,7.60,-2.26,14.64,0.03,5.97,1.81,-3.66,19.89,0.48,1201,1251,1177,1219,1212,1500,1538,11095,775
34781,0,0.55,-5.24,-1.27,0.068,-0.082,0.963,0.00,0.00,0.00,7.60,-0.55,12.84,0.03,5.98,1.79,-1.22,18.42,4.97,1201,1251,1177,1219,1212,1500,1538,11091,775
34793,0,1.95,10.39,-0.67,0.054,-0.082,1.050,0.00,0.00,0.00,13.40,-1.95,3.01,0.03,6.01,1.79,-3.07,-6.72,3.46,1201,1251,1177,1219,1183,1501,1567,11087,775
34805,0,-0.98,-8.24,-1.80,0.144,-0.059,0.914,0.00,0.00,0.00,13.40,0.98,21.64,0.03,6.07,1.83,1.81,20.69,6.33,1201,1251,1177,1219,1183,1499,1567,11054,775
34818,0,1.30,9.73,-0.11,0.076,-0.097,1.014,0.00,0.00,0.00,9.80,-1.30,0.07,0.02,6.08,1.87,-1.13,-6.66,2.15,1189,1215,1205,1199,1202,1499,1549,11083,774
34829,0,-1.73,-11.70,1.13,0.061,-0.053,0.949,0.00,0.00,0.00,7.40,1.73,19.10,0.03,6.13,1.87,2.69,22.78,-0.96,1189,1215,1205,1199,1214,1499,1537,11100,774
34841,0,-2.43,0.51,0.22,0.106,-0.056,0.948,0.00,0.00,0.00,7.40,2.43,6.89,0.03,6.12,1.85,4.49,9.15,1.30,1189,1215,1205,1199,1214,1499,1537,11112,774
34853,0,-4.05,10.67,-0.18,0.009,-0.029,1.042,0.00,0.00,0.00,11.00,4.05,0.33,0.03,6.15,1.82,6.58,-6.79,2.28,1189,1215,1205,1199,1196,1499,1555,11100,774
34865,0,-0.81,-0.86,-0.08,0.077,-0.078,0.977,0.00,0.00,-4.40,11.00,-3.59,11.86,0.03,6.16,1.81,-0.76,14.75,2.01,1189,1215,1205,1199,1196,1478,1555,11129,774
34877,0,11.80,-5.66,-1.29,0.040,-0.076,1.017,0.00,0.00,-4.40,5.00,-16.20,10.66,0.02,6.18,1.82,-21.92,18.23,5.04,1189,1215,1205,1199,1243,1478,1525,11104,774
34889,0,-1.54,-8.73,0.95,-0.000,-0.143,0.971,0.00,0.00,0.00,8.00,1.54,16.73,0.02,6.19,1.82,1.14,24.89,-0.55,1189,1215,1205,1199,1211,1500,1540,11120,774
34901,0,-7.66,7.84,0.73,-0.046,-0.062,1.047,0.00,0.00,0.00,8.00,7.66,0.16,0.02,6.21,1.82,11.84,-2.96,-0.01,1189,1215,1205,1199,1211,1500,1540,11116,774
34913,0,-13.32,2.69,0.34,0.028,-0.032,0.950,0.00,0.00,0.00,7.80,13.32,5.11,0.02,6.23,1.79,22.26,5.30,0.95,1224,1230,1196,1206,1214,1500,1539,11154,772
34925,0,4.34,5.06,-0.39,0.033,0.015,1.061,0.00,0.00,0.00,7.80,-4.34,2.74,0.01,6.25,1.80,-5.88,1.27,2.78,1224,1230,1196,1206,1214,1500,1539,11120,772
34938,0,9.31,2.94,-0.82,0.009,-0.088,1.038,0.00,0.00,0.00,9.80,-9.31,6.86,0.01,6.26,1.80,-15.30,8.34,3.85,1224,1230,1196,1206,1204,1500,1549,11116,772
34949,0,9.95,-9.92,-1.94,0.050,-0.088,0.984,0.00,0.00,0.00,7.20,-9.95,17.12,0.02,6.26,1.85,-17.21,30.17,6.70,1224,1230,1196,1206,1221,1500,1536,11087,772
34961,0,1.42,1.56,-0.50,-0.084,-0.133,1.036,0.00,0.00,0.00,7.20,-1.42,5.64,0.01,6.28,1.87,-2.05,8.81,3.12,1224,1230,1196,1206,1221,1500,1536,11087,772
34973,0,-5.14,15.82,0.02,-0.087,-0.099,1.083,0.00,0.00,0.00,7.40,5.14,-8.42,0.01,6.27,1.88,9.05,-10.29,1.82,1224,1230,1196,1206,1221,1500,1537,11058,772
34985,0,-10.46,2.67,1.45,0.006,-0.087,1.018,0.00,0.00,0.00,7.40,10.46,4.73,0.01,6.30,1.87,18.75,7.08,-1.75,1224,1230,1196,1206,1221,1500,1537,11054,772
34998,0,-7.21,16.08,-0.76,0.031,-0.056,1.025,0.00,0.00,0.00,7.80,7.21,-8.28,0.00,6.29,1.87,13.64,-10.63,3.78,1224,1230,1196,1206,1224,1500,1539,11016,772
35009,0,8.94,-23.07,-0.17,0.115,-0.037,0.930,0.00,0.00,0.00,7.40,-8.94,30.47,-0.01,6.35,1.90,-12.48,45.58,2.32,1193,1287,1173,1259,1228,1500,1537,11021,772
35021,0,11.04,4.85,-2.98,-0.016,-0.085,1.084,0.00,0.00,0.00,7.40,-11.04,2.55,-0.01,6.35,1.97,-16.92,2.03,9.42,1193,1287,1173,1259,1228,1500,1537,11033,772
35033,0,0.56,-4.87,-3.49,0.028,-0.118,0.956,0.00,0.00,0.00,10.40,-0.56,15.27,0.00,6.39,2.05,-1.32,16.92,10.77,1193,1287,1173,1259,1213,1500,1552,11054,772
35045,0,-2.31,15.80,-3.41,-0.063,-0.064,1.040,0.00,0.00,0.00,10.40,2.31,-5.40,0.00,6.39,2.14,3.28,-12.14,10.67,1193,1287,1173,1259,1213,1500,1552,11066,772
35057,0,-2.83,-2.42,-0.59,0.046,-0.084,0.950,0.00,0.00,0.00,4.80,2.83,7.22,0.00,6.40,2.17,4.50,14.74,3.66,1193,1287,1173,1259,1242,1500,1524,11075,772
35069,0,-2.07,11.94,-3.13,-0.095,-0.056,1.104,0.00,0.00,0.00,18.20,2.07,6.26,0.00,6.41,2.25,3.58,-2.96,10.08,1193,1287,1173,1259,1175,1499,1591,11037,772
35081,0,-0.59,2.35,-2.22,-0.052,-0.054,1.029,0.00,0.00,0.00,18.20,0.59,15.85,0.00,6.44,2.36,1.11,14.07,7.91,1193,1287,1173,1259,1175,1499,1591,11033,772
35093,0,2.81,-4.81,-3.05,-0.002,-0.014,1.009,0.00,0.00,0.00,5.00,-2.81,9.81,-0.00,6.48,2.47,-4.17,15.86,10.09,1193,1287,1173,1259,1242,1500,1525,11058,772
35105,0,-2.33,0.57,-1.63,0.024,-0.042,1.009,0.00,0.00,0.00,5.00,2.33,4.43,-0.00,6.50,2.55,4.06,6.19,6.61,1193,1287,1173,1259,1242,1499,1525,11062,772
35118,0,-1.31,-0.32,-0.55,0.029,-0.035,1.015,0.00,0.00,0.00,8.00,1.31,8.32,-0.00,6.52,2.55,2.48,9.38,3.91,1221,1231,1223,1233,1227,1499,1540,11095,776
35129,0,4.01,13.34,-0.62,-0.011,-0.003,1.116,0.00,0.00,0.00,7.40,-4.01,-5.94,-0.01,6.52,2.55,-5.45,-9.30,4.11,1221,1231,1223,1233,1231,1500,1537,11095,776
35141,0,6.32,-10.36,-0.30,0.058,-0.021,0.991,0.00,0.00,0.00,7.40,-6.32,17.76,-0.01,6.54,2.53,-9.88,29.11,3.28,1221,1231,1223,1233,1231,1500,1537,11075,776
35153,0,10.76,-5.52,0.91,0.026,-0.052,0.998,0.00,0.00,0.00,7.60,-10.76,13.12,-0.01,6.56,2.52,-17.39,19.40,0.25,1221,1231,1223,1233,1229,1500,1538,11037,776
35165,0,-3.14,-0.25,1.20,0.018,-0.120,0.962,0.00,0.00,0.00,7.60,3.14,7.85,0.00,6.57,2.51,4.27,11.08,-0.48,1221,1231,1223,1233,1229,1500,1538,11025,776
35178,0,-9.66,13.43,0.05,-0.016,-0.060,1.031,0.00,0.00,0.00,8.80,9.66,-4.63,0.01,6.59,2.52,14.57,-10.21,2.39,1221,1231,1223,1233,1224,1500,1544,11016,776
35189,0,-13.13,8.10,0.59,0.078,-0.069,0.948,0.00,0.00,0.00,7.60,13.13,-0.50,0.00,6.60,2.51,21.31,-1.71,1.03,1221,1231,1223,1233,1230,1500,1538,11066,776
35201,0,-7.47,3.52,-0.97,0.127,0.011,0.946,0.00,0.00,0.00,7.60,7.47,4.08,0.00,6.61,2.52,12.27,7.05,4.95,1221,1231,1223,1233,1230,1500,1538,11045,776
35213,0,4.52,-22.73,-0.58,0.193,0.011,0.922,0.00,0.00,0.00,17.00,-4.52,39.73,-0.01,6.67,2.52,-6.15,48.97,3.99,1159,1245,1127,1201,1183,1500,1585,11025,775
35225,0,14.22,-2.92,-0.38,0.014,-0.021,1.051,0.00,0.00,0.00,17.00,-14.22,19.92,-0.01,6.71,2.52,-22.17,16.64,3.47,1159,1245,1127,1201,1183,1500,1585,11033,775
35237,0,14.33,-11.13,-0.30,0.098,-0.088,0.979,0.00,0.00,0.00,7.20,-14.33,18.33,-0.01,6.72,2.53,-22.91,28.00,3.29,1159,1245,1127,1201,1237,1500,1536,11037,775
35249,0,5.44,3.33,-2.69,-0.000,-0.059,1.020,0.00,0.00,0.00,6.00,-5.44,2.67,-0.01,6.76,2.58,-8.84,-0.74,9.30,1159,1245,1127,1201,1251,1494,1530,11041,775
35261,0,-3.46,9.88,-1.34,0.041,-0.073,1.024,0.00,0.00,0.00,6.00,3.46,-3.88,-0.01,6.76,2.64,5.91,-6.52,5.99,1159,1245,1127,1201,1251,1494,1530,11054,775
35273,0,-9.86,-12.01,0.05,0.182,-0.076,0.899,0.00,0.00,0.00,7.00,9.86,19.01,-0.00,6.80,2.65,16.32,24.04,2.52,1159,1245,1127,1201,1242,1500,1535,11029,775
35285,0,-6.72,12.74,0.05,0.121,-0.051,1.000,0.00,0.00,0.00,7.00,6.72,-5.74,-0.01,6.81,2.67,11.69,-13.91,2.53,1159,1245,1127,1201,1242,1500,1535,11033,775
35298,0,-0.59,-4.59,1.71,0.151,-0.010,0.915,0.00,0.00,0.00,11.20,0.59,15.79,-0.01,6.83,2.64,0.67,18.94,-1.64,1159,1245,1127,1201,1221,1500,1556,10996,775
35309,0,5.94,-4.80,0.52,0.040,-0.031,0.994,0.00,0.00,0.00,22.80,-5.94,27.60,-0.00,6.87,2.63,-10.58,24.79,1.32,1148,1198,1130,1176,1163,1500,1614,10991,774
35321,0,3.57,-9.02,-0.71,0.061,-0.053,0.961,0.00,0.00,0.00,22.80,-3.57,31.82,-0.00,6.91,2.65,-6.02,33.09,4.41,1148,1198,1130,1176,1163,1500,1614,10996,774
35333,0,-0.29,-5.70,-0.99,0.068,-0.059,0.999,0.00,0.00,0.00,7.60,0.29,13.30,-0.01,6.96,2.65,1.12,17.67,5.12,1148,1198,1130,1176,1240,1499,1538,10991,774
35345,0,0.66,5.08,-0.51,0.068,-0.053,1.000,0.00,0.00,0.00,7.60,-0.66,2.52,-0.01,6.98,2.65,0.48,0.03,3.92,1148,1198,1130,1176,1240,1500,1538,11000,774
35358,0,1.94,-1.53,0.76,0.097,-0.039,0.929,0.00,0.00,0.00,8.00,-1.94,9.53,-0.01,7.00,2.62,-2.15,11.49,0.72,1148,1198,1130,1176,1244,1500,1540,11029,774
35369,0,5.86,-6.06,0.52,0.084,-0.026,0.925,0.00,0.00,0.00,7.00,-5.86,13.06,-0.01,7.03,2.58,-9.98,17.40,1.28,1148,1198,1130,1176,1251,1499,1535,11004,774
35381,0,6.12,9.50,1.76,-0.011,-0.064,1.046,0.00,0.00,0.00,7.00,-6.12,-2.50,-0.01,7.02,2.57,-11.14,-3.79,-1.83,1148,1198,1130,1176,1251,1499,1535,11008,774
35393,0,-6.09,-8.34,0.32,0.082,-0.082,0.897,0.00,0.00,0.00,11.00,6.09,19.34,0.00,7.05,2.59,7.91,25.89,1.78,1148,1198,1130,1176,1233,1499,1555,10991,774
35405,0,-9.16,9.25,-0.31,0.009,-0.049,1.028,0.00,0.00,0.00,11.00,9.16,1.75,0.00,7.08,2.60,14.00,-4.89,3.37,1148,1198,1130,1176,1233,1499,1555,10979,774
35418,0,-9.99,1.52,-0.44,0.087,-0.029,0.968,0.00,0.00,0.00,21.80,9.99,20.28,-0.00,7.14,2.63,16.23,13.06,3.73,1182,1204,1158,1168,1178,1499,1609,10962,775
35429,0,-0.90,-5.41,-1.28,0.104,0.010,0.990,0.00,0.00,0.00,6.80,0.90,12.21,-0.01,7.18,2.64,2.25,17.07,5.83,1182,1204,1158,1168,1254,1500,1534,10979,775
35441,0,6.98,-19.91,-1.82,0.128,0.006,0.954,0.00,0.00,0.00,6.80,-6.98,26.71,-0.01,7.21,2.67,-9.68,40.21,7.22,1182,1204,1158,1168,1254,1500,1534,10983,775
35453,0,11.35,-5.29,-0.93,-0.030,-0.032,1.055,0.00,0.00,0.00,5.20,-11.35,10.49,-0.02,7.22,2.69,-17.11,15.59,5.03,1182,1204,1158,1168,1263,1499,1526,10983,775
35465,0,12.11,-9.44,-1.41,0.069,-0.027,0.975,0.00,0.00,0.00,5.20,-12.11,14.64,-0.01,7.24,2.74,-19.40,22.94,6.26,1182,1204,1158,1168,1263,1500,1526,11025,775
35478,0,5.09,3.73,-1.51,0.101,-0.107,0.941,0.00,0.00,0.00,6.80,-5.09,3.07,-0.01,7.26,2.78,-8.31,0.92,6.55,1182,1204,1158,1168,1257,1500,1534,11033,775
35489,0,-5.27,-9.23,-1.02,0.171,-0.087,0.851,0.00,0.00,0.00,6.80,5.27,16.03,-0.01,7.30,2.80,8.39,20.89,5.34,1182,1204,1158,1168,1262,1500,1534,11025,775
35501,0,-0.54,9.81,1.30,0.008,-0.030,0.995,0.00,0.00,0.00,6.80,0.54,-3.01,-0.00,7.32,2.78,-0.14,-10.68,-0.48,1182,1204,1158,1168,1262,1500,1534,11021,775
35513,0,-3.84,-4.76,0.34,0.087,-0.073,0.941,0.00,0.00,0.00,6.60,3.84,11.36,-0.00,7.33,2.77,5.36,16.21,1.93,1256,1274,1254,1268,1263,1500,1533,10983,774
35525,0,-4.57,-0.47,0.41,0.001,-0.094,1.000,0.00,0.00,0.00,6.60,4.57,7.07,-0.00,7.35,2.77,6.71,8.13,1.75,1256,1274,1254,1268,1263,1500,1533,10983,774
35538,0,-0.11,6.81,0.76,-0.015,-0.078,1.014,0.00,0.00,0.00,7.20,0.11,0.39,-0.00,7.35,2.76,0.33,0.30,0.87,1256,1274,1254,1268,1269,1500,1536,10987,774
35549,0,-0.00,-2.41,0.37,0.042,-0.062,0.935,0.00,0.00,0.00,7.60,0.00,10.01,-0.01,7.39,2.79,0.22,12.63,1.86,1256,1274,1254,1268,1268,1500,1538,10983,774
35561,0,-2.52,4.11,-0.39,-0.006,-0.041,1.013,0.00,0.00,0.00,7.60,2.52,3.49,-0.01,7.41,2.81,5.07,2.08,3.78,1256,1274,1254,1268,1268,1500,1538,10979,774
35573,0,-6.63,-6.60,0.29,-0.007,-0.030,0.981,0.00,0.00,0.00,9.40,6.63,16.00,-0.01,7.42,2.82,12.25,23.54,2.09,1256,1274,1254,1268,1259,1500,1547,10937,774
35585,0,-2.64,-6.57,-0.83,-0.056,-0.000,1.016,0.00,0.00,0.00,9.40,2.64,15.97,-0.02,7.44,2.81,5.43,23.22,4.89,1256,1274,1254,1268,1259,1500,1547,10950,774
35598,0,2.50,-1.09,-0.20,-0.016,0.034,1.058,0.00,0.00,0.00,5.20,-2.50,6.29,-0.02,7.44,2.81,-3.06,13.90,3.31,1256,1274,1254,1268,1280,1500,1526,10962,774
35609,0,5.83,-9.64,1.68,0.099,0.015,0.954,0.00,0.00,0.00,15.00,-5.83,24.64,-0.02,7.47,2.76,-8.46,28.40,-1.43,1212,1266,1194,1252,1231,1500,1575,10946,774
35621,0,10.40,2.73,1.93,0.036,-0.027,0.968,0.00,0.00,0.00,15.00,-10.40,12.27,-0.02,7.52,2.70,-16.19,5.17,-2.13,1212,1266,1194,1252,1231,1500,1575,10962,774
35633,0,17.57,13.60,0.59,0.008,-0.002,1.084,0.00,0.00,0.00,6.80,-17.57,-6.80,-0.02,7.53,2.67,-27.71,-11.83,1.20,1212,1266,1194,1252,1272,1500,1534,10996,774
35645,0,14.93,-7.62,2.53,0.180,-0.085,0.910,0.00,0.00,0.00,6.80,-14.93,14.42,-0.02,7.57,2.63,-23.76,19.02,-3.70,1212,1266,1194,1252,1272,1500,1534,10983,774
35657,0,13.46,-5.60,2.68,0.108,-0.018,0.904,0.00,0.00,0.00,6.80,-13.46,12.40,-0.02,7.62,2.58,-21.84,9.95,-4.11,1212,1266,1194,1252,1273,1500,1534,11000,774
35669,0,10.01,1.79,1.10,0.048,-0.058,0.924,0.00,0.00,0.00,10.20,-10.01,8.41,-0.02,7.67,2.54,-16.70,-2.65,-0.21,1212,1266,1194,1252,1255,1502,1551,11000,774
35681,0,-2.17,12.54,-0.79,-0.047,-0.104,1.008,0.00,0.00,0.00,10.20,2.17,-2.34,-0.01,7.68,2.54,2.25,-14.33,4.51,1212,1266,1194,1252,1255,1502,1551,10979,774
35693,0,-6.23,3.90,-2.70,-0.071,-0.100,1.013,0.00,0.00,0.00,6.80,6.23,2.90,-0.01,7.67,2.58,8.66,7.03,9.34,1212,1266,1194,1252,1274,1500,1534,10966,774
35705,0,-2.35,-5.19,-3.65,0.024,-0.102,1.002,0.00,0.00,0.00,6.80,2.35,11.99,-0.01,7.67,2.65,3.15,24.11,11.78,1212,1266,1194,1252,1274,1500,1534,10950,774
35718,0,0.47,-12.97,-3.21,0.104,-0.060,0.983,0.00,0.00,0.00,5.20,-0.47,18.17,-0.01,7.70,2.73,-0.80,32.03,10.76,1275,1313,1281,1283,1288,1500,1526,10946,812
35729,0,0.92,-15.91,-3.65,0.139,-0.055,0.935,0.00,0.00,0.00,9.40,-0.92,25.31,-0.01,7.73,2.81,-1.08,34.54,11.93,1275,1313,1281,1283,1262,1501,1547,10929,812
35741,0,5.71,-8.94,-4.16,0.056,-0.039,0.950,0.00,0.00,0.00,9.40,-5.71,18.34,-0.02,7.77,2.92,-9.15,21.76,13.32,1275,1313,1281,1283,1262,1501,1547,10937,812
35753,0,7.12,-14.55,-3.91,0.064,-0.082,0.955,0.00,0.00,0.00,7.00,-7.12,21.55,-0.01,7.79,3.06,-11.93,29.80,12.84,1275,1313,1281,1283,1278,1500,1535,10908,812
35765,0,9.02,-6.20,-4.77,-0.017,-0.104,1.020,0.00,0.00,0.00,7.00,-9.02,13.20,-0.01,7.81,3.22,-15.98,16.91,15.15,1275,1313,1281,1283,1278,1500,1535,10921,812
35778,0,4.60,11.15,-5.63,-0.154,-0.116,1.125,0.00,0.00,0.00,6.60,-4.60,-4.55,-0.00,7.81,3.41,-9.27,-7.52,17.48,1275,1313,1281,1283,1280,1500,1533,10921,812
35789,0,-3.55,12.85,-7.15,-0.165,-0.104,1.121,0.00,0.00,0.00,7.40,3.55,-5.45,-0.00,7.80,3.65,4.03,-4.69,21.52,1275,1313,1281,1283,1280,1500,1537,10929,812
35801,0,-5.81,6.49,-6.94,-0.106,-0.073,1.099,0.00,0.00,0.00,7.40,5.81,0.91,-0.00,7.81,3.88,9.00,6.20,21.22,1275,1313,1281,1283,1280,1500,1537,10912,812
35813,0,-9.51,8.07,-6.25,-0.062,-0.101,1.081,0.00,0.00,0.00,6.60,9.51,-1.47,-0.01,7.83,4.09,16.20,0.41,19.71,1236,1336,1278,1286,1284,1500,1533,10916,782
35825,0,-10.68,11.77,-5.52,-0.013,-0.043,1.061,0.00,0.00,0.00,6.60,10.68,-5.17,-0.01,7.84,4.27,18.76,-7.37,18.06,1236,1336,1278,1286,1284,1500,1533,10912,782
35838,0,-13.49,13.50,-5.33,-0.047,-0.002,1.067,0.00,0.00,0.00,13.80,13.49,0.30,-0.02,7.87,4.42,23.39,-6.25,17.76,1236,1336,1278,1286,1251,1500,1569,10908,782
35850,0,-13.89,19.48,-5.87,-0.068,0.033,1.102,0.00,0.00,0.00,5.20,13.89,-14.28,-0.02,7.85,4.58,24.29,-10.63,19.24,1236,1336,1278,1286,1296,1500,1526,10904,782
35861,0,-14.01,-19.76,-2.77,0.194,0.051,0.943,0.00,0.00,0.00,5.20,14.01,24.96,-0.02,7.86,4.68,25.47,50.51,11.60,1236,1336,1278,1286,1296,1500,1526,10925,782
35873,0,-11.06,-28.39,-2.55,0.367,0.016,0.852,0.00,0.00,0.00,10.00,11.06,38.39,-0.02,7.94,4.74,19.52,51.71,11.10,1236,1336,1278,1286,1274,1500,1550,10929,782
35885,0,-10.16,-13.99,-3.18,0.315,0.041,0.867,0.00,0.00,0.00,10.00,10.16,23.99,-0.02,8.01,4.84,17.45,21.72,12.78,1236,1336,1278,1286,1274,1500,1550,10954,782
35898,0,-6.01,-19.82,-3.06,0.374,0.045,0.835,0.00,0.00,0.00,7.00,6.01,26.82,-0.02,8.07,4.96,9.78,27.10,12.61,1236,1336,1278,1286,1291,1500,1535,10916,782
35909,0,-1.91,-36.87,-3.22,0.474,0.022,0.736,0.00,0.00,0.00,10.20,1.91,47.07,-0.02,8.16,5.10,4.18,50.91,13.15,1209,1335,1243,1317,1276,1500,1551,10908,775
35921,0,-6.31,-13.89,-2.10,0.244,0.071,0.856,0.00,0.00,0.00,10.20,6.31,24.09,-0.03,8.22,5.20,12.66,12.69,10.45,1209,1335,1243,1317,1276,1500,1551,10929,775
35933,0,-6.33,-4.68,0.42,0.119,0.113,0.911,0.00,0.00,0.00,7.20,6.33,11.88,-0.03,8.25,5.27,12.89,3.93,4.21,1209,1335,1243,1317,1291,1500,1536,10908,775
35945,0,-3.15,1.19,0.19,0.100,0.134,0.999,0.00,0.00,0.00,7.20,3.15,6.01,-0.03,8.29,5.33,5.81,-3.89,4.85,1209,1335,1243,1317,1291,1499,1536,10921,775
35958,0,2.75,-7.19,1.84,0.286,0.056,0.882,0.00,0.00,0.00,6.80,-2.75,13.99,-0.03,8.31,5.38,-5.02,12.84,0.77,1209,1335,1243,1317,1293,1499,1534,10962,775
35969,0,9.23,-15.04,1.66,0.346,0.069,0.798,0.00,0.00,0.00,6.40,-9.23,21.44,-0.03,8.38,5.42,-14.67,20.48,1.28,1209,1335,1243,1317,1294,1500,1532,10962,775
35981,0,4.14,-10.40,0.65,0.308,0.041,0.880,0.00,0.00,0.00,6.40,-4.14,16.80,-0.04,8.42,5.46,-4.49,12.68,3.83,1209,1335,1243,1317,1294,1500,1532,10958,775
35993,0,-3.30,0.89,-0.09,0.215,0.045,0.944,0.00,0.00,0.00,10.40,3.30,9.51,-0.05,8.45,5.49,8.42,0.56,5.71,1209,1335,1243,1317,1275,1500,1552,10958,775
36005,0,-10.53,-7.85,0.42,0.217,0.013,0.877,0.00,0.00,0.00,10.40,10.53,18.25,-0.04,8.48,5.51,18.27,17.96,4.47,1209,1335,1243,1317,1275,1500,1552,10921,775
36017,0,-10.56,-4.66,0.07,0.192,0.027,0.907,0.00,0.00,0.00,6.60,10.56,11.26,-0.04,8.51,5.55,16.89,12.02,5.37,1277,1325,1279,1299,1295,1500,1533,10925,774
36029,0,-7.42,21.54,-0.53,0.066,0.026,1.051,0.00,0.00,0.00,6.40,7.42,-15.14,-0.04,8.51,5.59,12.13,-25.79,6.92,1277,1325,1279,1299,1297,1500,1532,10925,774
36041,0,-5.88,12.16,-0.39,0.084,-0.007,0.999,0.00,0.00,0.00,6.40,5.88,-5.76,-0.04,8.50,5.63,10.81,-5.81,6.62,1277,1325,1279,1299,1297,1500,1532,10908,774
36053,0,-5.30,1.91,-0.25,0.121,-0.025,0.952,0.00,0.00,0.00,7.00,5.30,5.09,-0.04,8.52,5.68,9.13,10.90,6.30,1277,1325,1279,1299,1294,1500,1535,10900,774
36066,0,-5.86,7.35,-0.84,0.119,-0.034,0.997,0.00,0.00,4.60,7.00,10.46,-0.35,-0.03,8.52,5.73,10.64,3.01,7.84,1277,1325,1279,1299,1294,1523,1535,10900,774
36078,0,-6.47,-2.59,-1.37,0.073,-0.017,0.990,0.00,0.00,4.60,0.00,11.07,2.59,-0.02,8.53,5.80,10.43,14.03,9.23,1277,1325,1279,1299,1294,1523,1512,10929,774
36089,0,-7.05,-4.73,-1.05,0.003,-0.019,0.995,0.00,0.00,0.00,5.40,7.05,10.13,-0.01,8.52,5.85,9.79,21.27,8.48,1277,1325,1279,1299,1302,1500,1527,10921,774
36101,0,-11.68,-7.14,1.04,0.022,-0.058,0.994,0.00,0.00,0.00,5.40,11.68,12.54,-0.01,8.52,5.85,18.52,27.58,3.26,1277,1325,1279,1299,1302,1500,1527,10954,774
36113,0,-14.64,2.56,1.71,-0.015,-0.071,1.031,0.00,0.00,0.00,6.40,14.64,3.84,-0.01,8.53,5.81,23.55,10.18,1.55,1292,1302,1298,1300,1298,1500,1532,10958,772
36125,0,-15.61,4.46,1.91,-0.016,-0.074,0.990,0.00,0.00,0.00,6.40,15.61,1.94,-0.01,8.54,5.76,24.75,7.00,0.99,1292,1302,1298,1300,1298,1500,1532,10962,772
36138,0,-10.71,5.62,1.33,-0.013,-0.076,1.027,0.00,0.00,0.00,14.20,10.71,8.58,-0.01,8.57,5.73,16.61,7.62,2.39,1292,1302,1298,1300,1259,1500,1571,10946,772
36149,0,-9.92,2.06,2.29,0.070,-0.127,0.984,0.00,0.00,0.00,10.00,9.92,7.94,-0.01,8.61,5.67,15.14,9.09,-0.05,1292,1302,1298,1300,1281,1500,1550,10950,772
36161,0,-6.59,12.66,1.55,-0.017,-0.121,1.044,0.00,0.00,0.00,10.00,6.59,-2.66,-0.01,8.63,5.65,10.48,-7.43,1.77,1292,1302,1298,1300,1281,1500,1550,10987,772
36173,0,-12.79,-2.36,0.84,-0.005,-0.087,1.020,0.00,0.00,0.00,7.20,12.79,9.56,-0.01,8.65,5.60,20.61,16.68,3.50,1292,1302,1298,1300,1295,1500,1536,10975,772
36185,0,-10.56,12.57,-0.73,-0.084,-0.066,1.116,0.00,0.00,0.00,7.20,10.56,-5.37,-0.02,8.64,5.58,17.60,-3.52,7.40,1292,1302,1298,1300,1295,1500,1536,11008,772
36198,0,-5.34,2.86,-0.80,0.006,-0.048,1.058,0.00,0.00,0.00,6.80,5.34,3.94,-0.02,8.65,5.58,8.70,11.52,7.59,1292,1302,1298,1300,1297,1500,1534,10966,772
36209,0,-4.56,6.17,0.84,0.034,-0.084,1.034,0.00,0.00,0.00,7.20,4.56,1.03,-0.02,8.66,5.58,7.56,5.73,3.48,1283,1299,1303,1307,1298,1499,1536,10929,771
36221,0,-9.63,15.37,1.14,-0.121,-0.067,1.154,0.00,0.00,0.00,7.20,9.63,-8.17,-0.02,8.68,5.52,15.98,-11.89,2.67,1283,1299,1303,1307,1298,1499,1536,10929,771
36233,0,-8.08,18.71,0.88,-0.133,-0.033,1.166,0.00,0.00,0.00,22.00,8.08,3.29,-0.02,8.68,5.47,13.91,-5.20,3.27,1283,1299,1303,1307,1222,1500,1610,10916,771
36245,0,-3.13,19.14,0.71,-0.091,-0.021,1.129,0.00,0.00,0.00,22.00,3.13,2.86,-0.02,8.71,5.45,5.71,-3.87,3.67,1283,1299,1303,1307,1222,1499,1610,10891,771
36258,0,-1.43,24.67,0.14,-0.092,0.002,1.142,0.00,0.00,0.00,5.20,1.43,-19.47,-0.02,8.71,5.44,2.19,-21.02,5.09,1283,1299,1303,1307,1307,1499,1526,10891,771
36269,0,-4.57,1.16,0.65,-0.018,-0.057,1.059,0.00,0.00,0.00,14.80,4.57,13.64,-0.02,8.74,5.41,6.83,17.68,3.78,1283,1299,1303,1307,1267,1500,1574,10933,771
36281,0,-2.03,0.94,-1.62,-0.103,-0.019,1.082,0.00,0.00,0.00,14.80,2.03,13.86,-0.01,8.79,5.43,1.71,13.84,9.48,1283,1299,1303,1307,1267,1500,1574,10946,771
36293,0,0.52,15.15,0.50,-0.160,-0.073,1.091,0.00,0.00,0.00,6.60,-0.52,-8.55,-0.01,8.79,5.43,-1.63,-8.63,4.18,1283,1299,1303,1307,1308,1500,1533,10933,771
36305,0,5.01,14.99,0.54,-0.172,-0.096,1.082,0.00,0.00,0.00,6.60,-5.01,-8.39,-0.01,8.80,5.42,-8.58,-9.42,4.08,1283,1299,1303,1307,1308,1500,1533,10912,771
36318,0,10.06,19.95,-0.05,-0.200,-0.030,1.109,0.00,0.00,0.00,6.80,-10.06,-13.15,-0.02,8.80,5.43,-16.05,-15.08,5.55,1269,1333,1311,1335,1312,1500,1534,10950,772
36329,0,13.01,16.35,1.45,-0.171,-0.034,1.113,0.00,0.00,0.00,22.00,-13.01,5.65,-0.02,8.81,5.41,-20.82,-2.13,1.79,1269,1333,1311,1335,1236,1500,1610,10954,772
36341,0,14.97,10.21,2.28,-0.070,-0.064,1.071,0.00,0.00,0.00,22.00,-14.97,11.79,-0.02,8.86,5.39,-24.33,6.80,-0.32,1269,1333,1311,1335,1236,1500,1610,10950,772
36353,0,17.36,-8.77,2.83,0.055,-0.089,0.958,0.00,0.00,0.00,6.20,-17.36,14.97,-0.02,8.91,5.34,-28.34,26.24,-1.72,1269,1333,1311,1335,1316,1500,1531,10904,772
36365,0,19.24,-7.41,3.58,0.151,-0.068,0.921,0.00,0.00,0.00,6.20,-19.24,13.61,-0.01,8.95,5.28,-32.26,18.40,-3.67,1269,1333,1311,1335,1316,1500,1531,10891,772
36378,0,21.28,-17.28,3.61,0.278,-0.106,0.821,0.00,0.00,0.00,12.40,-21.28,29.68,-0.01,9.02,5.21,-35.97,32.03,-3.83,1269,1333,1311,1335,1285,1500,1562,10912,772
36389,0,18.71,-11.70,2.29,0.258,-0.109,0.797,0.00,0.00,0.00,6.40,-18.71,18.10,-0.01,9.08,5.16,-31.78,15.97,-0.57,1269,1333,1311,1335,1316,1500,1532,10891,772
