time_ms,flags,gyro_x,gyro_y,gyro_z,accel_x,accel_y,accel_z,roll,pitch,angle_sp_roll,angle_sp_pitch,angle_err_roll,angle_err_pitch,angle_i_roll,rate_sp_roll,rate_sp_pitch,rate_err_roll,rate_err_pitch,rate_i_roll,pid_roll,pid_pitch,pid_yaw,m1,m2,m3,m4,rc_thr,rc_roll,rc_pitch,battery_mv,loop_us
24229,9,0.02,0.02,0.06,0.008,-0.057,0.998,-3.49,2.60,0.00,0.00,3.49,-2.60,0.00,12.21,-9.11,12.19,-9.14,0.00,0.47,-0.37,-1.20,1000,1000,1000,1000,1052,1500,1511,11274,808
24241,9,0.02,0.02,-0.06,0.007,-0.056,1.002,-3.49,2.58,0.00,0.00,3.49,-2.58,0.00,12.20,-9.03,12.18,-9.05,0.00,0.47,-0.37,1.26,1100,1100,1100,1100,1034,1500,1511,11274,808
24252,9,0.02,0.08,0.06,0.006,-0.059,1.000,-3.54,2.59,0.00,0.00,3.54,-2.59,0.00,12.40,-9.08,12.38,-9.16,0.00,0.48,-0.40,-1.09,1100,1100,1100,1100,1034,1500,1511,11274,808
24265,9,-0.04,0.03,-0.00,0.007,-0.057,0.997,-3.52,2.63,0.00,0.00,3.52,-2.63,0.00,12.31,-9.20,12.35,-9.23,0.00,0.50,-0.37,-0.02,1100,1100,1100,1100,1034,1500,1511,11274,808
24276,9,0.08,0.03,0.00,0.007,-0.058,0.993,-3.50,2.62,0.00,0.00,3.50,-2.62,0.00,12.25,-9.18,12.17,-9.21,0.00,0.45,-0.37,-0.19,1100,1100,1100,1100,1034,1500,1511,11274,808
24289,9,0.02,0.08,0.06,0.008,-0.061,0.998,-3.54,2.68,0.00,0.00,3.54,-2.68,0.00,12.40,-9.37,12.38,-9.45,0.00,0.49,-0.41,-1.29,1100,1100,1100,1100,1025,1500,1520,11274,808
24301,9,-0.04,0.03,-0.00,0.006,-0.057,1.003,-3.56,2.62,0.00,0.00,3.56,-2.62,0.00,12.46,-9.17,12.49,-9.20,0.00,0.52,-0.37,-0.27,1100,1100,1100,1100,1035,1500,1510,11274,808
24312,9,0.02,0.02,-0.06,0.010,-0.056,0.999,-3.48,2.66,0.00,0.00,3.48,-2.66,0.00,12.18,-9.30,12.17,-9.32,0.00,0.47,-0.38,0.72,1100,1100,1100,1100,1035,1500,1510,11266,808
24324,9,-0.03,0.08,-0.00,0.005,-0.059,0.997,-3.50,2.63,0.00,0.00,3.50,-2.63,0.00,12.26,-9.22,12.29,-9.30,0.00,0.51,-0.39,-0.57,1100,1100,1100,1100,1036,1500,1509,11262,808
24336,9,-0.10,0.03,0.00,0.004,-0.060,1.003,-3.52,2.59,0.00,0.00,3.52,-2.59,0.00,12.32,-9.06,12.42,-9.08,0.00,0.53,-0.36,-0.06,1100,1100,1100,1100,1036,1500,1509,11258,808
24349,9,-0.04,0.09,0.00,0.003,-0.058,1.003,-3.52,2.52,0.00,0.00,3.52,-2.52,0.00,12.31,-8.82,12.35,-8.91,0.00,0.50,-0.37,0.12,1100,1100,1100,1100,1035,1500,1510,11262,808
24361,9,-0.04,0.15,-0.00,0.006,-0.057,0.996,-3.53,2.54,0.00,3.15,3.53,0.61,0.00,12.36,2.13,12.40,1.98,0.00,0.50,0.04,-0.17,1100,1100,1100,1100,1010,1500,1535,11258,808
24372,9,-0.04,-0.03,0.12,0.005,-0.056,0.998,-3.49,2.57,0.00,3.15,3.49,0.58,0.00,12.21,2.03,12.24,2.06,0.00,0.49,0.11,-2.03,1100,1100,1100,1100,1010,1500,1535,11254,808
24384,9,-0.04,-0.02,-0.06,0.004,-0.058,1.000,-3.50,2.53,0.00,3.15,3.50,0.62,0.00,12.26,2.15,12.30,2.18,0.00,0.50,0.12,1.43,1100,1100,1100,1100,1010,1500,1535,11254,808
24396,9,0.02,0.03,-0.12,0.005,-0.057,0.997,-3.43,2.51,0.00,3.15,3.43,0.64,0.00,12.00,2.22,11.98,2.19,0.00,0.47,0.09,1.56,1100,1100,1100,1100,1010,1500,1535,11254,808
24409,9,0.02,0.08,-0.06,0.007,-0.065,1.000,-3.60,2.50,0.00,0.00,3.60,-2.50,0.00,12.60,-8.76,12.58,-8.84,0.00,0.49,-0.38,0.14,1100,1100,1100,1100,1035,1500,1510,11254,808
24421,9,-0.16,-0.21,0.30,0.012,-0.055,0.991,-3.60,2.59,0.00,0.00,3.60,-2.59,0.00,12.60,-9.06,12.76,-8.84,0.00,0.56,-0.26,-4.90,1100,1100,1100,1100,1035,1500,1510,11254,808
24432,9,-0.20,-0.04,-0.34,0.013,-0.042,0.994,-3.45,2.66,0.00,0.00,3.45,-2.66,0.00,12.09,-9.32,12.29,-9.29,0.00,0.57,-0.37,8.50,1100,1100,1100,1100,1035,1500,1510,11241,808
24445,9,0.02,0.20,-0.39,0.011,-0.074,0.992,-3.50,2.83,0.00,0.00,3.50,-2.83,0.00,12.25,-9.90,12.23,-10.10,0.00,0.47,-0.47,3.89,1100,1100,1100,1100,1035,1500,1510,11233,808
24456,9,0.06,0.50,0.54,0.015,-0.041,1.007,-3.32,2.92,0.00,0.00,3.32,-2.92,0.00,11.60,-10.23,11.54,-10.72,0.00,0.43,-0.64,-12.15,1100,1100,1100,1100,1035,1500,1510,11224,808
24469,9,-0.31,0.51,0.03,-0.016,-0.041,1.001,-3.66,2.28,0.00,0.00,3.66,-2.28,0.00,12.81,-7.99,13.12,-8.50,0.00,0.64,-0.53,3.17,1100,1100,1100,1100,1036,1500,1509,11220,808
24481,9,-0.25,-0.16,-1.33,0.047,-0.096,0.970,-4.25,2.75,0.00,2.79,4.25,0.04,0.00,14.87,0.13,15.13,0.29,0.00,0.69,0.14,26.63,1100,1100,1100,1100,1015,1500,1531,11237,808
24492,9,-0.16,1.10,-0.29,-0.020,-0.057,1.020,-4.02,2.00,0.00,2.79,4.02,0.79,0.00,14.06,2.76,14.22,1.66,0.00,0.63,-0.30,2.48,1100,1100,1100,1100,1015,1500,1531,11237,808
24504,9,0.13,3.48,0.15,-0.122,0.001,1.128,-2.38,-0.14,0.00,0.00,2.38,0.14,0.00,8.35,0.49,8.21,-2.99,0.00,0.28,-1.08,-2.61,1100,1100,1100,1100,1037,1500,1509,11224,808
24516,9,1.19,-2.93,-0.34,0.094,-0.029,0.941,-2.72,3.75,0.00,0.00,2.72,-3.75,0.00,9.51,-13.12,8.32,-10.19,0.00,-0.15,0.95,7.61,1100,1100,1100,1100,1037,1500,1509,11220,808
24529,9,0.76,-3.23,-0.55,0.071,0.013,0.935,-2.73,5.11,0.00,0.00,2.73,-5.11,0.00,9.56,-17.88,8.81,-14.65,0.00,0.03,0.53,7.27,1100,1100,1100,1100,1037,1500,1509,11187,808
24541,9,0.00,-2.68,0.52,0.142,-0.053,0.941,-3.34,5.81,0.00,0.00,3.34,-5.81,0.00,11.69,-20.32,11.69,-17.64,0.00,0.46,-0.02,-11.99,1100,1100,1100,1100,1037,1500,1508,11166,808
24552,9,0.29,-0.29,-0.10,0.026,-0.034,1.009,-3.71,4.19,0.00,0.00,3.71,-4.19,0.00,12.97,-14.68,12.68,-14.39,0.00,0.40,-0.74,4.95,1100,1100,1100,1100,1037,1500,1508,11154,808
24564,9,-0.64,-0.72,-0.43,0.070,-0.031,0.981,-3.84,3.88,0.00,0.00,3.84,-3.88,0.00,13.45,-13.59,14.09,-12.87,0.00,0.83,-0.35,7.87,1100,1100,1100,1100,1037,1500,1508,11145,808
24577,9,0.32,-0.15,-0.08,-0.028,-0.133,1.062,-3.83,2.88,0.00,0.00,3.83,-2.88,0.00,13.41,-10.08,13.09,-9.93,0.00,0.39,-0.44,-0.68,1100,1100,1100,1100,1037,1500,1508,11133,808
24589,9,0.98,-0.17,0.30,-0.110,-0.063,1.037,-3.66,1.13,0.00,0.00,3.66,-1.13,0.00,12.80,-3.96,11.82,-3.79,0.00,0.06,0.03,-7.41,1100,1100,1100,1100,1037,1500,1508,11116,808
24601,9,-0.24,-2.21,0.50,0.040,-0.103,0.981,-4.01,1.92,0.00,0.00,4.01,-1.92,0.00,14.03,-6.71,14.27,-4.50,0.00,0.65,0.78,-7.07,1100,1100,1100,1100,1036,1500,1509,11116,808
24612,9,-0.35,1.38,-0.50,0.007,-0.064,1.048,-3.86,2.55,0.00,0.00,3.86,-2.55,0.00,13.52,-8.91,13.87,-10.29,0.00,0.67,-0.95,8.96,1100,1100,1100,1100,1036,1500,1509,11120,808
24624,9,0.80,1.38,0.42,-0.050,-0.044,1.033,-3.04,0.64,0.00,0.00,3.04,-0.64,0.00,10.65,-2.25,9.85,-3.63,0.00,0.02,-0.24,-8.76,1100,1100,1100,1100,1036,1500,1509,11137,808
24636,9,0.10,0.22,0.18,0.007,0.019,1.058,-3.06,0.95,0.00,0.00,3.06,-0.95,0.00,10.71,-3.33,10.61,-3.55,0.00,0.36,0.28,-1.82,1100,1100,1100,1100,1036,1500,1509,11145,808
24649,9,-0.96,0.81,-1.07,0.098,0.006,1.021,-2.52,1.57,0.00,0.00,2.52,-1.57,0.00,8.81,-5.51,9.77,-6.32,0.00,0.82,-0.27,18.97,1100,1100,1100,1100,1036,1500,1509,11141,808
24661,9,0.34,1.74,0.64,0.087,-0.077,0.922,-2.98,3.18,0.00,4.05,2.98,0.87,0.00,10.43,3.03,10.09,1.29,0.00,0.29,-0.38,-16.45,1100,1100,1100,1100,1000,1500,1545,11137,808
24672,9,-1.32,0.68,1.74,-0.017,-0.077,0.964,-3.77,2.48,0.00,4.05,3.77,1.57,0.00,13.19,5.49,14.51,4.81,0.00,1.08,0.07,-22.81,1100,1100,1100,1100,1000,1500,1545,11141,808
24684,9,1.49,2.07,-1.86,-0.181,-0.046,1.099,-2.70,-0.33,0.00,6.84,2.70,7.17,0.00,9.44,25.10,7.95,23.03,0.00,-0.33,0.28,43.32,1100,1100,1100,1100,1000,1500,1576,11141,808
24696,9,-0.28,1.18,-0.62,-0.040,-0.012,1.058,-2.09,0.53,0.00,6.84,2.09,6.31,0.00,7.32,22.07,7.61,20.89,0.00,0.52,0.55,-1.30,1100,1100,1100,1100,1000,1500,1576,11145,808
24709,9,-2.25,0.38,3.03,-0.031,-0.223,0.905,-5.11,0.79,0.00,0.00,5.11,-0.79,0.00,17.89,-2.76,20.14,-3.14,0.00,1.67,-0.07,-53.67,1100,1100,1100,1100,1036,1500,1509,11150,808
24721,9,1.95,1.16,-1.61,-0.069,-0.105,1.096,-4.52,1.02,0.00,0.00,4.52,-1.02,0.00,15.83,-3.58,13.89,-4.74,0.00,-0.38,-0.78,41.82,1100,1100,1100,1100,1036,1500,1508,11150,808
24732,9,-1.75,-0.15,-1.05,-0.029,-0.060,0.950,-4.48,1.68,0.00,0.00,4.48,-1.68,0.00,15.67,-5.87,17.42,-5.72,0.00,1.53,0.16,7.93,1100,1100,1100,1100,1036,1500,1508,11150,808
24745,9,-2.06,-4.37,0.71,0.095,-0.079,1.017,-4.74,2.63,0.00,0.00,4.74,-2.63,0.00,16.59,-9.22,18.65,-4.85,0.00,1.55,1.35,-14.07,1100,1100,1100,1100,1037,1500,1508,11158,808
24756,9,0.62,2.46,0.16,0.083,-0.134,0.983,-4.82,4.98,0.00,0.00,4.82,-4.98,0.00,16.87,-17.42,16.25,-19.88,0.00,0.32,-2.50,-4.16,1100,1100,1100,1100,1037,1500,1508,11154,808
24769,9,1.49,0.08,1.30,-0.108,0.000,1.024,-4.19,0.74,0.00,0.00,4.19,-0.74,0.00,14.67,-2.58,13.18,-2.66,0.00,0.03,-0.24,-11.60,1100,1100,1100,1100,1036,1500,1508,11162,808
24781,9,-0.90,-5.78,-2.56,0.132,0.004,1.058,-3.60,2.41,0.00,3.51,3.60,1.10,0.00,12.59,3.84,13.49,9.62,0.00,0.81,2.62,51.78,1100,1100,1100,1100,1013,1500,1539,11170,808
24792,9,-0.70,-3.83,1.80,-0.047,-0.221,0.854,-6.40,4.05,0.00,3.51,6.40,-0.54,0.00,22.39,-1.89,23.08,1.94,0.00,1.17,1.01,-35.65,1100,1100,1100,1100,1013,1500,1539,11166,808
24804,9,2.77,2.29,-0.93,-0.014,0.026,1.188,-4.58,3.27,0.00,0.00,4.58,-3.27,0.00,16.02,-11.45,13.25,-13.74,0.00,-0.83,-2.21,18.17,1100,1100,1100,1100,1038,1500,1507,11166,808
24816,9,-1.34,-0.86,2.50,-0.069,-0.003,1.022,-3.58,2.72,0.00,0.00,3.58,-2.72,0.00,12.52,-9.51,13.85,-8.65,0.00,1.18,-0.20,-46.29,1100,1100,1100,1100,1038,1500,1507,11170,808
24829,9,4.09,-2.81,-1.39,0.054,-0.061,0.991,-2.83,2.50,0.00,0.00,2.83,-2.50,0.00,9.90,-8.74,5.82,-5.93,0.00,-1.75,0.94,32.19,1100,1100,1100,1100,1038,1500,1507,11166,808
24841,9,-1.94,0.24,1.87,-0.064,-0.048,0.933,-2.57,4.59,0.00,0.00,2.57,-4.59,0.00,9.00,-16.08,10.94,-16.32,0.00,1.32,-1.28,-37.61,1100,1100,1100,1100,1037,1500,1508,11170,808
24852,9,3.41,-0.39,-2.01,0.066,-0.103,1.039,-3.47,4.54,0.00,0.00,3.47,-4.54,0.00,12.15,-15.89,8.74,-15.50,0.00,-1.28,-0.75,36.41,1100,1100,1100,1100,1037,1500,1508,11162,808
24864,9,-2.12,1.47,2.65,-0.118,-0.015,0.889,-1.56,4.91,0.00,0.00,1.56,-4.91,0.00,5.47,-17.19,7.59,-18.66,0.00,1.28,-1.92,-53.25,1100,1100,1100,1100,1036,1500,1508,11166,808
24876,9,5.92,-6.51,-1.05,0.113,0.106,0.944,-1.03,4.50,0.00,0.00,1.03,-4.50,0.00,3.60,-15.76,-2.31,-9.25,0.00,-2.77,2.22,22.74,1100,1100,1100,1100,1036,1500,1508,11166,808
24889,9,-4.15,8.09,2.49,-0.411,-0.127,1.200,-2.83,0.18,0.00,0.00,2.83,-0.18,0.00,9.90,-0.62,14.05,-8.71,0.00,2.38,-3.90,-42.74,1100,1100,1100,1100,1037,1500,1507,11162,808
24901,9,0.32,1.42,-1.80,0.079,0.046,1.069,-2.09,0.07,0.00,0.00,2.09,-0.07,0.00,7.32,-0.25,6.99,-1.67,0.00,0.19,-0.30,33.66,1100,1100,1100,1100,1036,1500,1508,11170,808
24912,9,3.98,-2.57,3.53,-0.056,-0.010,0.985,-2.59,2.69,0.00,0.00,2.59,-2.69,0.00,9.08,-9.40,5.10,-6.83,0.00,-1.84,0.69,-65.15,1100,1100,1100,1100,1036,1500,1508,11170,808
24924,9,3.21,-4.56,0.74,-0.038,-0.178,1.145,-5.31,3.10,0.00,0.00,5.31,-3.10,0.00,18.57,-10.83,15.36,-6.28,0.00,-0.70,1.26,-13.59,1100,1100,1100,1100,1035,1500,1508,11166,808
24936,9,-5.28,3.34,0.77,-0.148,-0.191,1.065,-4.59,1.26,0.00,0.00,4.59,-1.26,0.00,16.07,-4.42,21.35,-7.76,0.00,2.84,-1.83,-4.03,1100,1100,1100,1100,1035,1500,1508,11175,808
24949,9,6.44,-10.23,-0.54,0.183,-0.022,0.940,-4.66,3.92,0.00,0.00,4.66,-3.92,0.00,16.31,-13.70,9.87,-3.47,0.00,-2.09,4.03,2.22,1100,1100,1100,1100,1035,1500,1508,11170,808
24961,9,2.60,-3.77,-2.08,-0.227,-0.475,1.073,-6.48,0.23,0.00,3.33,6.48,3.10,0.00,22.68,10.86,20.08,14.63,0.00,-0.67,2.32,41.22,1100,1100,1100,1100,1007,1500,1537,11166,808
24972,9,-8.89,6.62,-0.42,-0.032,0.034,0.875,-2.94,1.86,0.00,3.33,2.94,1.47,0.00,10.29,5.15,19.18,-1.47,0.00,4.91,-2.78,2.19,1100,1100,1100,1100,1007,1500,1537,11175,808
24985,9,10.39,-3.95,-0.07,0.007,-0.019,1.079,-2.46,-0.32,0.00,0.00,2.46,0.32,0.00,8.60,1.12,-1.79,5.07,0.00,-4.91,3.06,9.94,1100,1100,1100,1100,1036,1500,1508,11162,808
24996,9,0.02,-4.87,2.07,-0.099,-0.194,0.918,-1.49,2.09,0.00,0.00,1.49,-2.09,0.00,5.21,-7.33,5.19,-2.46,0.00,0.31,2.08,-39.26,1100,1100,1100,1100,1036,1500,1508,11170,808
25009,9,-3.72,-1.89,-1.67,0.254,0.004,1.088,-5.30,5.86,0.00,0.00,5.30,-5.86,0.00,18.54,-20.51,22.26,-18.61,0.00,2.91,-0.16,34.61,1100,1100,1100,1100,1036,1500,1509,11158,808
25021,9,-8.57,1.53,1.73,0.160,-0.184,0.887,-2.97,6.85,0.00,0.00,2.97,-6.85,0.00,10.38,-23.98,18.95,-25.51,0.00,4.08,-2.28,-31.09,1100,1100,1100,1100,1036,1500,1509,11170,808
25032,9,9.14,-2.41,-0.42,0.299,-0.061,0.978,-3.10,7.30,0.00,0.00,3.10,-7.30,0.00,10.86,-25.56,1.72,-23.15,0.00,-3.54,-0.08,4.08,1100,1100,1100,1100,1036,1500,1509,11170,808
25045,9,1.89,8.80,0.62,-0.166,-0.268,0.992,-3.04,6.73,0.00,0.00,3.04,-6.73,0.00,10.65,-23.55,8.75,-32.35,0.00,-0.70,-5.21,-13.63,1100,1100,1100,1100,1036,1500,1508,11170,813
25056,9,-11.62,1.96,-2.13,0.002,0.008,0.951,-4.04,6.46,0.00,0.00,4.04,-6.46,0.00,14.14,-22.61,25.76,-24.57,0.00,6.51,-2.58,45.19,1100,1100,1100,1100,1036,1500,1508,11170,813
25069,9,8.80,2.42,0.67,-0.167,0.036,1.194,-1.91,3.55,0.00,0.00,1.91,-3.55,0.00,6.69,-12.44,-2.12,-14.86,0.00,-4.17,-1.87,-10.81,1100,1100,1100,1100,1036,1500,1507,11170,813
25081,9,-1.24,-11.77,0.83,0.207,0.537,0.746,4.65,4.05,0.00,0.00,-4.65,-4.05,0.00,-16.28,-14.16,-15.04,-2.39,0.00,-0.13,4.76,-18.94,1100,1100,1100,1100,1037,1500,1507,11162,813
25093,9,10.30,-15.02,0.78,-0.000,-0.641,1.086,-8.05,2.42,0.00,0.00,8.05,-2.42,0.00,28.16,-8.47,17.86,6.54,0.00,-2.62,6.12,-13.03,1100,1100,1100,1100,1037,1500,1507,11158,813
25104,9,-12.94,14.85,-2.12,-0.204,-0.436,1.243,-6.33,0.81,0.00,0.00,6.33,-0.81,0.00,22.14,-2.84,35.08,-17.69,0.00,7.21,-8.13,45.85,1100,1100,1100,1100,1034,1500,1510,11158,813
25117,9,-4.46,8.32,0.11,0.220,0.432,0.962,-0.23,1.82,0.00,0.00,0.23,-1.82,0.00,0.79,-6.38,5.25,-14.70,0.00,2.76,-3.07,9.98,1100,1100,1100,1100,1034,1500,1510,11154,813
25129,9,13.08,0.20,2.05,-0.224,-0.020,1.108,2.06,-2.53,0.00,0.00,-2.06,2.53,0.00,-7.21,8.85,-20.29,8.64,0.00,-7.06,2.16,-41.75,1100,1100,1100,1100,1034,1500,1510,11154,813
25141,9,-0.04,-11.98,0.14,0.079,-0.061,0.919,0.36,4.93,0.00,0.00,-0.36,-4.93,0.00,-1.28,-17.24,-1.24,-5.26,0.00,0.37,5.15,2.08,1100,1100,1100,1100,1034,1501,1509,11154,808
25153,9,-1.32,-6.26,2.12,0.021,-0.443,0.839,-7.78,5.94,0.00,0.00,7.78,-5.94,0.00,27.22,-20.78,28.54,-14.52,0.00,1.74,2.31,-48.91,1100,1100,1100,1100,1034,1501,1509,11162,808
25164,9,-9.51,6.87,-3.24,0.005,-0.240,0.863,-5.37,9.97,0.00,0.00,5.37,-9.97,0.00,18.78,-34.90,28.30,-41.77,0.00,4.77,-5.81,61.25,1100,1100,1100,1100,1034,1501,1509,11166,808
25176,9,3.29,-0.54,1.61,0.064,-0.071,0.951,-6.52,8.47,0.00,0.00,6.52,-8.47,0.00,22.80,-29.64,19.51,-29.10,0.00,0.09,-2.79,-27.09,1100,1100,1100,1100,1034,1501,1509,11170,808
25189,9,-1.08,7.69,-1.51,-0.158,-0.017,1.141,-4.29,5.60,0.00,0.00,4.29,-5.60,0.00,15.01,-19.61,16.09,-27.30,0.00,0.93,-5.60,26.06,1100,1100,1100,1100,1035,1501,1508,11162,808
25201,9,-10.97,-2.69,0.88,0.308,0.297,0.999,-1.55,7.33,0.00,0.00,1.55,-7.33,0.00,5.43,-25.67,16.40,-22.98,0.00,5.39,-1.09,-3.61,1100,1100,1100,1100,1027,1501,1516,11162,808
25213,9,8.97,-15.48,3.35,0.429,0.237,0.677,1.21,10.35,0.00,0.00,-1.21,-10.35,0.00,-4.23,-36.22,-13.20,-20.75,0.00,-4.41,5.16,-64.95,1100,1100,1100,1100,1027,1501,1516,11154,808
25224,9,7.66,-0.34,-2.44,0.146,-0.266,1.072,-2.89,8.75,0.00,0.00,2.89,-8.75,0.00,10.11,-30.62,2.45,-30.28,0.00,-3.02,-1.51,56.74,1100,1100,1100,1100,1034,1500,1510,11162,808
25236,9,-5.64,7.33,2.08,-0.190,-0.116,0.801,-1.09,9.50,0.00,0.00,1.09,-9.50,0.00,3.80,-33.26,9.45,-40.58,0.00,2.65,-4.88,-44.38,1100,1100,1100,1100,1034,1500,1510,11158,808
25249,9,0.12,0.69,-0.54,-0.185,-0.064,1.345,-3.58,5.60,0.00,0.00,3.58,-5.60,0.00,12.53,-19.58,12.41,-20.28,0.00,0.19,-0.74,3.85,1100,1100,1100,1100,1033,1500,1510,11166,808
25261,9,-3.63,-2.15,-2.27,0.206,-0.134,0.905,-4.56,6.00,0.00,3.24,4.56,-2.76,0.00,15.95,-9.68,19.58,-7.53,0.00,2.47,0.68,47.35,1100,1100,1100,1100,1007,1500,1536,11162,808
25272,9,-10.76,3.23,-1.76,0.151,0.190,0.719,-1.72,5.82,0.00,3.24,1.72,-2.58,0.00,6.03,-9.03,16.79,-12.26,0.00,5.49,-1.38,35.07,1100,1100,1100,1100,1007,1500,1536,11170,808
25284,9,15.93,-3.22,1.26,0.209,0.080,1.211,-3.49,2.01,0.00,0.00,3.49,-2.01,0.00,12.22,-7.04,-3.71,-3.82,0.00,-7.68,2.00,-18.22,1100,1100,1100,1100,1035,1501,1509,11170,808
25296,9,-1.10,-10.20,2.90,0.168,-0.074,0.667,2.83,10.82,0.00,0.00,-2.83,-10.82,0.00,-9.91,-37.86,-8.81,-27.66,0.00,0.13,2.49,-60.22,1100,1100,1100,1100,1035,1501,1509,11170,808
25309,9,1.85,-7.52,0.35,-0.102,-0.343,1.000,-2.69,8.33,0.00,3.42,2.69,-4.91,0.00,9.41,-17.18,7.56,-9.66,0.00,0.34,1.96,-7.52,1100,1100,1100,1100,1006,1501,1538,11170,808
25321,9,-3.26,28.23,-1.14,-0.513,-0.618,1.291,1.25,4.80,0.00,0.00,-1.25,-4.80,0.00,-4.37,-16.79,-1.11,-45.02,0.00,0.46,-13.99,18.01,1100,1100,1100,1100,1036,1501,1508,11162,808
25333,9,-9.95,1.01,-0.99,0.409,0.155,0.659,4.21,14.17,0.00,0.00,-4.21,-14.17,0.00,-14.75,-49.59,-4.81,-50.61,0.00,4.61,-3.75,14.91,1100,1100,1100,1100,1036,1501,1508,11158,808
25345,9,7.21,-11.31,-3.59,0.464,0.265,0.822,4.15,15.07,0.00,0.00,-4.15,-15.07,0.00,-14.52,-52.76,-21.73,-41.45,0.00,-3.46,2.81,67.15,1100,1100,1100,1100,1036,1500,1509,11170,813
25357,9,-20.96,1.96,-3.30,0.381,0.113,0.725,2.83,14.90,0.00,0.00,-2.83,-14.90,0.00,-9.89,-52.16,11.07,-54.12,0.00,9.13,-4.24,62.31,1100,1100,1100,1100,1036,1500,1509,11158,813
25369,9,11.26,-11.17,3.56,0.413,0.464,0.866,1.81,11.52,0.00,0.00,-1.81,-11.52,0.00,-6.34,-40.32,-17.59,-29.15,0.00,-5.05,2.43,-77.81,1100,1100,1100,1100,1036,1500,1509,11154,813
25381,9,22.18,-5.99,0.28,-0.180,-0.100,0.944,-0.19,5.41,0.00,0.00,0.19,-5.41,0.00,0.67,-18.93,-21.51,-12.93,0.00,-10.70,1.81,-13.75,1100,1100,1100,1100,1035,1500,1509,11158,813
25393,9,-4.18,-8.66,0.22,-0.150,-0.257,1.093,2.48,6.36,0.00,0.00,-2.48,-6.36,0.00,-8.69,-22.27,-4.51,-13.61,0.00,2.20,2.28,-5.28,1100,1100,1100,1100,1035,1500,1509,11158,813
25405,9,1.72,-5.80,1.04,-0.181,-0.621,1.038,-5.36,1.20,0.00,0.00,5.36,-1.20,0.00,18.78,-4.21,17.05,1.59,0.00,0.03,2.11,-27.84,1100,1100,1100,1100,1037,1500,1508,11170,813
25416,9,-7.44,12.60,-3.04,-0.044,-0.160,0.981,-1.44,6.67,0.00,0.00,1.44,-6.67,0.00,5.06,-23.34,12.49,-35.94,0.00,3.54,-9.13,54.22,1100,1100,1100,1100,1037,1500,1508,11170,813
25429,9,-0.09,-2.38,0.10,0.227,-0.040,0.760,-6.02,8.73,0.00,0.00,6.02,-8.73,0.00,21.06,-30.56,21.15,-28.18,0.00,0.98,-1.52,-1.83,1100,1100,1100,1100,1036,1500,1509,11170,813
25441,9,0.43,-3.08,-3.51,-0.001,0.004,0.894,-4.13,6.11,0.00,0.00,4.13,-6.11,0.00,14.47,-21.37,14.04,-18.29,0.00,-0.16,0.30,67.40,1100,1100,1100,1100,1034,1500,1511,11170,808
25452,9,-11.04,3.13,-0.23,0.216,0.110,1.032,-4.95,8.76,0.00,0.00,4.95,-8.76,0.00,17.33,-30.65,28.36,-33.78,0.00,5.99,-3.53,15.03,1100,1100,1100,1100,1034,1500,1511,11158,808
25465,9,3.02,-5.45,2.90,0.294,0.199,0.555,-0.24,8.37,0.00,0.00,0.24,-8.37,0.00,0.84,-29.28,-2.17,-23.84,0.00,-1.48,1.50,-54.88,1100,1100,1100,1100,1034,1500,1511,11154,808
25476,9,10.45,-0.38,-0.80,-0.263,-0.224,1.313,-1.61,2.82,0.00,0.00,1.61,-2.82,0.00,5.63,-9.86,-4.83,-9.47,0.00,-5.70,1.53,15.47,1100,1100,1100,1100,1034,1500,1511,11166,808
25489,9,-0.83,4.58,2.88,-0.354,-0.335,1.113,-0.80,1.07,0.00,0.00,0.80,-1.07,0.00,2.81,-3.74,3.63,-8.32,0.00,0.54,-1.85,-52.44,1100,1100,1100,1100,1034,1500,1511,11162,808
25501,9,-8.18,-5.17,-0.28,0.028,-0.233,1.032,-4.09,3.25,0.00,4.23,4.09,0.98,0.00,14.32,3.43,22.50,8.60,0.00,5.13,2.28,3.09,1100,1100,1100,1100,1000,1500,1547,11170,808
25513,9,5.20,10.17,-3.68,-0.103,-0.573,1.230,-7.70,0.75,0.00,4.23,7.70,3.48,0.00,26.96,12.19,21.76,2.01,0.00,-2.07,-4.52,78.75,1100,1100,1100,1100,1000,1500,1547,11170,808
25524,9,-9.16,9.14,-0.04,-0.191,-0.333,0.979,-6.47,-0.13,0.00,0.00,6.47,0.13,0.00,22.65,0.47,31.80,-8.67,0.00,5.67,-5.30,-2.21,1100,1100,1100,1100,1037,1500,1508,11170,808
25536,9,-4.53,3.35,-2.40,0.230,0.194,1.228,-2.07,2.28,0.00,0.00,2.07,-2.28,0.00,7.25,-8.00,11.78,-11.34,0.00,3.43,-1.78,44.78,1100,1100,1100,1100,1037,1500,1508,11170,808
25549,9,-16.54,12.03,-0.95,0.315,-0.077,0.699,-1.88,9.78,0.00,0.00,1.88,-9.78,0.00,6.57,-34.22,23.12,-46.25,0.00,7.20,-6.58,23.82,1100,1100,1100,1100,1036,1500,1508,11162,813
25561,9,3.65,-8.37,1.67,0.427,0.335,0.832,1.20,8.02,0.00,3.06,-1.20,-4.96,0.00,-4.18,-17.37,-7.84,-8.99,0.00,-1.71,4.16,-32.54,1100,1100,1100,1100,1010,1500,1534,11170,813
25572,9,17.18,-2.68,1.38,-0.243,-0.159,1.116,-5.25,-0.06,0.00,3.06,5.25,3.12,0.00,18.38,10.92,1.20,13.60,0.00,-8.04,3.43,-25.43,1100,1100,1100,1100,1010,1500,1534,11162,813
25584,9,-5.47,-1.98,1.61,-0.237,0.294,1.155,2.02,3.34,0.00,0.00,-2.02,-3.34,0.00,-7.05,-11.70,-1.59,-9.72,0.00,2.03,0.57,-29.54,1100,1100,1100,1100,1035,1500,1509,11170,813
25597,9,16.75,-19.94,1.57,-0.137,-0.311,1.045,-5.41,0.88,0.00,0.00,5.41,-0.88,0.00,18.92,-3.07,2.18,16.87,0.00,-6.50,8.90,-23.59,1100,1100,1100,1100,1035,1494,1509,11154,813
25609,9,2.66,10.27,-0.27,-0.342,-0.885,1.328,-4.02,2.38,0.00,0.00,4.02,-2.38,0.00,14.05,-8.34,11.39,-18.62,0.00,-1.30,-5.59,-22.95,1100,1100,1100,1100,1067,1494,1507,11154,813
25621,9,-19.47,17.23,0.45,-0.029,-0.232,1.273,-2.39,7.63,0.00,0.00,2.39,-7.63,0.00,8.37,-26.70,27.85,-43.93,0.00,10.42,-9.68,2.14,1100,1100,1100,1100,1036,1500,1508,11154,813
25632,9,1.68,13.65,-0.81,0.214,0.053,1.069,-0.22,8.63,0.00,0.00,0.22,-8.63,0.00,0.76,-30.22,-0.92,-43.86,0.00,-0.65,-6.83,17.13,1100,1100,1100,1100,1036,1500,1508,11150,813
25645,9,-6.01,4.86,-3.22,0.073,0.180,0.915,3.30,4.57,0.00,0.00,-3.30,-4.57,0.00,-11.56,-16.00,-5.54,-20.86,0.00,1.76,-1.12,66.47,1100,1100,1100,1100,1035,1501,1509,11141,808
25657,9,6.43,-15.17,0.91,0.564,0.235,0.642,1.28,11.59,0.00,0.00,-1.28,-11.59,0.00,-4.49,-40.56,-10.92,-25.38,0.00,-2.72,6.88,-15.98,1100,1100,1100,1100,1035,1501,1509,11137,808
25669,9,6.93,-9.54,0.71,0.303,0.192,0.816,0.07,8.33,0.00,0.00,-0.07,-8.33,0.00,-0.26,-29.17,-7.18,-19.63,0.00,-3.62,3.96,-18.18,1100,1100,1100,1100,1036,1501,1508,11150,808
25681,9,-1.37,-12.68,0.23,0.103,0.178,1.049,-3.33,8.88,0.00,0.00,3.33,-8.88,0.00,11.67,-31.07,13.04,-18.39,0.00,0.95,3.54,-1.89,1100,1100,1100,1100,1035,1501,1509,11150,808
25692,9,15.45,-12.29,0.64,-0.199,-0.472,0.783,-5.99,3.86,0.00,0.00,5.99,-3.86,0.00,20.96,-13.52,5.52,-1.23,0.00,-6.83,5.02,-24.28,1100,1100,1100,1100,1035,1501,1509,11150,808
25704,9,1.45,-0.38,0.23,-0.379,-0.782,1.537,-3.22,7.11,0.00,2.70,3.22,-4.41,0.00,11.28,-15.44,9.83,-15.06,0.00,0.28,-2.36,-2.76,1100,1100,1100,1100,1014,1501,1530,11154,808
25716,9,-13.20,4.58,3.88,-0.264,0.006,1.033,-0.47,7.33,0.00,2.70,0.47,-4.63,0.00,1.63,-16.22,14.83,-20.80,0.00,6.37,-3.80,-72.89,1100,1100,1100,1100,1014,1501,1530,11145,808
25729,9,-6.62,4.83,-3.49,0.326,0.137,0.540,0.45,9.48,0.00,0.00,-0.45,-9.48,0.00,-1.56,-33.18,5.06,-38.01,0.00,3.17,-3.96,70.48,1100,1100,1100,1100,1036,1501,1508,11145,808
25741,9,-0.49,6.17,-4.05,0.327,-0.077,0.896,0.35,10.15,0.00,0.00,-0.35,-10.15,0.00,-1.21,-35.53,-0.72,-41.70,0.00,-0.06,-4.28,82.28,1100,1100,1100,1100,1036,1501,1508,11145,808
25752,9,-4.47,10.06,1.27,0.071,0.134,0.958,-0.65,7.88,0.00,0.00,0.65,-7.88,0.00,2.28,-27.57,6.75,-37.63,0.00,2.35,-5.46,-36.16,1100,1100,1100,1100,1036,1501,1508,11141,808
25764,9,15.76,-8.27,1.68,-0.086,0.362,0.970,-1.19,0.68,0.00,0.00,1.19,-0.68,0.00,4.15,-2.38,-11.61,5.89,0.00,-7.66,4.77,-28.48,1100,1100,1100,1100,1036,1501,1508,11141,808
25777,9,-0.86,-17.21,3.22,0.146,0.375,0.842,8.14,11.52,0.00,0.00,-8.14,-11.52,0.00,-28.49,-40.31,-27.63,-23.10,0.00,-0.72,4.85,-58.95,1100,1100,1100,1100,1036,1501,1508,11150,808
25789,9,-6.95,-11.01,0.90,0.250,-0.448,1.030,-1.14,8.65,0.00,0.00,1.14,-8.65,0.00,4.01,-30.29,10.96,-19.28,0.00,4.42,2.63,-12.69,1100,1100,1100,1100,1037,1501,1507,11154,808
25801,9,18.06,16.20,2.07,-0.308,-0.360,1.150,0.45,9.81,0.00,0.00,-0.45,-9.81,0.00,-1.59,-34.32,-19.64,-50.51,0.00,-10.03,-8.78,-46.95,1100,1100,1100,1100,1037,1501,1507,11141,808
25813,9,-3.95,1.08,-1.97,0.159,0.351,0.630,8.47,12.70,0.00,0.00,-8.47,-12.70,0.00,-29.65,-44.46,-25.69,-45.54,0.00,1.43,-2.67,28.00,1100,1100,1100,1100,1037,1501,1507,11145,808
25824,9,3.17,-7.57,-3.15,0.151,-0.048,1.350,4.10,11.04,0.00,2.88,-4.10,-8.16,0.00,-14.35,-28.58,-17.53,-21.01,0.00,-0.90,3.22,50.21,1100,1100,1100,1100,1012,1501,1532,11145,808
25836,9,-15.87,17.58,-2.46,-0.184,-0.598,0.951,-1.35,7.22,0.00,2.88,1.35,-4.34,0.00,4.74,-15.20,20.61,-32.78,0.00,7.15,-8.05,40.94,1100,1100,1100,1100,1012,1500,1532,11141,808
25849,9,2.71,-2.52,2.16,0.469,0.312,0.741,-2.38,9.62,0.00,0.00,2.38,-9.62,0.00,8.33,-33.67,5.62,-31.15,0.00,-0.28,-0.24,-40.70,1100,1100,1100,1100,1029,1500,1515,11154,808
25861,9,14.77,-11.05,1.27,0.236,0.476,0.830,1.65,6.74,0.00,5.04,-1.65,-1.70,0.00,-5.78,-5.96,-20.55,5.09,0.00,-7.56,5.98,-27.19,1100,1100,1100,1100,1000,1500,1556,11145,808
25872,9,-11.32,-13.33,-0.45,0.324,0.160,0.768,1.63,12.62,0.00,5.04,-1.63,-7.58,0.00,-5.70,-26.54,5.62,-13.21,0.00,5.35,4.20,15.33,1100,1100,1100,1100,1000,1500,1556,11145,808
25884,9,9.68,-12.48,3.63,0.349,-0.323,0.688,-4.11,16.48,0.00,0.00,4.11,-16.48,0.00,14.37,-57.67,4.69,-45.19,0.00,-3.57,2.93,-71.45,1100,1100,1100,1100,1035,1500,1509,11145,808
25896,9,5.77,14.46,-1.12,-0.246,-0.224,1.082,-2.89,10.03,0.00,0.00,2.89,-10.03,0.00,10.10,-35.11,4.33,-49.57,0.00,-3.22,-8.58,24.33,1100,1100,1100,1100,1035,1500,1509,11154,808
25909,9,0.71,2.78,0.59,-0.133,-0.133,1.418,-2.62,12.90,0.00,0.00,2.62,-12.90,0.00,9.18,-45.14,8.47,-47.92,0.00,0.58,-4.41,-4.72,1100,1100,1100,1100,1035,1500,1509,11154,808
25921,9,-1.14,-4.59,-1.36,0.110,-0.179,0.815,-5.53,11.14,0.00,0.00,5.53,-11.14,0.00,19.34,-38.98,20.49,-34.39,0.00,1.45,0.41,17.76,1100,1100,1100,1100,1035,1500,1509,11154,808
25932,9,-20.18,13.79,-4.36,0.010,-0.337,0.974,-5.28,6.86,0.00,0.00,5.28,-6.86,0.00,18.47,-24.01,38.66,-37.80,0.00,9.97,-6.86,87.10,1100,1100,1100,1100,1035,1500,1509,11154,808
25945,9,4.56,0.16,3.83,0.408,0.201,0.433,0.52,10.44,0.00,0.00,-0.52,-10.44,0.00,-1.83,-36.52,-6.39,-36.69,0.00,-2.19,-1.34,-72.71,1100,1100,1100,1100,1035,1500,1509,11154,808
25956,9,8.95,-13.67,-1.42,0.400,0.653,0.596,3.85,12.51,0.00,0.00,-3.85,-12.51,0.00,-13.47,-43.80,-22.43,-30.13,0.00,-4.85,4.29,31.94,1100,1100,1100,1100,1035,1500,1509,11154,808
25969,9,-8.02,-10.56,-1.73,0.266,-0.086,0.993,-0.82,14.23,0.00,0.00,0.82,-14.23,0.00,2.87,-49.79,10.90,-39.23,0.00,3.65,1.42,38.45,1100,1100,1100,1100,1036,1500,1508,11166,808
25981,9,8.38,-16.46,1.18,0.206,-0.078,0.735,-3.23,15.53,0.00,0.00,3.23,-15.53,0.00,11.32,-54.37,2.93,-37.91,0.00,-3.40,3.31,-34.76,1100,1100,1100,1100,1035,1500,1509,11162,808
25993,9,14.29,-0.69,1.75,-0.302,-0.649,1.385,-7.41,7.89,0.00,0.00,7.41,-7.89,0.00,25.95,-27.60,11.65,-26.91,0.00,-5.90,-2.27,-33.79,1100,1100,1100,1100,1035,1500,1509,11154,808
26005,9,0.98,-0.53,1.31,-0.317,-0.033,0.989,-2.72,10.98,0.00,0.00,2.72,-10.98,0.00,9.51,-38.42,8.53,-37.89,0.00,-0.32,-2.67,-20.67,1100,1100,1100,1100,1037,1500,1507,11154,808
26016,9,-5.68,-3.94,-4.02,-0.143,-0.244,1.182,-6.28,8.25,0.00,0.00,6.28,-8.25,0.00,21.98,-28.88,27.66,-24.94,0.00,3.94,0.55,77.05,1100,1100,1100,1100,1037,1500,1507,11145,808
26029,9,-6.27,12.32,-1.77,0.072,-0.533,0.952,-0.02,12.92,0.00,0.00,0.02,-12.92,0.00,0.05,-45.23,6.33,-57.55,0.00,3.07,-9.05,27.85,1100,1100,1100,1100,1024,1500,1520,11133,808
26041,9,-8.47,-2.77,1.25,0.395,0.267,0.586,3.88,15.99,0.00,0.00,-3.88,-15.99,0.00,-13.59,-55.95,-5.13,-53.18,0.00,3.87,-2.59,-29.98,1100,1100,1100,1100,1037,1500,1507,11129,813
26052,9,17.73,-18.26,-0.32,0.331,0.398,0.837,2.76,10.58,0.00,0.00,-2.76,-10.58,0.00,-9.67,-37.03,-27.40,-18.77,0.00,-9.20,6.76,8.30,1100,1100,1100,1100,1037,1500,1507,11133,813
26064,9,-5.80,2.16,0.33,-0.322,0.369,1.217,4.17,6.80,0.00,0.00,-4.17,-6.80,0.00,-14.58,-23.81,-8.79,-25.97,0.00,1.80,-3.60,-5.58,1100,1100,1100,1100,1034,1500,1511,11133,813
26076,9,5.70,-22.21,1.17,0.584,-0.170,0.770,-2.22,9.14,0.00,0.00,2.22,-9.14,0.00,7.77,-31.98,2.07,-9.77,0.00,-1.62,8.16,-35.32,1100,1100,1100,1100,1034,1500,1511,11145,813
26089,9,9.12,6.74,1.06,-0.059,-0.729,0.952,-7.93,4.74,0.00,0.00,7.93,-4.74,0.00,27.77,-16.60,18.64,-23.34,0.00,-4.08,-4.45,-26.34,1100,1100,1100,1100,1037,1500,1508,11154,813
26101,9,-7.49,6.62,1.90,-0.479,0.151,1.228,-1.91,4.85,0.00,0.00,1.91,-4.85,0.00,6.69,-16.99,14.18,-23.61,0.00,4.28,-4.84,-28.36,1100,1100,1100,1100,1037,1500,1507,11145,813
26113,9,6.35,-1.43,-0.62,-0.261,-0.298,1.302,-6.33,-0.57,0.00,0.00,6.33,0.57,0.00,22.15,2.01,15.80,3.44,0.00,-1.47,0.59,24.48,1100,1100,1100,1100,1037,1500,1507,11145,813
26125,9,-19.12,8.22,-3.52,0.289,-0.348,0.684,-3.86,10.73,0.00,2.79,3.86,-7.94,0.00,13.50,-27.78,32.61,-36.01,0.00,9.00,-6.13,72.79,1100,1100,1100,1100,1013,1500,1531,11150,813
26137,9,-5.61,-7.49,-2.21,0.686,0.283,0.585,2.55,13.69,0.00,2.79,-2.55,-10.90,0.00,-8.94,-38.16,-3.33,-30.67,0.00,2.49,1.29,40.38,1100,1100,1100,1100,1013,1500,1531,11145,813
26149,9,14.10,-3.84,1.76,-0.177,0.291,0.854,3.67,5.60,0.00,0.00,-3.67,-5.60,0.00,-12.85,-19.60,-26.95,-15.76,0.00,-7.83,0.46,-49.18,1100,1100,1100,1100,1034,1500,1510,11137,813
26161,9,1.33,-15.13,1.28,0.205,0.580,0.880,4.04,11.96,0.00,3.60,-4.04,-8.36,0.00,-14.12,-29.24,-15.46,-14.11,0.00,-1.01,4.06,-23.55,1100,1100,1100,1100,1004,1500,1540,11141,813
26172,9,-0.76,-14.05,2.40,0.363,-0.292,0.821,-3.77,13.31,0.00,3.60,3.77,-9.71,0.00,13.19,-33.97,13.95,-19.92,0.00,1.01,3.83,-49.16,1100,1100,1100,1100,1004,1500,1540,11137,813
26185,9,1.57,6.55,-0.58,-0.230,-0.545,1.229,-5.64,5.63,0.00,0.00,5.64,-5.63,0.00,19.75,-19.69,18.17,-26.25,0.00,-0.65,-4.51,5.00,1100,1100,1100,1100,1036,1500,1508,11133,813
26196,9,5.02,2.54,1.07,-0.371,-0.188,1.176,-3.56,5.63,0.00,0.00,3.56,-5.63,0.00,12.47,-19.71,7.45,-22.25,0.00,-1.02,-2.97,-16.85,1100,1100,1100,1100,1036,1500,1508,11141,813
26209,9,-1.13,3.11,2.37,-0.267,-0.163,1.310,-5.02,5.74,0.00,0.00,5.02,-5.74,0.00,17.57,-20.07,18.70,-23.18,0.00,1.27,-3.01,-41.42,1100,1100,1100,1100,1034,1500,1511,11141,813
26221,9,-15.08,13.65,-2.73,0.341,-0.215,0.905,-5.13,12.08,0.00,0.00,5.13,-12.08,0.00,17.95,-42.27,33.03,-55.92,0.00,7.39,-8.53,73.88,1100,1100,1100,1100,1037,1500,1507,11137,813
26233,9,1.05,-6.50,0.99,0.475,0.070,0.573,-2.12,9.73,0.00,0.00,2.12,-9.73,0.00,7.41,-34.05,6.36,-27.55,0.00,0.02,1.63,-16.20,1100,1100,1100,1100,1037,1500,1507,11141,813
26244,9,5.13,-4.66,-3.67,0.014,0.401,0.974,0.79,3.18,0.00,0.00,-0.79,-3.18,0.00,-2.78,-11.11,-7.92,-6.46,0.00,-2.42,1.96,58.84,1100,1100,1100,1100,1035,1500,1510,11137,813
26256,9,-2.28,-3.63,2.61,0.049,0.215,0.871,-2.55,3.23,0.00,0.00,2.55,-3.23,0.00,8.94,-11.32,11.22,-7.69,0.00,0.50,1.22,-44.66,1100,1100,1100,1100,1035,1500,1510,11133,813
26269,9,7.02,-15.92,3.14,0.182,-0.073,0.900,-1.54,7.73,0.00,3.60,1.54,-4.13,0.00,5.38,-14.44,-1.63,1.48,0.00,-3.09,6.03,-59.33,1100,1100,1100,1100,1006,1500,1540,11141,813
26281,9,16.29,-9.35,-0.94,-0.169,-0.595,1.182,-5.32,3.77,0.00,0.00,5.32,-3.77,0.00,18.62,-13.18,2.34,-3.83,0.00,-6.59,3.33,29.86,1100,1100,1100,1100,1037,1500,1509,11141,813
26292,9,-10.22,9.03,1.55,-0.486,0.094,1.035,3.92,4.98,0.00,0.00,-3.92,-4.98,0.00,-13.71,-17.43,-3.49,-26.46,0.00,4.24,-5.82,-40.77,1100,1100,1100,1100,1037,1500,1509,11154,813
26304,9,-2.00,5.01,-2.77,-0.201,-0.469,1.308,-3.60,-1.57,0.00,0.00,3.60,1.57,0.00,12.59,5.50,14.59,0.50,0.00,1.61,-1.41,47.40,1100,1100,1100,1100,1036,1500,1510,11162,813
26317,9,-8.56,25.07,0.84,-0.337,-0.480,1.178,-0.07,-4.05,0.00,0.00,0.07,4.05,0.00,0.23,14.17,8.79,-10.91,0.00,3.83,-10.93,-17.97,1100,1100,1100,1100,1036,1500,1510,11158,813
26329,9,-11.00,-0.52,-1.97,0.079,0.548,0.775,2.80,-1.64,0.00,7.83,-2.80,9.47,0.00,-9.80,33.16,1.20,33.67,0.00,5.23,1.96,42.95,1100,1100,1100,1100,1000,1500,1587,11154,813
26341,9,17.95,-10.18,-1.04,-0.098,0.167,1.003,-2.48,-4.21,0.00,0.00,2.48,4.21,0.00,8.69,14.75,-9.26,24.93,0.00,-8.88,6.78,22.91,1100,1100,1100,1100,1034,1500,1512,11154,808
26352,9,-7.09,-8.29,1.55,0.232,0.064,0.718,0.58,5.57,0.00,0.00,-0.58,-5.57,0.00,-2.03,-19.50,5.06,-11.21,0.00,2.73,2.10,-40.08,1100,1100,1100,1100,1034,1500,1512,11154,808
26365,9,7.05,-22.30,3.81,0.439,-0.018,0.967,-4.16,8.18,0.00,0.00,4.16,-8.18,0.00,14.57,-28.64,7.51,-6.33,0.00,-1.75,7.88,-79.84,1100,1100,1100,1100,1036,1500,1510,11154,808
26376,9,12.32,6.11,1.65,-0.353,-0.150,1.029,-4.25,0.38,0.00,0.00,4.25,-0.38,0.00,14.86,-1.35,2.55,-7.46,0.00,-5.99,-3.54,-22.95,1100,1100,1100,1100,1036,1500,1510,11154,808
26389,9,-5.81,16.26,-0.78,-0.555,-0.027,1.398,-0.44,-2.45,0.00,3.60,0.44,6.05,0.00,1.55,21.17,7.36,4.91,0.00,3.19,-6.86,28.08,1100,1100,1100,1100,1006,1500,1540,11158,808
26401,9,4.52,5.55,-1.76,-0.205,-0.569,1.382,-4.62,-4.91,0.00,3.60,4.62,8.51,0.00,16.18,29.79,11.66,24.24,0.00,-1.35,0.49,31.42,1100,1100,1100,1100,1005,1500,1540,11154,808
26412,9,-28.50,11.55,-4.88,0.115,-0.206,0.837,-1.64,2.56,0.00,3.60,1.64,1.04,0.00,5.72,3.65,34.22,-7.91,0.00,13.54,-4.95,81.91,1100,1100,1100,1100,1005,1500,1540,11150,808
26424,9,0.80,-6.79,1.71,0.277,0.299,0.756,-0.31,2.01,0.00,3.33,0.31,1.32,0.00,1.08,4.62,0.28,11.41,0.00,-0.28,3.64,-37.21,1100,1100,1100,1100,1009,1500,1537,11150,808
26436,9,14.17,1.82,2.09,-0.268,0.085,0.839,-4.29,-3.91,0.00,3.33,4.29,7.24,0.00,15.03,25.34,0.86,23.52,0.00,-7.16,0.57,-39.34,1100,1100,1100,1100,1009,1500,1537,11150,808
26449,9,-7.51,-0.74,-3.14,0.211,0.080,1.052,-3.91,0.87,0.00,0.00,3.91,-0.87,0.00,13.68,-3.06,21.19,-2.31,0.00,4.53,-0.17,68.79,1100,1100,1100,1100,1036,1500,1510,11154,808
26461,9,-5.94,3.89,3.24,0.080,0.037,1.030,-4.66,2.19,0.00,0.00,4.66,-2.19,0.00,16.30,-7.66,22.24,-11.55,0.00,3.30,-1.47,-70.67,1100,1100,1100,1100,1036,1500,1509,11154,808
26472,9,11.40,-5.69,1.64,-0.355,0.110,1.181,-5.84,-3.92,0.00,0.00,5.84,3.92,0.00,20.44,13.73,9.04,19.42,0.00,-5.90,5.42,-47.18,1100,1100,1100,1100,1036,1500,1509,11154,808
26484,9,11.96,-10.88,2.69,-0.318,0.234,1.249,-0.65,-2.07,0.00,3.51,0.65,5.58,0.00,2.26,19.52,-9.69,30.40,0.00,-5.32,6.01,-44.39,1100,1100,1100,1100,1006,1501,1539,11150,808
26496,9,-4.38,-2.89,1.02,-0.033,-0.383,0.973,-7.50,0.00,0.00,3.51,7.50,3.51,0.00,26.25,12.27,30.63,15.16,0.00,3.27,1.99,-14.04,1100,1100,1100,1100,1006,1500,1539,11154,808
26509,9,-10.88,7.87,-4.86,0.216,-0.479,1.049,-5.49,3.54,0.00,0.00,5.49,-3.54,0.00,19.23,-12.38,30.11,-20.25,0.00,5.33,-3.95,101.27,1100,1100,1100,1100,1037,1500,1509,11162,808
26521,9,-4.18,2.97,0.36,0.158,-0.198,0.716,-7.86,6.67,0.00,3.24,7.86,-3.43,0.00,27.51,-12.01,31.69,-14.98,0.00,2.94,-3.20,-5.47,1100,1100,1100,1100,1033,1500,1536,11170,808
26532,9,10.80,-1.89,-2.77,0.263,0.382,1.055,-1.56,7.12,0.00,3.24,1.56,-3.88,0.00,5.47,-13.59,-5.33,-11.70,0.00,-4.50,-0.34,49.31,1100,1100,1100,1100,1033,1500,1536,11162,808
26544,9,-1.16,-8.75,1.86,-0.081,-0.107,1.013,-0.65,3.09,0.00,0.00,0.65,-3.09,0.00,2.28,-10.82,3.45,-2.07,0.00,0.18,3.65,-24.68,1100,1100,1100,1100,1041,1500,1508,11158,808
26557,9,1.14,-12.98,0.76,0.416,0.672,0.547,7.58,7.53,0.00,0.00,-7.58,-7.53,0.00,-26.54,-26.36,-27.68,-13.38,0.00,-1.26,4.61,-16.39,1100,1100,1100,1100,1041,1500,1508,11162,808
26569,9,25.52,-5.72,0.31,-0.214,0.032,1.350,-0.41,-2.18,0.00,0.00,0.41,2.18,0.00,1.43,7.64,-24.09,13.36,0.00,-12.18,4.40,-8.59,1100,1100,1100,1100,1043,1500,1510,11150,808
26581,9,-3.92,1.98,1.87,-0.478,-0.433,1.115,-1.25,-3.21,0.00,0.00,1.25,3.21,0.00,4.38,11.24,8.30,9.26,0.00,1.88,0.40,-47.98,1100,1100,1100,1100,1045,1500,1509,11145,808
26592,9,-6.80,-6.21,-2.28,-0.139,-0.459,1.171,-7.76,-3.62,0.00,0.00,7.76,3.62,0.00,27.15,12.66,33.96,18.88,0.00,4.71,4.26,36.64,1100,1100,1100,1100,1045,1500,1509,11150,808
26604,9,-1.11,13.33,0.45,-0.151,-0.387,1.085,-3.70,-0.98,0.00,0.00,3.70,0.98,0.00,12.94,3.44,14.05,-9.89,0.00,0.27,-6.29,-2.26,1100,1100,1100,1100,1045,1500,1509,11154,808
26616,9,-4.85,6.32,0.37,0.100,-0.152,0.897,-3.35,3.66,0.00,0.00,3.35,-3.66,0.00,11.73,-12.80,16.58,-19.12,0.00,3.43,-4.29,-3.46,1100,1100,1100,1100,1045,1500,1509,11154,808
26629,9,9.72,4.33,-4.25,-0.218,-0.376,1.148,-6.94,2.86,0.00,3.51,6.94,0.65,0.00,24.28,2.29,14.56,-2.05,0.00,-3.52,-1.37,86.97,1100,1100,1100,1100,1016,1500,1539,11150,808
26641,9,-18.53,6.84,-1.81,-0.025,0.420,1.064,1.99,3.81,0.00,0.00,-1.99,-3.81,0.00,-6.97,-13.34,11.55,-20.18,0.00,8.03,-2.59,26.29,1100,1100,1100,1100,1045,1500,1509,11154,808
26653,9,2.54,-20.27,0.23,0.705,0.495,0.609,5.64,8.52,0.00,0.00,-5.64,-8.52,0.00,-19.74,-29.81,-22.28,-9.54,0.00,-0.97,9.10,-14.83,1100,1100,1100,1100,1045,1500,1509,11158,808
26664,9,20.36,3.46,3.73,-0.351,-0.304,0.923,-1.54,0.97,0.00,0.00,1.54,-0.97,0.00,5.38,-3.40,-14.98,-6.85,0.00,-10.37,-0.63,-81.35,1100,1100,1100,1100,1045,1500,1509,11162,808
26676,9,-4.79,8.42,-0.02,-0.520,-0.162,1.378,1.68,1.00,0.00,0.00,-1.68,-1.00,0.00,-5.87,-3.50,-1.07,-11.92,0.00,1.99,-3.44,-0.08,1100,1100,1100,1100,1045,1500,1509,11162,808
26689,9,4.78,6.47,2.27,-0.443,-0.366,1.341,-4.17,-4.75,0.00,0.00,4.17,4.75,0.00,14.59,16.64,9.81,10.16,0.00,-1.36,-1.12,-41.13,1100,1100,1100,1100,1048,1500,1508,11154,808
26701,9,-14.98,5.37,-2.39,0.148,-0.150,0.992,-2.47,5.85,0.00,0.00,2.47,-5.85,0.00,8.66,-20.47,23.63,-25.85,0.00,7.33,-4.04,43.41,1100,1100,1100,1100,1048,1500,1508,11150,808
26713,9,-4.88,-3.49,-3.06,0.572,0.205,0.590,-0.39,9.01,0.00,0.00,0.39,-9.01,0.00,1.36,-31.53,6.24,-28.03,0.00,2.32,1.02,66.37,1100,1100,1100,1100,1048,1500,1508,11141,808
26725,9,4.05,5.98,-2.14,0.172,-0.003,0.738,-2.39,7.48,0.00,0.00,2.39,-7.48,0.00,8.35,-26.18,4.31,-32.17,0.00,-2.26,-3.76,39.05,1100,1100,1100,1100,1052,1500,1508,11133,808
26736,9,-9.64,-4.10,-0.12,0.316,0.387,1.061,-0.32,11.88,0.00,0.00,0.32,-11.88,0.00,1.13,-41.58,10.76,-37.48,0.00,5.03,-0.61,6.96,1100,1100,1100,1100,1052,1500,1508,11133,808
26749,9,0.62,-3.26,4.40,0.205,0.432,0.853,4.56,8.87,0.00,3.42,-4.56,-5.45,0.00,-15.97,-19.06,-16.59,-15.80,0.00,-1.09,1.39,-95.32,1100,1100,1100,1100,1022,1500,1538,11137,808
26761,9,7.50,4.48,-0.50,-0.153,-0.356,1.210,1.19,6.53,0.00,3.69,-1.19,-2.84,0.00,-4.18,-9.95,-11.68,-14.43,0.00,-4.23,-1.81,8.52,1100,1100,1100,1100,1020,1500,1541,11141,808
26773,9,6.31,8.51,3.37,-0.308,-0.609,1.253,2.81,3.16,0.00,3.69,-2.81,0.53,0.00,-9.85,1.87,-16.15,-6.64,0.00,-2.79,-3.22,-56.22,1100,1100,1100,1100,1020,1500,1541,11133,808
26784,9,-11.49,10.38,-1.80,-0.096,0.119,1.318,1.13,2.35,0.00,0.00,-1.13,-2.35,0.00,-3.95,-8.22,7.55,-18.59,0.00,6.05,-4.85,35.86,1100,1100,1100,1100,1058,1500,1508,11137,808
26796,9,-3.91,-1.60,-3.09,0.345,-0.192,0.766,-3.41,5.11,0.00,0.00,3.41,-5.11,0.00,11.93,-17.89,15.85,-16.29,0.00,2.12,0.30,69.74,1100,1100,1100,1100,1058,1500,1508,11145,808
26809,9,-7.17,4.44,0.98,0.081,0.238,0.581,0.76,2.54,0.00,3.42,-0.76,0.88,0.00,-2.67,3.08,4.50,-1.36,0.00,3.36,-2.24,-17.83,1100,1100,1100,1100,1028,1500,1538,11133,808
26821,9,7.88,-11.34,-1.54,0.501,0.511,1.077,2.87,4.98,0.00,0.00,-2.87,-4.98,0.00,-10.06,-17.43,-17.93,-6.10,0.00,-3.76,4.46,30.91,1100,1100,1100,1100,1067,1500,1508,11133,808
26832,9,-5.62,0.84,2.78,0.076,0.142,0.764,0.92,6.52,0.00,0.00,-0.92,-6.52,0.00,-3.21,-22.81,2.41,-23.65,0.00,1.55,-2.00,-47.51,1100,1100,1100,1100,1067,1500,1508,11137,808
26844,9,6.60,-15.67,2.96,0.077,-0.149,0.920,-2.33,7.48,0.00,0.00,2.33,-7.48,0.00,8.17,-26.18,1.57,-10.51,0.00,-2.81,5.95,-55.62,1100,1100,1100,1100,1057,1500,1517,11137,813
26856,9,17.31,2.88,-0.67,-0.366,-0.756,1.413,-4.66,5.38,0.00,0.00,4.66,-5.38,0.00,16.31,-18.82,-1.00,-21.70,0.00,-7.67,-2.47,17.55,1100,1100,1100,1100,1057,1500,1517,11141,813
26869,9,-2.44,9.36,1.61,-0.801,0.285,1.268,2.71,3.21,0.00,0.00,-2.71,-3.21,0.00,-9.48,-11.25,-7.03,-20.61,0.00,1.02,-5.46,-33.31,1100,1100,1100,1100,1066,1500,1508,11133,813
26881,9,0.14,-0.39,0.85,-0.279,-0.129,1.451,-3.29,-3.07,0.00,0.00,3.29,3.07,0.00,11.52,10.75,11.38,11.14,0.00,1.22,1.84,-12.06,1100,1100,1100,1100,1067,1500,1508,11125,813
26892,9,-12.25,11.35,-1.35,-0.034,-0.639,0.585,-6.52,0.05,0.00,0.00,6.52,-0.05,0.00,22.81,-0.18,35.06,-11.53,0.00,5.99,-4.39,29.78,1100,1100,1100,1100,1067,1500,1508,11125,813
26904,9,-7.72,3.02,-1.45,0.232,0.153,0.879,-2.10,5.32,0.00,0.00,2.10,-5.32,0.00,7.36,-18.64,15.08,-21.66,0.00,4.27,-2.03,23.28,1100,1100,1100,1100,1067,1500,1508,11133,813
26916,9,13.21,-3.25,1.03,0.233,0.091,0.903,-3.85,5.78,0.00,0.00,3.85,-5.78,0.00,13.48,-20.24,0.26,-16.99,0.00,-6.18,0.33,-23.86,1100,1100,1100,1100,1067,1500,1508,11133,813
26929,9,-15.41,-4.33,1.22,0.143,0.531,0.809,2.48,12.40,0.00,0.00,-2.48,-12.40,0.00,-8.69,-43.39,6.73,-39.07,0.00,6.43,-1.22,-27.24,1100,1100,1100,1100,1082,1500,1508,11133,813
26941,9,11.00,-14.14,-1.15,0.361,0.111,0.860,0.90,10.61,0.00,2.61,-0.90,-8.00,0.00,-3.13,-27.99,-14.14,-13.84,0.00,-4.55,4.86,18.02,1100,1100,1100,1100,1062,1500,1529,11125,840
26952,9,8.51,10.59,-0.41,-0.484,-0.579,1.124,-3.01,1.82,0.00,2.61,3.01,0.79,0.00,10.54,2.76,2.03,-7.83,0.00,-4.01,-5.05,1.26,1100,1100,1100,1100,1062,1500,1529,11120,840
26964,9,-10.67,9.79,1.88,-0.239,-0.004,1.489,-1.97,3.58,0.00,0.00,1.97,-3.58,0.00,6.88,-12.53,17.55,-22.32,0.00,5.77,-5.58,-38.33,1100,1100,1100,1100,1093,1500,1509,11133,840
26976,9,7.86,12.16,3.40,-0.364,-0.146,1.279,-3.67,-3.11,0.00,0.00,3.67,3.11,0.00,12.86,10.88,5.00,-1.28,0.00,-2.94,-3.28,-65.84,1100,1100,1100,1100,1093,1500,1509,11129,840
26989,9,-9.07,12.67,-4.50,-0.217,-0.046,1.086,-0.86,-3.32,0.00,3.33,0.86,6.65,0.00,3.00,23.26,12.07,10.59,0.00,4.46,-3.56,91.86,1100,1100,1100,1100,1064,1500,1537,11137,840
27001,9,-5.19,-2.09,-0.86,0.206,-0.185,0.829,-4.69,-0.28,0.00,3.33,4.69,3.61,0.00,16.42,12.63,21.61,14.72,0.00,3.11,2.59,19.34,1100,1100,1100,1100,1065,1500,1537,11141,840
27012,9,5.05,-4.23,-2.25,0.063,0.013,0.918,-2.76,2.16,0.00,3.33,2.76,1.17,0.00,9.67,4.08,4.62,8.31,0.00,-2.75,2.97,32.26,1100,1100,1100,1100,1065,1500,1537,11141,840
27025,9,-4.30,-3.02,0.34,0.102,0.427,1.055,-0.71,2.12,0.00,3.33,0.71,1.21,0.00,2.47,4.25,6.77,7.27,0.00,2.26,1.60,-0.57,1100,1100,1100,1100,1065,1500,1537,11154,840
27036,9,1.27,-12.41,2.78,0.169,0.034,0.657,-0.39,3.87,0.00,3.33,0.39,-0.54,0.00,1.38,-1.90,0.11,10.51,0.00,-0.69,6.37,-59.35,1100,1100,1100,1100,1065,1500,1537,11154,840
27049,9,13.58,-1.60,-1.33,-0.042,-0.547,1.083,-2.87,8.71,0.00,0.00,2.87,-8.71,0.00,10.06,-30.49,-3.52,-28.89,0.00,-6.14,-1.35,20.72,1100,1100,1100,1100,1086,1500,1520,11162,836
27061,9,0.59,10.23,5.07,-0.227,-0.203,1.123,3.86,9.80,0.00,3.24,-3.86,-6.56,0.00,-13.50,-22.96,-14.09,-33.19,0.00,-0.76,-6.15,-101.88,1100,1100,1100,1100,1078,1500,1536,11158,836
27072,9,-7.74,5.65,-1.14,-0.494,-0.201,1.658,-0.43,2.46,0.00,3.24,0.43,0.78,0.00,1.52,2.75,9.26,-2.90,0.00,4.09,-2.28,16.60,1100,1100,1100,1100,1078,1500,1536,11158,836
27085,9,-5.97,8.64,-4.29,-0.185,-0.542,0.999,-3.66,0.11,0.00,0.00,3.66,-0.11,0.00,12.81,-0.38,18.78,-9.02,0.00,2.95,-3.27,97.35,1100,1100,1100,1100,1107,1500,1508,11150,836
27096,9,-12.41,10.28,0.35,0.016,0.062,0.745,-2.00,-1.33,0.00,0.00,2.00,1.33,0.00,7.00,4.64,19.42,-5.64,0.00,6.26,-4.17,-2.54,1100,1100,1100,1100,1107,1500,1508,11150,836
27109,9,1.10,-5.34,-2.59,0.302,0.303,1.352,-0.20,2.92,0.00,3.33,0.20,0.41,0.00,0.71,1.43,-0.39,6.77,0.00,-0.62,3.58,49.01,1100,1100,1100,1100,1078,1500,1537,11150,836
27121,9,-10.50,2.95,1.98,0.307,0.313,0.438,5.38,6.76,0.00,3.33,-5.38,-3.43,0.00,-18.83,-11.99,-8.33,-14.94,0.00,3.80,-1.71,-41.82,1100,1100,1100,1100,1078,1500,1537,11137,836
27133,9,-2.49,6.42,0.29,0.097,0.384,0.781,6.68,3.68,0.00,3.33,-6.68,-0.35,0.00,-23.37,-1.23,-20.88,-7.64,0.00,0.96,-3.18,-4.54,1100,1100,1100,1100,1078,1500,1537,11129,836
27144,9,17.57,1.16,-0.02,-0.304,0.040,1.524,0.94,-4.27,0.00,5.67,-0.94,9.94,0.00,-3.29,34.79,-20.86,33.63,0.00,-8.93,3.45,8.74,1100,1100,1100,1100,1051,1500,1563,11137,844
27156,9,-8.04,-6.39,0.37,-0.139,0.212,0.872,4.60,2.26,0.00,5.67,-4.60,3.41,0.00,-16.09,11.95,-8.06,18.34,0.00,3.35,3.33,-9.14,1100,1100,1100,1100,1051,1500,1563,11141,844
27169,9,6.59,-17.00,1.92,0.504,-0.228,0.811,-4.70,8.36,0.00,0.00,4.70,-8.36,0.00,16.46,-29.26,9.87,-12.26,0.00,-1.67,6.28,-42.66,1100,1100,1100,1100,1108,1500,1509,11129,844
27181,9,1.74,3.57,0.02,0.172,-0.631,0.716,-7.36,13.03,0.00,0.00,7.36,-13.03,0.00,25.76,-45.61,24.03,-49.18,0.00,-0.86,-4.90,-2.06,1100,1100,1100,1100,1110,1500,1509,11133,844
27192,9,-10.52,-0.90,-0.29,0.053,-0.089,0.937,-3.02,17.30,0.00,0.00,3.02,-17.30,0.00,10.56,-60.54,21.09,-59.65,0.00,6.23,-5.19,7.34,1100,1100,1100,1100,1110,1500,1509,11133,844
27205,9,6.37,4.72,0.45,-0.176,-0.004,1.185,-3.87,7.63,0.00,0.00,3.87,-7.63,0.00,13.54,-26.72,7.16,-31.43,0.00,-2.54,-4.35,-12.29,1100,1100,1100,1100,1110,1500,1512,11129,844
27216,9,-5.69,-1.53,-1.40,0.048,0.286,1.037,2.15,6.24,0.00,0.00,-2.15,-6.24,0.00,-7.51,-21.84,-1.83,-20.31,0.00,1.81,-0.49,21.95,1100,1100,1100,1100,1110,1500,1512,11133,844
27229,9,4.41,-20.52,-1.31,0.569,0.284,0.578,1.73,9.66,0.00,0.00,-1.73,-9.66,0.00,-6.04,-33.82,-10.45,-13.30,0.00,-1.60,8.44,20.33,1100,1100,1100,1100,1111,1500,1511,11137,844
27241,9,8.55,3.24,1.15,-0.406,-0.517,1.123,-4.28,1.31,0.00,2.16,4.28,0.85,0.00,14.99,2.97,6.43,-0.27,0.00,-4.07,-1.34,-30.13,1100,1100,1100,1100,1100,1500,1524,11133,825
27252,9,-3.79,7.31,1.95,-0.460,0.225,1.563,-1.17,-2.16,0.00,2.16,1.17,4.32,0.00,4.08,15.12,7.87,7.81,0.00,1.99,-2.60,-31.84,1100,1100,1100,1100,1100,1500,1524,11145,825
27265,9,5.76,-0.71,3.38,-0.337,-0.122,1.035,-6.41,-5.96,0.00,3.24,6.41,9.20,0.00,22.42,32.19,16.67,32.90,0.00,-1.68,2.56,-61.01,1100,1100,1100,1100,1096,1500,1536,11141,825
27276,9,-11.58,10.66,-4.34,-0.019,-0.758,1.065,-8.50,1.43,0.00,3.24,8.50,1.81,0.00,29.74,6.32,41.32,-4.34,0.00,6.61,-5.05,86.53,1100,1100,1100,1100,1096,1500,1536,11145,825
27289,9,-2.85,3.62,-1.04,0.181,-0.194,0.862,-7.84,7.67,0.00,0.00,7.84,-7.67,0.00,27.43,-26.85,30.28,-30.47,0.00,2.58,-3.99,22.71,1100,1100,1100,1100,1126,1500,1511,11141,825
27301,9,1.58,4.73,-0.26,-0.016,0.301,0.851,-1.55,6.50,0.00,0.00,1.55,-6.50,0.00,5.44,-22.77,3.85,-27.49,0.00,-0.82,-3.71,-1.63,1100,1100,1100,1100,1129,1500,1511,11133,825
27313,9,-8.32,-8.08,-0.52,0.548,0.446,0.971,-0.36,12.36,0.00,0.00,0.36,-12.36,0.00,1.25,-43.27,9.57,-35.19,0.00,4.25,1.13,21.77,1100,1100,1100,1100,1129,1500,1511,11145,825
27325,9,3.24,-11.80,1.74,0.228,-0.042,0.887,-2.28,8.49,0.00,0.00,2.28,-8.49,0.00,7.96,-29.73,4.73,-17.93,0.00,-1.21,3.89,-34.76,1100,1100,1100,1100,1132,1500,1511,11141,825
27337,9,5.42,7.57,-1.82,-0.351,-0.393,1.141,-3.19,1.64,0.00,0.00,3.19,-1.64,0.00,11.17,-5.72,5.76,-13.29,0.00,-2.39,-3.65,31.64,1100,1100,1100,1100,1132,1500,1511,11133,825
27349,9,1.08,9.32,4.92,-0.357,-0.277,1.287,-2.15,0.51,0.00,6.12,2.15,5.61,0.00,7.53,19.65,6.45,10.33,0.00,-0.12,-2.71,-101.22,1100,1100,1100,1100,1075,1500,1568,11125,922
27361,9,3.59,-6.28,-1.37,-0.194,-0.176,1.389,-3.42,1.23,0.00,2.79,3.42,1.56,0.00,11.95,5.46,8.37,11.74,0.00,-1.05,4.06,19.44,1100,1100,1100,1100,1117,1500,1531,11129,922
27372,9,-3.80,5.74,-3.34,-0.317,-0.225,1.024,-2.47,0.30,0.00,2.79,2.47,2.49,0.00,8.64,8.71,12.44,2.97,0.00,1.72,-1.85,74.04,1100,1100,1100,1100,1117,1500,1531,11120,922
27385,9,-14.17,5.36,-0.98,0.283,-0.068,0.566,-2.66,3.39,0.00,3.24,2.66,-0.15,0.00,9.30,-0.52,23.47,-5.87,0.00,7.36,-2.05,16.91,1100,1100,1100,1100,1119,1500,1536,11120,922
27396,9,4.31,5.16,-1.71,0.278,0.160,1.341,-2.50,3.72,0.00,3.24,2.50,-0.48,0.00,8.76,-1.67,4.45,-6.83,0.00,-1.66,-1.43,31.59,1100,1100,1100,1100,1119,1500,1536,11129,922
27409,9,-5.13,-1.97,3.78,0.098,0.315,0.665,1.80,4.87,0.00,3.24,-1.80,-1.63,0.00,-6.29,-5.69,-1.16,-3.72,0.00,1.65,0.84,-71.56,1100,1100,1100,1100,1121,1500,1536,11120,922
27421,9,4.18,-18.09,1.21,0.282,0.014,0.638,-0.69,10.66,0.00,0.00,0.69,-10.66,0.00,2.43,-37.31,-1.75,-19.22,0.00,-1.36,6.34,-22.62,1100,1100,1100,1100,1148,1500,1511,11137,922
27432,9,10.04,9.17,0.24,-0.212,-0.636,1.588,-3.60,3.69,0.00,0.00,3.60,-3.69,0.00,12.60,-12.93,2.56,-22.10,0.00,-4.69,-4.19,3.23,1100,1100,1100,1100,1148,1500,1511,11145,922
27445,9,-9.99,8.84,1.54,-0.318,0.053,1.170,0.59,2.01,0.00,0.00,-0.59,-2.01,0.00,-2.06,-7.03,7.93,-15.86,0.00,4.70,-4.61,-29.78,1157,1157,1171,1139,1156,1500,1509,11141,1026
27456,9,8.53,-6.50,-1.15,0.242,0.066,0.871,-2.06,2.85,0.00,0.00,2.06,-2.85,0.00,7.21,-9.97,-1.33,-3.47,0.00,-3.51,4.22,21.28,1157,1157,1171,1139,1156,1500,1509,11150,1026
27469,9,-11.38,16.15,-2.62,-0.195,-0.233,1.210,-1.56,3.15,0.00,0.00,1.56,-3.15,0.00,5.46,-11.03,16.84,-27.17,0.00,4.82,-6.87,51.87,1157,1157,1171,1139,1155,1500,1510,11137,1026
27481,9,-5.37,-12.30,-0.89,0.677,0.334,0.675,0.82,9.41,0.00,3.15,-0.82,-6.26,0.00,-2.86,-21.90,2.51,-9.60,0.00,3.38,5.06,16.58,1157,1157,1171,1139,1131,1500,1535,11129,1026
27492,9,16.83,-6.49,2.57,0.033,0.196,0.982,0.51,3.10,0.00,3.15,-0.51,0.05,0.00,-1.77,0.18,-18.61,6.67,0.00,-8.43,3.64,-51.73,1157,1157,1171,1139,1131,1500,1535,11116,1026
27505,9,-12.35,-6.71,1.54,0.045,0.233,0.757,4.65,6.51,0.00,0.00,-4.65,-6.51,0.00,-16.28,-22.79,-3.93,-16.08,0.00,5.12,1.53,-25.61,1157,1157,1171,1139,1156,1500,1510,11104,1026
27516,9,6.16,-20.40,3.02,0.310,0.330,0.915,3.71,5.33,0.00,0.00,-3.71,-5.33,0.00,-12.97,-18.67,-19.13,1.73,0.00,-2.85,9.51,-48.29,1157,1157,1171,1139,1156,1500,1510,11100,1026
27529,9,13.54,-0.94,1.33,-0.422,-0.191,0.789,-1.57,0.97,0.00,0.00,1.57,-0.97,0.00,5.48,-3.41,-8.05,-2.46,0.00,-7.58,0.92,-26.53,1157,1157,1171,1139,1157,1500,1510,11095,1026
27541,9,2.67,-3.74,0.25,-0.160,0.476,0.881,9.62,7.59,0.00,0.00,-9.62,-7.59,0.00,-33.68,-26.56,-36.36,-22.82,0.00,-2.55,-0.68,-3.95,1173,1167,1163,1169,1168,1500,1510,11083,915
27552,9,16.08,-19.87,3.94,0.283,-0.013,0.947,8.07,19.25,0.00,0.00,-8.07,-19.25,0.00,-28.25,-67.37,-44.33,-47.50,0.00,-8.00,4.47,-84.82,1173,1167,1163,1169,1168,1500,1510,11079,915
27565,9,3.56,23.70,0.44,-0.579,-0.713,1.363,2.70,11.96,0.00,0.00,-2.70,-11.96,0.00,-9.47,-41.85,-13.03,-65.56,0.00,-3.36,-13.53,-5.91,1173,1167,1163,1169,1173,1500,1509,11066,915
27576,9,-3.26,-0.76,1.82,-0.036,0.041,1.388,10.26,13.35,0.00,0.00,-10.26,-13.35,0.00,-35.92,-46.71,-32.65,-45.95,0.00,0.58,-2.58,-31.08,1173,1167,1163,1169,1173,1500,1509,11066,915
27589,9,9.87,-14.41,6.13,-0.341,-0.031,1.450,0.24,8.41,0.00,0.00,-0.24,-8.41,0.00,-0.85,-29.45,-10.71,-15.04,0.00,-3.81,4.45,-117.70,1173,1167,1163,1169,1175,1500,1508,11050,915
27601,9,6.36,3.54,0.37,0.070,-0.144,1.208,1.53,12.53,0.00,3.15,-1.53,-9.38,0.00,-5.34,-32.82,-11.71,-36.36,0.00,-3.66,-4.05,-26.06,1173,1167,1163,1169,1148,1500,1535,11050,915
27612,9,-20.31,11.16,-2.19,-0.026,0.508,1.190,0.90,17.67,0.00,3.15,-0.90,-14.52,0.00,-3.16,-50.83,17.15,-61.99,0.00,9.21,-9.93,37.01,1173,1167,1163,1169,1148,1500,1535,11029,915
27624,9,-5.79,-1.76,1.90,0.004,0.451,0.914,-0.08,3.46,0.00,0.00,0.08,-3.46,0.00,0.27,-12.12,6.06,-10.37,0.00,2.84,0.71,-32.78,1173,1167,1163,1169,1175,1500,1510,11037,915
27636,9,-1.48,21.92,0.37,-0.114,-0.359,1.673,-0.34,7.54,0.00,0.00,0.34,-7.54,0.00,1.18,-26.38,2.66,-48.29,0.00,0.60,-10.62,-6.79,1173,1167,1163,1169,1175,1500,1510,11054,915
27649,9,-16.33,36.43,-3.06,-0.371,-0.270,2.196,23.64,13.71,0.00,0.00,-23.64,-13.71,0.00,-82.74,-48.00,-66.41,-84.43,0.00,4.34,-19.73,48.05,1200,1174,1184,1174,1183,1500,1509,11066,821
27661,9,-8.83,-2.12,2.97,-0.296,-0.721,1.567,-6.15,16.66,0.00,2.97,6.15,-13.69,0.00,21.54,-47.92,30.37,-45.80,0.00,5.45,-3.59,-58.77,1200,1174,1184,1174,1163,1500,1533,11050,821
27672,9,5.53,-39.55,3.17,0.073,-0.364,0.729,-7.43,17.72,0.00,2.97,7.43,-14.75,0.00,26.01,-51.62,20.47,-12.07,0.00,-0.92,16.62,-69.89,1200,1174,1184,1174,1163,1500,1533,11045,821
27685,9,2.51,-16.81,-2.52,1.213,-0.339,0.642,-7.02,23.08,0.00,0.00,7.02,-23.08,0.00,24.58,-80.78,22.07,-63.97,0.00,0.58,5.53,39.39,1200,1174,1184,1174,1190,1500,1510,11054,821
27696,9,1.37,16.56,-11.52,0.257,-0.781,0.743,-9.37,13.90,0.00,0.00,9.37,-13.90,0.00,32.79,-48.64,31.43,-65.20,0.00,1.44,-11.42,230.94,1200,1174,1184,1174,1190,1501,1510,11050,821
27709,9,0.79,-7.10,1.27,-0.999,-0.458,1.217,2.63,8.23,0.00,0.00,-2.63,-8.23,0.00,-9.19,-28.81,-9.99,-21.71,0.00,0.19,-1.56,-24.56,1200,1174,1184,1174,1191,1501,1509,11041,821
27721,9,2.65,-22.45,4.09,-0.292,0.238,1.042,6.28,12.37,0.00,0.00,-6.28,-12.37,0.00,-21.97,-43.28,-24.62,-20.83,0.00,-1.81,6.10,-100.68,1200,1174,1184,1174,1191,1500,1509,11029,821
27732,9,-0.35,5.68,0.65,1.060,1.160,0.317,8.34,15.51,0.00,0.00,-8.34,-15.51,0.00,-29.18,-54.28,-28.82,-59.96,0.00,-1.08,-5.91,-48.13,1200,1174,1184,1174,1191,1500,1509,10996,821
27745,9,1.61,34.25,-4.80,-0.199,-0.764,0.939,-6.25,-1.37,0.00,0.00,6.25,1.37,0.00,21.88,4.81,20.26,-29.44,0.00,-0.39,-15.35,72.94,1180,1200,1194,1198,1193,1500,1508,10996,813
27756,9,-13.78,7.42,1.58,-1.741,-0.388,2.390,0.45,-5.20,0.00,0.00,-0.45,5.20,0.00,-1.58,18.19,12.19,10.78,0.00,4.93,-1.05,-42.35,1180,1200,1194,1198,1193,1500,1508,10983,813
27769,9,-0.46,-36.03,2.60,0.047,0.023,0.732,12.37,6.19,0.00,0.00,-12.37,-6.19,0.00,-43.28,-21.67,-42.82,14.35,0.00,-1.37,19.95,-70.73,1180,1200,1194,1198,1185,1500,1517,10983,813
27781,9,4.98,65.42,-1.82,0.291,-0.343,2.510,1.71,-3.37,0.00,0.00,-1.71,3.37,0.00,-5.98,11.81,-10.96,-53.61,0.00,-1.70,-26.17,48.43,1180,1200,1194,1198,1199,1500,1509,10991,813
27792,9,29.94,-13.23,1.44,-0.194,-0.343,1.211,-13.95,4.44,0.00,0.00,13.95,-4.44,0.00,48.83,-15.55,18.89,-2.32,0.00,-13.53,1.62,-42.57,1180,1200,1194,1198,1199,1500,1509,10987,813
27805,1,-15.41,-38.55,-7.92,1.988,-1.551,-1.627,-29.35,6.99,0.00,0.00,29.35,-6.99,0.00,102.73,-24.47,118.13,14.09,0.00,10.08,16.65,134.87,1180,1200,1194,1198,1200,1500,1508,10979,813
27816,1,-54.25,-5.00,-6.29,-2.360,0.854,2.731,-32.36,-0.07,0.00,0.00,32.36,0.07,0.00,113.32,0.22,167.58,5.22,0.00,31.25,0.25,79.82,1180,1200,1194,1198,1200,1500,1508,10979,813
27829,9,22.07,-15.35,-5.35,-0.410,0.746,1.534,-42.67,12.65,0.00,3.42,42.67,-9.23,0.00,149.36,-32.31,127.29,-16.96,0.00,-1.78,5.39,14.23,1180,1200,1194,1198,1171,1500,1538,10987,813
27841,1,36.98,28.02,-10.40,1.452,-0.395,0.655,-27.97,10.36,0.00,0.00,27.97,-10.36,0.00,97.90,-36.27,60.93,-64.29,0.00,-12.29,-14.14,96.68,1104,1324,1272,1108,1202,1500,1509,10979,810
27853,1,23.39,27.39,-1.59,0.495,-0.199,0.674,-24.76,19.78,0.00,0.00,24.76,-19.78,0.00,86.69,-69.26,63.31,-96.65,0.00,-8.88,-20.61,-83.96,1104,1324,1272,1108,1202,1500,1509,10975,810
27865,9,-13.15,-14.10,-8.06,0.767,-0.981,0.292,-19.99,18.04,0.00,4.32,19.99,-13.72,0.00,69.96,-48.02,83.11,-33.92,0.00,8.88,2.89,33.87,1104,1324,1272,1108,1163,1500,1548,10962,810
27876,9,-32.53,-48.41,-9.82,-0.576,0.509,0.759,-9.51,13.03,0.00,4.32,9.51,-8.71,0.00,33.28,-30.48,65.81,17.93,0.00,17.55,20.74,89.72,1104,1324,1272,1108,1163,1500,1548,10966,810
27889,1,21.76,22.67,-7.63,-0.139,0.708,1.911,-5.63,3.19,0.00,0.00,5.63,-3.19,0.00,19.71,-11.17,-2.05,-33.84,0.00,-8.88,-7.55,59.05,1104,1324,1272,1108,1207,1500,1508,10983,810
27901,9,35.60,20.46,-5.30,-0.291,-1.205,1.327,-23.31,9.40,0.00,3.42,23.31,-5.98,0.00,81.61,-20.93,46.01,-41.39,0.00,-14.60,-11.19,-22.98,1104,1324,1272,1108,1177,1500,1538,10983,810
27912,9,-7.71,37.09,-5.26,0.372,0.220,0.313,-0.46,11.42,0.00,3.42,0.46,-8.00,0.00,1.62,-28.00,9.32,-65.09,0.00,1.33,-20.46,-0.53,1104,1324,1272,1108,1177,1500,1538,10991,810
27925,1,-30.27,-23.82,-3.40,1.144,-0.307,0.108,-13.14,21.26,0.00,0.00,13.14,-21.26,0.00,45.98,-74.40,76.26,-50.59,0.00,16.19,7.48,-62.19,1104,1324,1272,1108,1207,1500,1508,11012,810
27936,1,-10.11,-23.57,-12.54,-0.798,0.250,1.757,-20.16,13.55,0.00,0.00,20.16,-13.55,0.00,70.59,-47.44,80.70,-23.87,0.00,8.57,8.38,139.40,1104,1324,1272,1108,1207,1500,1508,11012,810
27949,9,15.91,5.27,-11.61,0.384,0.604,1.080,-9.72,10.13,0.00,3.42,9.72,-6.71,0.00,34.02,-23.50,18.11,-28.77,0.00,-6.05,-0.00,121.26,1194,1146,1138,1230,1177,1500,1538,11004,814
27961,1,17.03,38.39,-1.79,-0.782,-0.289,1.934,-8.34,3.58,0.00,0.00,8.34,-3.58,0.00,29.19,-12.52,12.16,-50.91,0.00,-6.84,-19.24,-71.84,1194,1146,1138,1230,1206,1500,1508,11004,814
27973,1,-13.66,0.03,-4.15,1.226,0.256,-0.080,18.30,11.90,0.00,0.00,-18.30,-11.90,0.00,-64.06,-41.65,-50.39,-41.68,0.00,4.85,-0.05,-31.65,1194,1146,1138,1230,1206,1500,1508,11012,814
27985,9,19.40,-45.81,-2.31,0.231,0.534,0.623,10.51,9.71,0.00,3.33,-10.51,-6.38,0.00,-36.79,-22.33,-56.19,23.49,0.00,-9.28,18.28,-64.66,1194,1146,1138,1230,1179,1500,1537,11012,814
27996,9,13.48,-15.90,-15.60,-0.509,-0.214,1.670,2.39,-1.14,0.00,3.33,-2.39,4.47,0.00,-8.37,15.66,-21.85,31.56,0.00,-5.93,8.45,198.58,1194,1146,1138,1230,1179,1500,1537,11008,814
28009,9,3.85,-11.74,-10.21,-0.079,-1.272,0.833,-9.22,13.60,0.00,2.97,9.22,-10.63,0.00,32.26,-37.21,28.41,-25.47,0.00,-1.59,2.66,83.73,1194,1146,1138,1230,1183,1500,1533,10996,814
28021,9,-22.55,35.25,-5.95,-0.353,-0.889,0.967,-4.95,7.24,0.00,3.69,4.95,-3.55,0.00,17.33,-12.43,39.88,-47.67,0.00,9.79,-15.81,3.39,1194,1146,1138,1230,1175,1500,1541,11004,814
28032,9,-40.07,20.59,2.63,0.310,-0.015,0.507,5.17,16.36,0.00,3.69,-5.17,-12.67,0.00,-18.10,-44.35,21.97,-64.94,0.00,17.91,-11.24,-155.11,1194,1146,1138,1230,1175,1500,1541,11012,814
28045,9,-1.65,21.77,0.74,0.484,1.240,1.180,4.54,9.89,0.00,3.69,-4.54,-6.20,0.00,-15.90,-21.69,-14.24,-43.46,0.00,-0.40,-9.77,-83.34,1144,1226,1222,1108,1175,1500,1541,10996,809
28057,9,31.19,-2.38,-0.62,0.362,0.032,0.811,-1.38,1.70,0.00,3.69,1.38,1.99,0.00,4.83,6.95,-26.36,9.33,0.00,-15.33,3.62,1.57,1144,1226,1222,1108,1175,1500,1541,11004,809
28069,9,-1.72,-15.74,-1.53,-0.083,-1.531,0.575,-12.06,-5.80,0.00,7.56,12.06,13.36,0.00,42.20,46.77,43.93,62.51,0.00,0.98,11.00,42.56,1144,1226,1222,1108,1134,1500,1584,10996,809
28081,1,-28.82,1.34,-3.29,-0.827,-0.885,1.253,-6.10,-6.61,0.00,0.00,6.10,6.61,0.00,21.35,23.15,50.17,21.81,0.00,13.81,1.87,84.51,1144,1226,1222,1108,1212,1500,1509,11008,809
28092,1,-24.64,-8.49,0.20,0.028,0.081,0.419,2.48,7.34,0.00,0.00,-2.48,-7.34,0.00,-8.68,-25.68,15.96,-17.19,0.00,12.73,2.91,-24.85,1144,1226,1222,1108,1212,1500,1509,11021,809
28105,9,7.90,23.51,-4.36,0.212,0.037,1.730,-5.71,6.80,0.00,3.33,5.71,-3.47,0.00,19.97,-12.13,12.07,-35.64,0.00,-0.55,-13.15,37.52,1144,1226,1222,1108,1184,1500,1537,11021,809
28116,9,17.42,-0.61,-4.84,0.525,-0.021,0.689,-2.97,13.86,0.00,3.33,2.97,-10.53,0.00,10.40,-36.85,-7.02,-36.24,0.00,-6.62,-2.41,33.26,1144,1226,1222,1108,1184,1500,1537,11004,809
28129,9,-3.65,-15.27,-11.02,0.216,-0.210,0.529,-7.21,9.59,0.00,3.69,7.21,-5.90,0.00,25.23,-20.66,28.89,-5.39,0.00,3.21,5.50,151.93,1144,1226,1222,1108,1181,1500,1541,11025,809
28141,1,-20.55,-23.57,-7.96,-1.131,0.004,1.363,-0.12,10.28,0.00,0.00,0.12,-10.28,0.00,0.43,-35.97,20.97,-12.40,0.00,11.08,7.84,81.58,1130,1278,1314,1138,1215,1500,1507,11004,809
28153,1,-14.19,4.80,0.99,-0.254,0.860,1.071,4.82,10.65,0.00,0.00,-4.82,-10.65,0.00,-16.88,-37.29,-2.70,-42.09,0.00,7.85,-2.86,-93.58,1130,1278,1314,1138,1215,1500,1507,10983,809
28165,9,-1.87,29.74,-1.85,0.034,0.537,1.450,-0.79,7.11,0.00,7.20,0.79,0.09,0.00,2.76,0.30,4.63,-29.44,0.00,1.84,-12.62,-26.94,1130,1278,1314,1138,1143,1499,1580,10979,809
28176,9,15.12,6.98,-2.77,0.401,-0.250,0.912,-7.57,6.98,0.00,7.20,7.57,0.22,0.00,26.50,0.77,11.38,-6.21,0.00,-7.64,-0.42,7.09,1130,1278,1314,1138,1143,1500,1580,10996,809
28189,9,0.25,23.68,-5.95,-1.156,-0.815,1.600,-8.48,-1.58,0.00,3.69,8.48,5.27,0.00,29.69,18.44,29.44,-5.23,0.00,-1.90,-7.30,83.58,1130,1278,1314,1138,1182,1500,1541,11016,809
28201,9,-32.62,9.43,-0.77,-0.911,-0.548,1.364,-5.84,-9.76,0.00,3.60,5.84,13.36,0.00,20.43,46.78,53.06,37.35,0.00,15.24,3.36,-23.09,1130,1278,1314,1138,1195,1500,1540,11029,809
28212,9,-14.29,-8.30,-5.87,-0.116,0.486,1.272,-0.32,-1.66,0.00,3.60,0.32,5.26,0.00,1.13,18.42,15.42,26.72,0.00,6.99,8.34,64.08,1130,1278,1314,1138,1195,1500,1540,11045,809
28225,9,22.05,12.56,-3.14,0.588,1.038,1.027,-7.90,4.50,0.00,3.60,7.90,-0.90,0.00,27.64,-3.16,5.59,-15.71,0.00,-9.43,-6.87,4.43,1130,1278,1314,1138,1196,1500,1540,11029,809
28236,9,22.44,-2.37,-7.62,0.797,-1.626,0.297,-16.61,-0.31,0.00,3.60,16.61,3.91,0.00,58.13,13.67,35.69,16.05,0.00,-9.27,0.21,69.54,1130,1278,1314,1138,1196,1500,1540,11029,809
28249,1,-12.79,-7.36,-8.74,-1.046,-0.707,1.720,3.71,-3.79,0.00,3.60,-3.71,7.39,0.00,-13.01,25.88,-0.22,33.24,0.00,4.61,1.32,94.88,1232,1178,1148,1242,1200,1500,1540,11012,810
28261,1,-16.94,-46.23,-2.58,0.164,1.018,-0.014,18.82,5.62,0.00,0.00,-18.82,-5.62,0.00,-65.90,-19.68,-48.96,26.55,0.00,6.69,22.54,-27.27,1232,1178,1148,1242,1233,1500,1509,11012,810
28272,1,11.47,29.61,0.13,-0.664,-0.318,2.732,0.65,-3.43,0.00,0.00,-0.65,3.43,0.00,-2.30,12.01,-13.77,-17.60,0.00,-3.49,-13.13,-83.89,1232,1178,1148,1242,1233,1500,1509,11016,810
28285,1,31.79,12.43,-8.14,-0.034,-0.253,1.152,-16.68,3.59,0.00,3.24,16.68,-0.35,0.00,58.37,-1.22,26.58,-13.65,0.00,-13.05,-8.66,92.38,1232,1178,1148,1242,1206,1500,1536,11008,810
28296,1,-37.82,-25.05,-3.42,-0.040,-0.587,-0.388,-26.82,5.04,0.00,3.24,26.82,-1.80,0.00,93.87,-6.29,131.69,18.76,0.00,21.11,9.17,25.39,1232,1178,1148,1242,1206,1500,1536,11004,810
28309,1,-56.22,7.70,-4.87,-1.012,1.008,1.942,-10.48,-1.64,0.00,3.24,10.48,4.88,0.00,36.72,17.09,92.93,9.39,0.00,31.55,-2.48,23.38,1232,1178,1148,1242,1207,1500,1536,10962,810
28321,1,25.38,-1.03,-7.71,-1.604,1.759,2.189,-9.02,0.38,0.00,3.24,9.02,2.86,0.00,31.62,10.02,6.23,11.06,0.00,-7.79,2.49,74.68,1232,1178,1148,1242,1208,1500,1536,10962,810
28332,1,43.33,13.84,-5.60,1.336,-0.035,0.172,-17.26,16.59,0.00,3.24,17.26,-13.35,0.00,60.49,-46.73,17.16,-60.57,0.00,-18.34,-4.66,13.82,1232,1178,1148,1242,1208,1500,1536,10962,810
28345,1,28.60,38.43,-8.63,-0.596,-0.200,2.110,-6.44,3.99,0.00,3.24,6.44,-0.75,0.00,22.62,-2.63,-5.98,-41.06,0.00,-16.41,-21.85,55.95,1100,1279,1393,1100,1209,1500,1536,10966,811
28356,1,-33.12,-43.68,-8.90,1.436,-0.907,-1.030,-20.94,15.40,0.00,3.24,20.94,-12.16,0.00,73.38,-42.57,106.50,1.11,0.00,16.81,22.28,49.29,1100,1279,1393,1100,1209,1500,1536,10979,811
28369,1,-60.39,17.65,-5.74,-2.302,0.171,2.583,-18.36,3.91,0.00,3.24,18.36,-0.67,0.00,64.38,-2.38,124.77,-20.03,0.00,32.09,-7.49,3.96,1100,1279,1393,1100,1212,1500,1536,10979,811
28381,1,14.65,-10.17,-7.82,0.814,1.671,0.325,-14.90,18.48,0.00,3.24,14.90,-15.24,0.00,52.30,-53.38,37.66,-43.21,0.00,-2.30,5.75,52.62,1100,1279,1393,1100,1220,1500,1536,10975,811
28393,1,37.56,24.22,-6.29,0.021,0.842,1.613,-29.45,13.53,0.00,3.24,29.45,-10.29,0.00,103.27,-36.07,65.70,-60.29,0.00,-12.34,-17.03,18.91,1100,1279,1393,1100,1220,1500,1536,10987,811
28405,5,41.97,-8.05,-5.46,1.961,-0.283,-0.542,-51.35,18.11,0.00,0.00,51.35,-18.11,0.00,375.00,-63.43,333.03,-55.38,0.00,-7.20,-1.92,5.45,1100,1279,1393,1100,1238,1500,1518,10975,811
28417,1,-15.40,-14.33,-8.09,0.078,-1.172,0.837,-32.52,1.46,0.00,3.87,32.52,2.41,0.00,114.08,8.37,129.48,22.70,0.00,8.84,5.55,29.59,1100,1279,1393,1100,1238,1500,1543,10962,811
28429,1,-33.05,-75.03,-9.97,0.853,-0.494,-0.328,-33.25,13.21,0.00,3.87,33.25,-9.34,0.00,116.67,-32.77,149.71,42.26,0.00,19.90,34.32,32.58,1100,1279,1393,1100,1221,1500,1543,10946,811
28441,1,-23.52,-21.57,-13.67,-1.278,0.633,1.965,-22.22,5.93,0.00,3.15,22.22,-2.78,0.00,78.08,-9.82,101.59,11.75,0.00,16.51,7.54,129.74,1100,1334,1380,1108,1228,1500,1535,10929,810
28453,1,38.58,-5.30,-11.24,0.923,0.693,0.543,-0.23,25.13,0.00,3.15,0.23,-21.98,0.00,1.15,-77.04,-37.43,-71.74,0.00,-15.19,0.53,59.80,1100,1334,1380,1108,1228,1500,1535,10929,810
28465,1,60.61,54.20,-3.18,-0.926,-0.254,2.307,-3.89,15.22,0.00,0.00,3.89,-15.22,0.00,13.95,-53.38,-46.66,-107.59,0.00,-27.41,-33.39,-78.88,1100,1334,1380,1108,1256,1500,1508,10941,810
28477,1,31.62,7.21,-9.29,1.155,-0.320,0.134,-15.05,14.76,0.00,0.00,15.05,-14.76,0.00,53.00,-51.79,21.38,-59.00,0.00,-12.73,-4.75,50.56,1100,1334,1380,1108,1256,1500,1508,10937,810
28489,1,-8.06,-50.13,-2.26,0.351,-1.451,-0.250,-11.61,22.88,0.00,0.00,11.61,-22.88,0.00,40.96,-80.22,49.02,-30.09,0.00,5.28,17.05,-94.08,1100,1334,1380,1108,1255,1500,1510,10925,810
28501,1,-47.70,12.40,-2.74,-2.115,-0.764,2.230,-8.99,-0.84,0.00,3.15,8.99,3.99,0.00,31.83,13.80,79.53,1.40,0.00,24.52,-4.82,-33.27,1100,1334,1380,1108,1235,1500,1535,10916,810
28512,1,-37.41,-13.91,-13.81,-0.072,0.870,0.524,26.28,17.54,0.00,3.15,-26.28,-14.39,0.00,-91.66,-50.56,-54.25,-36.64,0.00,16.27,4.29,185.19,1100,1334,1380,1108,1235,1500,1535,10904,810
28524,1,-3.11,38.53,-5.53,-0.152,0.781,1.895,2.92,9.36,0.00,3.15,-2.92,-6.21,0.00,-9.89,-21.92,-6.78,-60.45,0.00,2.88,-21.77,30.51,1100,1334,1380,1108,1236,1500,1535,10925,810
28536,1,32.69,11.89,-9.46,1.150,1.565,0.789,2.98,10.54,0.00,3.15,-2.98,-7.39,0.00,-10.10,-26.05,-42.80,-37.94,0.00,-14.45,-6.41,108.05,1100,1334,1380,1108,1236,1500,1535,10921,810
28549,1,47.21,-27.41,-7.98,0.764,0.633,0.836,-1.65,11.34,0.00,3.15,1.65,-8.19,0.00,6.10,-28.87,-41.11,-1.46,0.00,-21.17,8.79,41.75,1100,1395,1429,1100,1237,1500,1535,10929,805
28561,1,32.89,11.16,-1.20,-0.217,-0.677,1.734,-9.92,-0.59,0.00,3.15,9.92,3.74,0.00,35.08,12.91,2.19,1.74,0.00,-14.16,-5.25,-90.64,1100,1395,1429,1100,1237,1500,1535,10958,805
28572,1,9.33,-10.26,0.50,-0.372,-0.651,0.513,-14.73,-7.27,0.00,3.15,14.73,10.42,0.00,51.90,36.28,42.57,46.54,0.00,-3.55,9.88,-87.05,1100,1395,1429,1100,1237,1500,1535,10946,805
28585,1,-15.19,-2.41,-2.05,-0.693,-0.461,0.791,-4.83,-2.18,0.00,0.00,4.83,2.18,0.00,17.24,7.45,32.43,9.85,0.00,6.73,2.26,-45.94,1100,1395,1429,1100,1262,1500,1510,10933,805
28597,1,-23.36,3.20,1.79,-0.237,-0.535,0.530,-9.25,-0.48,0.00,0.00,9.25,0.48,0.00,32.72,1.50,56.08,-1.70,0.00,11.57,0.64,-113.49,1100,1395,1429,1100,1262,1500,1510,10912,805
28609,1,-22.96,6.34,0.70,-0.049,-0.636,0.714,-9.26,8.65,0.00,3.24,9.26,-5.41,0.00,32.76,-19.11,55.72,-25.45,0.00,11.88,-4.83,-62.83,1100,1395,1429,1100,1236,1500,1536,10916,805
28621,1,-28.51,32.84,-6.59,-0.006,-0.148,1.624,-5.52,2.90,0.00,3.15,5.52,0.25,0.00,19.71,0.68,48.22,-32.16,0.00,14.66,-17.09,100.24,1100,1395,1429,1100,1238,1500,1535,10908,805
28633,1,-23.83,5.53,-7.81,0.896,0.180,0.598,-1.73,9.20,0.00,3.15,1.73,-6.05,0.00,6.43,-21.35,30.25,-26.87,0.00,12.03,-2.66,133.73,1100,1395,1429,1100,1238,1500,1535,10912,805
28644,1,-0.13,-20.27,-8.01,0.941,0.921,0.527,3.62,11.87,0.00,3.15,-3.62,-8.72,0.00,-12.27,-30.73,-12.14,-10.46,0.00,-0.87,7.44,142.99,1293,1185,1189,1285,1238,1500,1535,10908,810
28657,1,7.95,-26.09,-7.22,0.452,0.641,0.885,2.73,6.61,0.00,3.15,-2.73,-3.46,0.00,-9.15,-12.31,-17.10,13.78,0.00,-4.95,11.91,121.65,1293,1185,1189,1285,1238,1500,1535,10916,810
28669,1,-9.82,-2.12,-5.42,-0.995,-0.615,1.455,-3.47,1.16,0.00,3.15,3.47,1.99,0.00,12.54,6.75,22.36,8.86,0.00,3.60,2.69,78.41,1293,1185,1189,1285,1239,1500,1535,10891,810
28681,1,-28.16,18.77,-2.26,-1.222,-0.417,1.880,-3.97,-3.05,0.00,0.00,3.97,3.05,0.00,14.30,10.47,42.47,-8.30,0.00,12.23,-5.40,31.74,1293,1185,1189,1285,1254,1500,1520,10887,810
28692,1,-24.40,23.44,-1.33,-0.248,0.415,0.962,8.08,2.38,0.00,0.00,-8.08,-2.38,0.00,-27.90,-8.53,-3.50,-31.97,0.00,10.30,-6.43,-0.42,1293,1185,1189,1285,1254,1500,1520,10896,810
28704,1,-6.36,13.99,-2.51,-0.143,1.003,0.537,35.02,12.14,0.00,3.06,-35.02,-9.08,0.00,-122.20,-32.00,-115.84,-45.99,0.00,-0.69,-9.10,13.17,1293,1185,1189,1285,1240,1500,1534,10908,810
28716,1,17.92,50.51,-3.97,-0.035,0.691,1.448,19.55,12.28,0.00,3.06,-19.55,-9.22,0.00,-68.06,-32.50,-85.98,-83.00,0.00,-9.68,-27.64,14.50,1293,1185,1189,1285,1240,1500,1534,10912,810
28729,1,35.30,8.73,-3.47,1.772,0.205,0.780,4.81,15.97,0.00,3.06,-4.81,-12.91,0.00,-16.49,-45.43,-51.78,-54.15,0.00,-15.54,-7.62,-0.92,1293,1185,1189,1285,1242,1500,1534,10904,810
28741,1,59.73,-1.98,-7.25,1.371,0.583,0.681,6.56,14.28,0.00,3.06,-6.56,-11.22,0.00,-22.62,-39.50,-82.36,-37.52,0.00,-28.58,-1.89,76.98,1195,1349,1291,1141,1244,1500,1534,10891,811
28753,1,65.10,-23.71,-8.02,1.376,-0.729,0.308,-11.58,15.34,0.00,3.06,11.58,-12.28,0.00,40.87,-43.22,-24.23,-19.51,0.00,-29.98,9.58,72.41,1195,1349,1291,1141,1244,1500,1534,10883,811
28764,1,25.99,-35.29,-2.41,0.958,-1.646,0.031,-24.16,12.98,0.00,0.00,24.16,-12.98,0.00,84.91,-45.68,58.92,-10.38,0.00,-10.58,14.21,-30.39,1195,1349,1291,1141,1261,1500,1517,10887,811
28776,1,-12.75,-18.47,-3.30,-0.644,-1.131,0.869,-11.54,1.38,0.00,0.00,11.54,-1.38,0.00,40.73,-5.10,53.48,13.37,0.00,6.10,6.60,-3.18,1195,1349,1291,1141,1261,1500,1517,10887,811
28789,1,-34.31,11.32,-3.86,-1.612,-0.522,1.682,-0.70,-6.47,0.00,0.00,0.70,6.47,0.00,2.80,22.37,37.11,11.05,0.00,15.56,-2.62,5.95,1195,1349,1291,1141,1272,1500,1508,10900,811
28801,1,-22.75,5.82,-6.68,-0.462,-0.293,1.007,-2.39,-0.85,0.00,3.06,2.39,3.91,0.00,8.73,13.43,31.48,7.61,0.00,11.08,1.88,70.51,1195,1349,1291,1141,1251,1500,1534,10908,811
28812,1,-13.04,3.17,-3.69,-0.300,-0.277,0.994,-15.30,17.08,0.00,3.06,15.30,-14.02,0.00,53.92,-49.34,66.96,-52.51,0.00,8.85,-4.59,28.29,1195,1349,1291,1141,1251,1500,1534,10912,811
28824,1,-8.55,15.57,-6.41,-0.263,-0.433,1.193,-18.84,11.51,0.00,3.06,18.84,-8.45,0.00,66.35,-29.86,74.90,-45.43,0.00,7.19,-12.51,122.10,1195,1349,1291,1141,1252,1500,1534,10912,811
28836,1,-14.42,6.78,-6.76,0.400,-0.586,1.056,-14.44,2.96,0.00,3.06,14.44,0.10,0.00,50.96,0.05,65.38,-6.73,0.00,9.37,-4.77,141.31,1195,1349,1291,1141,1252,1500,1534,10908,811
28849,1,-21.33,7.72,-3.04,0.125,-0.264,0.980,-7.82,0.79,0.00,3.42,7.82,2.63,0.00,27.80,8.92,49.13,1.20,0.00,11.65,-3.24,77.35,1254,1264,1252,1242,1253,1500,1538,10908,806
28861,1,-30.29,-6.78,-1.98,0.485,0.027,0.567,-2.18,14.38,0.00,3.06,2.18,-11.32,0.00,8.05,-39.92,38.34,-33.13,0.00,15.87,0.97,50.89,1254,1264,1252,1242,1258,1500,1534,10904,806
28873,1,0.38,-0.98,-1.70,0.195,1.189,0.433,11.34,15.83,0.00,3.06,-11.34,-12.77,0.00,-39.25,-45.02,-39.63,-44.04,0.00,0.06,-2.04,18.72,1254,1264,1252,1242,1258,1500,1534,10908,806
28884,1,41.83,11.39,0.81,0.544,0.837,0.682,-1.26,20.22,0.00,0.00,1.26,-20.22,0.00,4.84,-71.08,-36.99,-82.46,0.00,-17.69,-10.63,-53.16,1254,1264,1252,1242,1284,1500,1508,10896,806
28896,1,62.55,8.37,4.38,1.725,0.507,0.529,-3.85,23.72,0.00,0.00,3.85,-23.72,0.00,13.91,-83.37,-48.63,-91.74,0.00,-28.31,-8.87,-111.97,1254,1264,1252,1242,1284,1500,1508,10871,806
28909,1,82.38,-6.56,4.33,1.770,0.563,0.510,1.65,27.06,0.00,3.06,-1.65,-24.00,0.00,-5.34,-84.35,-87.72,-77.79,0.00,-39.89,-3.95,-78.76,1254,1264,1252,1242,1258,1500,1534,10858,806
28921,1,72.24,-41.51,-1.68,0.691,-0.713,0.676,-12.47,16.34,0.00,3.06,12.47,-13.28,0.00,44.08,-46.85,-28.16,-5.34,0.00,-34.53,13.11,44.51,1254,1264,1252,1242,1259,1500,1534,10875,806
28932,1,41.31,-38.17,-1.16,-1.295,-1.854,1.786,-14.72,-5.90,0.00,3.06,14.72,8.96,0.00,51.96,30.98,10.65,69.15,0.00,-19.04,16.41,24.97,1254,1264,1252,1242,1259,1500,1534,10875,806
28944,1,1.57,-18.47,-4.91,-1.254,-2.710,2.231,-5.36,-8.53,0.00,2.97,5.36,11.50,0.00,19.22,39.89,17.65,58.35,0.00,-0.34,13.78,79.73,1100,1368,1398,1180,1259,1500,1533,10875,811
28956,1,-33.80,-19.13,-10.24,-1.367,-2.115,1.481,12.62,3.74,0.00,2.97,-12.62,-0.77,0.00,-43.75,-3.07,-9.95,16.06,0.00,16.11,10.11,160.87,1100,1368,1398,1180,1259,1500,1533,10891,811
28969,1,-49.86,6.39,-9.78,-2.259,-0.714,1.805,-8.38,7.37,0.00,2.97,8.38,-4.40,0.00,29.76,-15.79,79.62,-22.18,0.00,29.95,-9.13,143.60,1100,1368,1398,1180,1259,1500,1533,10875,811
28981,9,-39.74,47.48,-8.53,-2.727,1.142,2.437,-2.46,8.48,0.00,10.71,2.46,2.23,0.00,9.06,7.40,48.80,-40.07,0.00,24.67,-26.67,125.13,1100,1368,1398,1180,1173,1500,1619,10862,811
28992,9,-5.60,77.72,-3.38,-2.497,1.621,2.580,-1.48,4.35,0.00,10.71,1.48,6.36,0.00,5.17,22.27,10.77,-55.44,0.00,5.80,-35.08,36.56,1100,1368,1398,1180,1173,1500,1619,10858,811
29004,1,48.15,67.10,-2.06,0.153,2.133,1.323,-2.38,4.11,0.00,3.33,2.38,-0.78,0.00,8.35,-2.73,-39.80,-69.83,0.00,-22.36,-28.00,27.17,1100,1368,1398,1180,1256,1500,1537,10871,811
29016,1,103.12,79.40,-4.14,0.452,1.836,1.308,1.51,0.52,0.00,3.33,-1.51,2.81,0.00,-5.27,9.85,-108.39,-69.55,0.00,-50.62,-30.95,68.38,1100,1368,1398,1180,1256,1500,1537,10858,811
29029,1,90.56,30.68,-1.26,1.800,-0.422,0.381,-14.53,11.07,0.00,2.97,14.53,-8.10,0.00,50.86,-28.34,-39.71,-59.02,0.00,-42.92,-6.25,-11.95,1100,1368,1398,1180,1263,1500,1533,10896,811
29041,1,41.74,-43.68,-0.09,0.783,-0.753,-0.106,-34.35,18.49,0.00,2.97,34.35,-15.52,0.00,120.26,-54.33,78.52,-10.66,0.00,-18.36,21.82,-31.09,1337,1233,1239,1259,1267,1500,1533,10908,811
29053,1,-3.44,-15.22,-4.68,-0.765,-1.133,1.160,-24.59,11.79,0.00,2.97,24.59,-8.82,0.00,86.10,-30.91,89.55,-15.69,0.00,4.07,4.38,32.41,1337,1233,1239,1259,1267,1500,1533,10912,811
29064,1,-21.26,-34.90,-7.55,-1.492,0.048,0.941,-4.17,17.38,0.00,0.00,4.17,-17.38,0.00,14.68,-60.87,35.94,-25.97,0.00,11.16,8.85,111.96,1337,1233,1239,1259,1283,1500,1520,10883,811
29077,1,-3.46,-4.26,-4.05,-1.986,0.537,1.502,-6.86,7.89,0.00,0.00,6.86,-7.89,0.00,24.10,-27.68,27.56,-23.42,0.00,3.71,-3.96,67.48,1337,1233,1239,1259,1283,1500,1520,10879,811
29089,1,24.67,66.24,0.48,-1.997,0.961,2.518,-13.41,-3.08,0.00,0.00,13.41,3.08,0.00,47.05,10.71,22.38,-55.52,0.00,-8.78,-31.89,12.68,1337,1233,1239,1259,1296,1500,1508,10883,811
29101,1,56.40,37.47,-2.55,-0.039,0.897,1.310,-11.61,-3.21,0.00,2.97,11.61,6.18,0.00,40.77,21.58,-15.63,-15.89,0.00,-25.31,-16.48,76.02,1337,1233,1239,1259,1270,1500,1533,10879,811
29113,1,41.11,28.21,0.60,0.689,-0.564,1.095,-13.80,-0.66,0.00,2.97,13.80,3.63,0.00,48.43,12.64,7.32,-15.57,0.00,-18.09,-13.36,-3.37,1337,1233,1239,1259,1270,1500,1533,10854,811
29124,1,27.52,6.30,-1.18,1.331,-0.435,0.474,-12.34,7.56,0.00,2.97,12.34,-4.59,0.00,43.34,-16.11,15.82,-22.40,0.00,-11.62,-2.85,-4.53,1337,1233,1239,1259,1270,1500,1533,10829,811
29136,1,23.06,-26.09,-2.16,0.431,0.533,0.970,4.86,11.33,0.00,2.97,-4.86,-8.36,0.00,-16.88,-29.32,-39.94,-3.23,0.00,-11.49,9.43,-5.63,1337,1233,1239,1259,1270,1500,1533,10825,811
29149,1,20.80,-15.33,-3.25,-1.287,0.371,1.999,1.43,1.18,0.00,2.97,-1.43,1.79,0.00,-4.88,6.19,-25.68,21.52,0.00,-9.58,6.92,18.12,1311,1227,1215,1327,1270,1500,1533,10825,810
29161,1,14.58,5.78,-6.88,-1.043,-0.054,2.185,1.72,-0.18,0.00,2.97,-1.72,3.15,0.00,-5.88,10.94,-20.46,5.17,0.00,-6.00,-1.34,99.83,1311,1227,1215,1327,1269,1500,1533,10829,810
29172,1,-2.35,13.90,-10.45,-0.469,0.048,1.620,6.82,8.51,0.00,2.97,-6.82,-5.54,0.00,-23.72,-19.45,-21.37,-33.35,0.00,1.21,-5.21,189.47,1311,1227,1215,1327,1269,1500,1533,10825,810
29185,1,-8.78,-18.80,-9.22,0.073,0.028,1.240,7.40,13.15,0.00,2.16,-7.40,-10.99,0.00,-25.76,-38.55,-16.99,-19.75,0.00,3.73,9.64,173.95,1311,1227,1215,1327,1279,1500,1524,10846,810
29196,1,-21.16,-7.80,-0.89,0.733,0.062,0.551,18.81,29.39,0.00,2.16,-18.81,-27.23,0.00,-65.73,-95.42,-44.57,-87.62,0.00,7.71,2.65,16.74,1311,1227,1215,1327,1279,1500,1524,10833,810
29209,1,-18.65,16.57,4.58,0.178,0.408,0.649,18.70,26.88,0.00,2.88,-18.70,-24.00,0.00,-65.34,-84.14,-46.69,-100.71,0.00,7.28,-9.44,-82.31,1311,1227,1215,1327,1272,1500,1532,10804,810
29221,1,-4.26,19.04,8.01,0.473,0.420,0.844,4.58,29.27,0.00,2.88,-4.58,-26.39,0.00,-15.94,-92.55,-11.68,-111.58,0.00,2.36,-14.29,-126.03,1311,1227,1215,1327,1273,1500,1532,10804,810
29232,1,32.60,-0.08,7.13,2.144,0.461,-0.097,12.77,34.97,0.00,2.88,-12.77,-32.09,0.00,-44.61,-112.50,-77.20,-112.42,0.00,-16.35,-6.00,-91.29,1311,1227,1215,1327,1273,1500,1532,10812,810
29244,1,47.43,-25.15,3.55,1.760,-0.403,0.136,-7.10,36.89,0.00,2.88,7.10,-34.01,0.00,24.94,-119.29,-22.50,-94.14,0.00,-22.15,2.81,-18.59,1100,1461,1489,1100,1277,1500,1532,10825,810
29256,1,20.06,-60.60,-1.62,1.194,-1.543,0.377,-14.03,28.47,0.00,2.88,14.03,-25.59,0.00,49.19,-89.84,29.13,-29.24,0.00,-8.37,18.29,90.52,1100,1461,1489,1100,1277,1500,1532,10829,810
29269,1,-39.63,-84.25,-0.84,0.758,-1.898,-0.543,-12.67,28.21,0.00,2.88,12.67,-25.33,0.00,44.43,-88.98,84.07,-4.72,0.00,20.07,26.42,91.34,1100,1461,1489,1100,1283,1500,1532,10821,810
29281,1,-59.55,-34.20,3.34,-1.805,-0.258,1.974,19.63,11.79,0.00,3.60,-19.63,-8.19,0.00,-68.66,-28.98,-9.11,5.22,0.00,25.74,4.26,23.10,1100,1461,1489,1100,1276,1500,1540,10829,810
29292,1,-51.47,2.52,5.08,-1.788,1.078,1.710,14.03,6.63,0.00,3.60,-14.03,-3.03,0.00,-49.08,-10.93,2.39,-13.45,0.00,23.90,-8.88,10.63,1100,1461,1489,1100,1276,1500,1540,10829,810
29304,1,-18.95,18.10,1.84,-1.367,2.332,1.466,23.44,7.52,0.00,2.88,-23.44,-4.64,0.00,-82.02,-16.58,-63.08,-34.67,0.00,7.52,-16.17,56.19,1100,1461,1489,1100,1285,1500,1532,10817,810
29316,1,29.77,72.33,-0.20,-0.617,2.359,1.921,3.49,7.35,0.00,2.88,-3.49,-4.47,0.00,-12.19,-15.99,-41.96,-88.31,0.00,-12.76,-42.58,70.59,1100,1461,1489,1100,1285,1500,1532,10829,810
29329,1,48.61,87.37,-0.19,0.247,1.852,1.966,-2.13,-3.68,0.00,2.88,2.13,6.56,0.00,7.49,22.62,-41.13,-64.75,0.00,-22.00,-42.72,47.61,1100,1461,1489,1100,1285,1500,1532,10842,810
29341,1,69.60,27.51,-1.92,2.112,0.959,0.665,3.39,0.76,0.00,3.60,-3.39,2.84,0.00,-11.85,9.62,-81.45,-17.89,0.00,-34.47,-7.71,65.33,1239,1383,1301,1185,1277,1500,1540,10846,811
29353,1,55.47,-15.50,-0.80,2.454,-0.642,0.062,-17.75,8.71,0.00,3.60,17.75,-5.11,0.00,62.17,-18.21,6.70,-2.71,0.00,-26.03,12.34,30.32,1239,1383,1301,1185,1277,1500,1540,10829,811
29365,1,39.07,-57.72,2.19,2.559,-2.034,-0.274,-26.22,9.78,0.00,0.00,26.22,-9.78,0.00,91.82,-34.56,52.74,23.16,0.00,-18.34,29.68,-23.14,1239,1383,1301,1185,1298,1500,1519,10825,811
29376,1,-6.72,-72.78,1.52,1.300,-2.450,-0.099,-20.63,7.76,0.00,0.00,20.63,-7.76,0.00,72.25,-27.48,78.97,45.30,0.00,2.95,35.11,0.32,1239,1383,1301,1185,1298,1500,1519,10825,811
29389,1,-48.59,-62.12,2.69,0.403,-2.662,0.548,-8.60,9.41,0.00,2.88,8.60,-6.53,0.00,30.17,-23.20,78.76,38.92,0.00,22.43,28.83,-11.72,1239,1383,1301,1185,1286,1500,1532,10821,811
29401,1,-67.89,-64.28,4.03,-0.071,-2.228,0.513,-6.29,13.66,0.00,0.00,6.29,-13.66,0.00,22.08,-48.18,89.96,16.10,0.00,32.22,28.44,-23.68,1239,1383,1301,1185,1307,1500,1512,10796,811
29412,1,-66.11,-60.06,5.02,-0.239,-1.339,0.308,-14.11,15.00,0.00,0.00,14.11,-15.00,0.00,49.45,-52.90,115.55,7.16,0.00,33.63,25.59,-30.64,1239,1383,1301,1185,1307,1500,1512,10817,811
29424,1,-48.05,-26.40,4.84,-0.183,-0.486,0.225,-15.19,12.58,0.00,2.79,15.19,-9.79,0.00,53.26,-34.68,101.31,-8.27,0.00,25.55,9.76,-22.94,1239,1383,1301,1185,1289,1500,1531,10842,811
29436,1,-25.27,2.62,3.44,-0.339,-0.712,0.823,-14.77,7.60,0.00,2.79,14.77,-4.81,0.00,51.79,-17.27,77.07,-19.88,0.00,14.42,-5.56,7.60,1239,1383,1301,1185,1289,1500,1531,10825,811
29449,1,-12.01,1.26,1.15,-0.071,-1.007,1.278,-16.92,10.33,0.00,2.79,16.92,-7.54,0.00,59.36,-26.80,71.37,-28.06,0.00,7.62,-9.52,58.78,1416,1158,1186,1396,1289,1500,1531,10825,818
29461,1,-10.74,-14.36,3.08,1.004,-1.104,0.435,-18.97,28.27,0.00,2.79,18.97,-25.48,0.00,66.53,-89.65,77.27,-75.29,0.00,7.11,-6.81,34.06,1416,1158,1186,1396,1290,1500,1531,10825,818
29473,1,2.03,-18.08,-3.52,0.848,-0.686,0.373,-17.06,31.26,0.00,2.79,17.06,-28.47,0.00,59.86,-100.14,57.83,-82.06,0.00,1.29,-5.04,170.68,1416,1158,1186,1396,1290,1500,1531,10821,818
29484,1,-5.55,-8.10,-4.85,0.329,-0.667,0.466,-13.80,25.65,0.00,2.79,13.80,-22.86,0.00,48.47,-80.52,54.02,-72.42,0.00,4.54,-7.28,188.55,1416,1158,1186,1396,1296,1500,1531,10817,818
29496,1,-13.98,-13.25,-5.79,-1.027,-0.538,1.468,-3.95,11.64,0.00,2.79,3.95,-8.85,0.00,14.00,-31.53,27.98,-18.28,0.00,7.24,-2.75,209.36,1416,1158,1186,1396,1296,1500,1531,10821,818
29509,1,-28.39,0.50,-7.53,-1.564,-0.411,1.572,1.09,-5.26,0.00,0.00,-1.09,5.26,0.00,-3.65,17.87,24.74,17.37,0.00,13.39,-3.56,237.78,1416,1158,1186,1396,1307,1500,1519,10812,818
29521,1,-32.47,19.38,-0.40,-1.826,-0.333,1.761,0.75,-16.10,0.00,2.79,-0.75,18.89,0.00,-2.46,65.57,30.01,46.18,0.00,15.90,-5.88,112.79,1416,1158,1186,1396,1296,1500,1531,10796,818
29533,1,-23.83,44.89,2.81,-2.319,0.499,2.401,4.96,-20.97,0.00,2.79,-4.96,23.76,0.00,-17.21,82.66,6.62,37.77,0.00,11.89,-11.84,69.10,1416,1158,1186,1396,1296,1500,1531,10792,818
29544,1,-21.46,44.26,8.11,-2.227,0.909,2.340,7.41,-23.34,0.00,2.79,-7.41,26.13,0.00,-25.79,90.98,-4.32,46.72,0.00,11.77,-8.53,-16.26,1487,1141,1100,1463,1297,1500,1531,10779,810
29556,1,-14.61,38.46,8.83,-1.503,1.428,1.548,11.17,-22.96,0.00,2.79,-11.17,25.75,0.00,-38.96,89.68,-24.35,51.22,0.00,8.35,-5.62,-4.94,1487,1141,1100,1463,1297,1500,1531,10787,810
29569,1,-1.80,43.50,10.47,-0.913,1.407,1.251,9.25,-20.37,0.00,2.79,-9.25,23.16,0.00,-32.22,80.64,-30.42,37.14,0.00,2.80,-10.88,-28.57,1487,1141,1100,1463,1298,1500,1531,10808,810
29581,1,14.21,54.05,9.01,-0.864,1.915,1.616,6.21,-19.57,0.00,0.00,-6.21,19.57,0.00,-21.59,68.12,-35.80,14.07,0.00,-5.19,-18.01,2.30,1487,1141,1100,1463,1324,1500,1508,10808,810
29593,1,35.05,39.59,9.79,-0.441,1.424,1.339,6.28,-18.78,0.00,0.00,-6.28,18.78,0.00,-21.84,65.38,-56.89,25.79,0.00,-16.36,-9.04,-36.07,1487,1141,1100,1463,1324,1500,1508,10808,810
29604,1,56.37,37.13,7.98,-0.144,1.122,1.258,6.31,-17.14,0.00,0.00,-6.31,17.14,0.00,-21.97,59.65,-78.34,22.52,0.00,-27.42,-7.07,-25.89,1487,1141,1100,1463,1318,1500,1514,10787,810
29616,1,66.16,14.78,9.93,0.681,0.221,0.791,2.57,-5.52,0.00,0.00,-2.57,5.52,0.00,-8.88,18.98,-75.05,4.20,0.00,-31.95,0.59,-87.71,1487,1141,1100,1463,1318,1500,1514,10808,810
29629,1,76.27,23.38,10.71,0.504,-0.179,0.922,-2.21,-2.57,0.00,2.79,2.21,5.36,0.00,7.85,18.44,-68.42,-4.94,0.00,-35.65,-3.91,-114.66,1487,1141,1100,1463,1303,1500,1531,10762,810
29641,1,84.91,16.89,13.36,0.321,-0.704,1.096,-8.83,-2.98,0.00,2.79,8.83,5.77,0.00,31.04,19.88,-53.88,2.99,0.00,-38.70,-1.53,-166.54,1500,1176,1100,1432,1303,1500,1531,10754,810
29653,1,72.74,15.45,12.30,0.638,-1.116,0.908,-13.60,-2.40,0.00,2.79,13.60,5.19,0.00,47.73,17.89,-25.02,2.44,0.00,-32.45,-0.21,-120.39,1500,1176,1100,1432,1303,1500,1531,10762,810
29664,1,74.02,-29.90,15.36,0.658,-1.346,0.771,-18.78,-0.49,0.00,0.00,18.78,0.49,0.00,65.88,1.43,-8.14,31.33,0.00,-33.37,16.67,-153.87,1500,1176,1100,1432,1321,1500,1513,10758,810
29676,1,58.19,-63.08,13.32,1.043,-1.422,0.645,-19.20,-1.87,0.00,0.00,19.20,1.87,0.00,67.37,6.27,9.18,69.35,0.00,-26.36,31.16,-89.17,1500,1176,1100,1432,1321,1500,1513,10762,810
29689,1,21.43,-97.53,11.92,-0.125,-2.018,0.599,-16.28,-8.96,0.00,2.70,16.28,11.66,0.00,57.13,40.54,35.70,138.06,0.00,-8.79,46.11,-50.70,1500,1176,1100,1432,1304,1500,1530,10771,810
29701,1,-15.82,-63.81,8.01,-1.466,-2.744,1.407,-6.09,-14.09,0.00,0.00,6.09,14.09,0.00,21.46,49.07,37.28,112.88,0.00,7.44,31.22,43.27,1500,1176,1100,1432,1326,1500,1508,10779,810
29712,1,-48.12,-67.69,8.60,-1.664,-3.125,1.382,-4.84,-8.50,0.00,0.00,4.84,8.50,0.00,17.11,29.51,65.23,97.20,0.00,24.50,32.20,25.87,1500,1176,1100,1432,1326,1500,1508,10783,810
29724,1,-67.53,-23.94,3.26,-2.001,-2.742,2.091,-10.15,-7.72,0.00,2.70,10.15,10.42,0.00,35.68,36.22,103.21,60.16,0.00,36.68,13.06,127.94,1500,1176,1100,1432,1304,1500,1530,10787,810
29736,1,-29.72,-55.97,11.56,-0.564,-4.071,1.289,-22.92,2.41,0.00,2.70,22.92,0.29,0.00,80.41,0.77,110.13,56.74,0.00,19.47,23.32,-39.94,1500,1176,1100,1432,1304,1500,1530,10796,810
29749,1,-49.02,-8.29,11.68,-2.236,-2.832,2.124,-22.10,3.68,0.00,2.70,22.10,-0.98,0.00,77.57,-3.70,126.58,4.59,0.00,31.23,3.29,-34.28,1385,1321,1229,1297,1308,1500,1530,10775,811
29761,1,-67.56,-39.89,16.14,-1.175,-2.196,1.582,-24.85,5.00,0.00,2.70,24.85,-2.30,0.00,87.24,-8.32,154.80,31.57,0.00,41.30,18.53,-120.16,1385,1321,1229,1297,1308,1500,1530,10775,811
29772,1,-61.93,-48.45,18.73,-0.920,-1.816,1.606,-24.27,6.08,0.00,2.70,24.27,-3.38,0.00,85.25,-12.11,147.18,36.34,0.00,38.10,20.00,-149.80,1385,1321,1229,1297,1308,1500,1530,10779,811
29784,1,-53.31,-40.21,18.84,-0.603,-1.218,1.241,-20.94,9.23,0.00,2.70,20.94,-6.53,0.00,73.60,-23.16,126.91,17.04,0.00,33.09,13.90,-136.22,1385,1321,1229,1297,1308,1500,1530,10804,811
29797,1,-39.15,-69.99,18.13,0.462,-0.579,0.571,-16.88,24.46,0.00,2.70,16.88,-21.76,0.00,59.41,-76.46,98.55,-6.47,0.00,26.30,23.31,-129.60,1385,1321,1229,1297,1308,1500,1530,10808,811
29809,1,-23.36,-66.87,18.29,1.071,-0.237,-0.089,-27.29,38.98,0.00,0.00,27.29,-38.98,0.00,95.89,-136.78,119.25,-69.91,0.00,21.74,18.84,-154.65,1385,1321,1229,1297,1329,1500,1510,10808,811
29821,1,-13.53,-17.59,16.13,-0.100,0.119,1.053,-14.01,23.89,0.00,2.70,14.01,-21.19,0.00,49.43,-74.54,62.96,-56.95,0.00,15.96,-0.83,-119.66,1385,1321,1229,1297,1309,1500,1530,10817,811
29832,1,-13.70,-24.20,13.63,-0.014,0.212,0.997,-6.23,18.42,0.00,2.70,6.23,-15.72,0.00,22.20,-55.43,35.90,-31.22,0.00,15.90,1.37,-82.84,1385,1321,1229,1297,1309,1500,1530,10808,811
29844,1,-12.17,-32.21,16.32,1.287,0.202,0.094,8.56,29.46,0.00,3.42,-8.56,-26.04,0.00,-29.54,-91.58,-17.37,-59.37,0.00,14.06,4.64,-141.10,1287,1325,1307,1289,1302,1500,1538,10817,810
29856,1,-13.87,-40.97,18.26,1.221,0.160,0.245,3.63,31.37,0.00,3.42,-3.63,-27.95,0.00,-12.29,-98.28,1.57,-57.32,0.00,16.08,6.36,-179.12,1287,1325,1307,1289,1302,1500,1538,10808,810
29869,1,-6.44,-30.73,16.17,0.685,-0.416,1.189,-12.31,19.88,0.00,2.70,12.31,-17.18,0.00,43.53,-60.61,49.97,-29.88,0.00,15.63,1.05,-118.27,1287,1325,1307,1289,1311,1500,1530,10796,810
29881,1,3.76,-31.30,10.02,1.089,-0.703,1.036,-12.83,28.83,0.00,2.70,12.83,-26.13,0.00,45.34,-91.97,41.58,-60.67,0.00,11.94,-0.81,3.74,1287,1325,1307,1289,1311,1500,1530,10792,810
29892,1,10.29,-42.15,4.41,1.284,-0.135,0.806,-5.59,35.65,0.00,2.70,5.59,-32.95,0.00,20.03,-115.88,9.74,-73.73,0.00,7.70,2.61,117.57,1287,1325,1307,1289,1311,1500,1530,10800,810
29904,1,12.14,-25.06,-0.64,0.271,-0.226,1.171,3.83,30.85,0.00,1.98,-3.83,-28.87,0.00,-12.96,-101.63,-25.10,-76.58,0.00,5.31,-6.14,196.34,1287,1325,1307,1289,1319,1500,1522,10792,810
29916,1,9.28,-36.79,-2.46,1.032,-0.446,0.471,4.92,36.47,0.00,1.98,-4.92,-34.49,0.00,-16.76,-121.35,-26.04,-84.56,0.00,6.20,-1.92,224.38,1287,1325,1307,1289,1319,1500,1522,10787,810
29929,1,16.80,-11.89,-2.21,1.111,-0.204,0.380,7.11,41.49,0.00,2.61,-7.11,-38.88,0.00,-24.43,-136.76,-41.23,-124.86,0.00,2.07,-11.73,207.75,1287,1325,1307,1289,1313,1500,1529,10775,810
29941,1,5.71,-11.05,-1.68,0.783,0.407,0.405,22.11,44.79,0.00,2.61,-22.11,-42.18,0.00,-76.95,-148.34,-82.66,-137.29,0.00,4.31,-10.63,208.42,1100,1500,1500,1119,1313,1500,1529,10792,811
29953,1,8.41,-0.51,0.80,0.194,0.640,0.921,19.79,32.09,0.00,2.61,-19.79,-29.48,0.00,-68.86,-103.91,-77.27,-103.39,0.00,2.71,-9.73,155.18,1100,1500,1500,1119,1313,1500,1529,10783,811
29964,1,-0.59,12.69,3.80,-0.947,-0.117,1.289,11.05,11.84,0.00,0.00,-11.05,-11.84,0.00,-38.26,-42.19,-37.67,-54.88,0.00,7.75,-9.55,111.94,1100,1500,1500,1119,1329,1500,1512,10792,811
29976,1,4.90,-32.63,-0.73,0.444,0.058,0.036,14.24,25.88,0.00,0.00,-14.24,-25.88,0.00,-49.45,-91.38,-54.35,-58.74,0.00,4.48,12.40,209.74,1100,1500,1500,1119,1329,1500,1512,10796,811
29989,1,3.18,-15.39,-2.05,0.012,-0.156,0.251,2.93,7.95,0.00,2.61,-2.93,-5.34,0.00,-9.88,-19.47,-13.06,-4.08,0.00,7.82,8.07,231.15,1100,1500,1500,1119,1312,1500,1529,10792,811
30001,1,5.63,-11.96,-0.47,-0.184,0.130,0.889,7.45,-3.72,0.00,2.61,-7.45,6.33,0.00,-25.71,21.37,-31.34,33.33,0.00,7.27,7.13,192.66,1100,1500,1500,1119,1313,1500,1529,10792,811
30012,1,4.20,-10.15,-1.44,-0.029,-0.202,0.898,7.62,-8.55,0.00,2.61,-7.62,11.16,0.00,-26.33,38.27,-30.53,48.42,0.00,7.82,7.89,212.53,1100,1500,1500,1119,1313,1500,1529,10775,811
30025,1,-16.41,38.04,1.40,-0.779,-1.083,1.601,0.47,-8.90,0.00,2.61,-0.47,11.51,0.00,-1.29,39.51,15.13,1.47,0.00,16.85,-17.78,166.00,1100,1500,1500,1119,1313,1500,1529,10792,811
30036,1,-6.98,2.96,3.54,0.227,-1.101,0.951,-3.07,-10.22,0.00,2.61,3.07,12.83,0.00,11.08,44.17,18.06,41.21,0.00,10.46,0.59,137.61,1100,1500,1500,1119,1313,1500,1529,10800,811
30049,1,-0.64,-10.23,4.78,-0.852,-1.039,1.663,-0.57,-20.04,0.00,2.61,0.57,22.65,0.00,2.33,78.56,2.97,88.79,0.00,5.34,6.48,120.80,1500,1100,1100,1500,1313,1500,1529,10783,811
30061,1,11.60,-45.18,10.21,0.015,-1.096,1.037,-0.73,-13.01,0.00,2.61,0.73,15.62,0.00,2.88,53.98,-8.72,99.16,0.00,-2.83,16.02,19.98,1500,1100,1100,1500,1312,1500,1529,10779,811
30072,1,14.88,-90.95,9.94,1.818,-0.868,0.139,-5.84,22.38,0.00,2.61,5.84,-19.77,0.00,20.76,-69.90,5.88,21.05,0.00,-5.08,23.21,8.98,1500,1100,1100,1500,1312,1500,1529,10792,811
30084,1,12.60,-63.56,10.84,1.289,-0.380,0.601,3.59,37.58,0.00,0.00,-3.59,-37.58,0.00,-12.28,-132.26,-24.87,-68.70,0.00,-6.25,3.17,-17.45,1500,1100,1100,1500,1333,1500,1509,10808,811
30096,5,20.17,-74.17,12.29,1.032,-0.196,0.216,-13.36,53.84,0.00,0.00,13.36,-53.84,0.00,47.06,-375.00,26.89,-300.83,0.00,-7.44,-1.96,-66.09,1500,1100,1100,1500,1333,1500,1509,10817,811
30109,1,14.18,-39.96,11.29,1.054,0.447,0.495,6.32,41.84,0.00,2.61,-6.32,-39.23,0.00,-21.82,-138.16,-36.01,-98.20,0.00,-7.58,-5.85,-54.33,1500,1100,1100,1500,1313,1500,1529,10812,811
30121,1,11.44,-44.59,10.27,0.637,-0.251,0.768,4.29,32.05,0.00,2.61,-4.29,-29.44,0.00,-14.73,-103.94,-26.17,-59.36,0.00,-7.60,0.27,-33.65,1500,1100,1100,1500,1313,1500,1529,10821,811
30133,1,28.08,-38.28,10.17,1.537,0.140,0.190,12.44,28.77,0.00,2.61,-12.44,-26.16,0.00,-43.25,-92.47,-71.33,-54.19,0.00,-16.80,1.05,-46.93,1500,1100,1100,1500,1313,1500,1529,10808,811
30144,1,40.93,-30.09,11.62,1.216,0.318,1.047,13.11,20.53,0.00,2.61,-13.11,-17.92,0.00,-45.63,-63.65,-86.55,-33.56,0.00,-23.38,0.54,-82.60,1100,1500,1500,1100,1314,1500,1529,10787,810
30156,1,52.31,-8.78,7.15,0.883,0.605,1.341,11.61,14.92,0.00,2.61,-11.61,-12.31,0.00,-40.39,-44.02,-92.71,-35.23,0.00,-28.93,-7.38,-17.48,1100,1500,1500,1100,1314,1500,1529,10783,810
30169,1,71.50,-7.83,10.30,-0.437,1.085,2.165,8.69,4.18,0.00,2.52,-8.69,-1.66,0.00,-30.17,-6.75,-101.67,1.08,0.00,-38.91,-4.40,-91.01,1100,1500,1500,1100,1314,1500,1528,10771,810
30181,1,52.33,27.92,5.65,-1.758,1.057,2.299,4.70,-9.54,0.00,2.52,-4.70,12.06,0.00,-16.23,41.27,-68.55,13.36,0.00,-29.94,-13.64,-1.38,1100,1500,1500,1100,1314,1500,1528,10771,810
30192,1,60.78,15.62,8.68,-0.843,1.537,1.768,0.23,-11.57,0.00,2.52,-0.23,14.09,0.00,-0.58,48.38,-61.35,32.76,0.00,-34.03,-8.11,-57.23,1100,1500,1500,1100,1314,1500,1528,10746,810
30205,1,42.69,18.97,7.71,-1.453,1.999,1.940,-5.20,-9.56,0.00,2.52,5.20,12.08,0.00,18.42,41.37,-24.27,22.39,0.00,-24.53,-13.53,-31.90,1100,1500,1500,1100,1314,1500,1528,10733,810
30216,1,35.47,-13.42,10.45,-0.703,2.499,0.849,-4.95,-5.50,0.00,2.52,4.95,8.02,0.00,17.57,27.18,-17.89,40.60,0.00,-21.34,-0.25,-76.37,1100,1500,1500,1100,1314,1500,1528,10733,810
30229,1,31.37,-5.37,9.58,-0.080,3.326,0.485,-1.74,-0.64,0.00,0.00,1.74,0.64,0.00,6.33,1.33,-25.04,6.70,0.00,-20.33,-8.43,-45.25,1100,1500,1500,1100,1334,1500,1508,10771,810
30241,1,20.44,-0.93,8.83,-0.470,3.408,0.983,-5.00,3.58,0.00,2.52,5.00,-1.06,0.00,17.75,-4.60,-2.68,-3.66,0.00,-14.88,-14.34,-30.83,1344,1312,1256,1344,1314,1500,1528,10775,810
30253,1,7.92,1.71,8.66,-0.720,3.485,1.166,-8.15,6.03,0.00,2.52,8.15,-3.51,0.00,28.80,-13.19,20.88,-14.90,0.00,-9.20,-17.23,-24.21,1344,1312,1256,1344,1314,1500,1528,10771,810
30264,1,-1.40,13.93,6.55,-1.012,3.209,1.456,-8.19,6.40,0.00,0.00,8.19,-6.40,0.00,28.96,-23.29,30.36,-37.22,0.00,-5.42,-22.10,13.64,1344,1312,1256,1344,1327,1500,1515,10758,810
30276,1,-19.94,30.14,6.01,-2.036,3.027,2.367,-10.23,5.09,0.00,0.00,10.23,-5.09,0.00,36.15,-18.72,56.09,-48.86,0.00,2.38,-28.59,17.76,1344,1312,1256,1344,1327,1500,1515,10787,810
30289,1,-36.50,30.55,4.69,-2.646,2.765,2.887,-9.74,0.98,0.00,3.24,9.74,2.26,0.00,34.45,7.00,70.95,-23.55,0.00,8.59,-26.62,42.37,1344,1312,1256,1344,1306,1500,1536,10767,810
30301,1,-52.64,13.93,6.57,-3.309,2.351,3.075,-9.36,-4.34,0.00,2.52,9.36,6.86,0.00,33.12,23.09,85.76,9.16,0.00,14.36,-17.78,15.21,1344,1312,1256,1344,1314,1500,1528,10758,810
30312,1,-63.53,-22.47,9.52,-2.640,1.776,2.358,-5.24,0.61,0.00,2.52,5.24,1.91,0.00,18.72,5.78,82.25,28.25,0.00,17.37,-2.51,-36.62,1344,1312,1256,1344,1314,1500,1528,10754,810
30324,1,-70.58,-35.53,9.85,-1.869,1.568,2.092,0.44,-0.00,0.00,0.00,-0.44,0.00,0.00,-1.13,-0.90,69.45,34.63,0.00,18.63,-0.12,-35.89,1344,1312,1256,1344,1333,1500,1509,10754,810
30336,1,-77.18,-65.83,10.06,-1.495,1.200,1.622,19.06,5.83,0.00,0.00,-19.06,-5.83,0.00,-66.30,-21.31,10.88,44.51,0.00,18.59,8.58,-49.92,1344,1312,1256,1344,1333,1500,1509,10750,810
30349,1,-71.64,-75.68,9.99,-0.375,1.150,0.769,31.79,13.17,0.00,3.15,-31.79,-10.02,0.00,-110.89,-35.99,-39.25,39.69,0.00,13.89,10.47,-68.50,1258,1342,1368,1260,1307,1500,1535,10754,810
30361,1,-69.23,-80.35,13.20,0.260,0.994,0.453,32.92,22.47,0.00,2.52,-32.92,-19.95,0.00,-114.89,-70.77,-45.66,9.58,0.00,12.53,10.26,-155.15,1258,1342,1368,1260,1314,1500,1528,10758,810
30372,1,-68.97,-90.45,13.65,0.871,1.141,-0.087,38.73,28.16,0.00,2.52,-38.73,-25.64,0.00,-135.22,-90.74,-66.25,-0.28,0.00,10.83,15.11,-172.37,1258,1342,1368,1260,1314,1500,1528,10746,810
30384,1,-78.56,-63.74,14.86,0.583,0.681,0.292,33.07,29.86,0.00,2.52,-33.07,-27.34,0.00,-115.48,-96.69,-36.91,-32.95,0.00,15.30,2.65,-198.60,1258,1342,1368,1260,1314,1500,1528,10721,810
30396,1,-73.70,-46.94,13.17,0.105,0.580,0.456,25.36,14.27,0.00,2.52,-25.36,-11.75,0.00,-88.50,-42.15,-14.79,4.80,0.00,13.47,3.89,-171.66,1258,1342,1368,1260,1314,1500,1528,10717,810
30409,1,-73.54,-47.56,15.94,-0.044,-0.263,0.562,6.50,4.14,0.00,2.43,-6.50,-1.71,0.00,-22.51,-7.03,51.04,40.53,0.00,15.20,7.30,-216.42,1258,1342,1368,1260,1315,1500,1527,10696,810
30421,1,-38.91,-40.04,-0.13,2.050,-2.215,1.174,-11.64,16.01,0.00,0.00,11.64,-16.01,0.00,40.98,-57.10,79.89,-17.06,0.00,5.81,1.90,17.65,1258,1342,1368,1260,1332,1500,1510,10675,810
30432,1,9.29,-13.60,-9.97,0.805,-1.384,0.252,-41.95,35.93,0.00,0.00,41.95,-35.93,0.00,147.11,-126.86,137.82,-113.26,0.00,-8.00,-10.20,188.37,1258,1342,1368,1260,1332,1500,1510,10654,810
30444,1,-6.08,14.33,-23.03,-0.076,-0.001,0.678,-12.06,8.80,0.00,2.43,12.06,-6.37,0.00,42.52,-23.42,48.60,-37.75,0.00,0.84,-5.54,300.63,1100,1500,1492,1138,1315,1500,1527,10633,811
30457,1,-12.06,-6.34,-11.67,1.281,-0.025,-0.237,-42.99,24.35,0.00,2.43,42.99,-21.92,0.00,150.00,-77.86,162.06,-71.52,0.00,11.22,0.07,38.11,1100,1500,1492,1138,1315,1500,1527,10650,811
30469,1,-6.91,3.22,-10.34,0.972,0.454,1.347,-25.14,19.46,0.00,0.00,25.14,-19.46,0.00,88.37,-69.26,95.28,-72.48,0.00,5.44,-7.40,42.99,1100,1500,1492,1138,1334,1500,1507,10567,811
30481,1,-11.78,-32.40,-5.99,0.545,0.028,0.112,-2.97,32.12,0.00,2.43,2.97,-29.69,0.00,10.80,-105.10,22.58,-72.69,0.00,2.74,14.08,-26.53,1100,1500,1492,1138,1315,1500,1527,10567,811
30492,1,-11.69,-5.72,-0.15,0.045,0.138,0.811,-1.13,10.77,0.00,2.43,1.13,-8.34,0.00,4.35,-30.37,16.04,-24.65,0.00,1.25,2.24,-102.29,1100,1500,1492,1138,1315,1500,1527,10592,811
30504,1,-8.96,10.64,-0.38,0.421,0.585,1.349,4.13,10.31,0.00,2.43,-4.13,-7.88,0.00,-14.06,-28.76,-5.10,-39.41,0.00,-1.21,-6.78,-72.26,1100,1500,1492,1138,1315,1500,1527,10621,811
30517,1,-8.59,-1.49,1.06,0.267,0.284,0.613,0.75,18.86,0.00,2.43,-0.75,-16.43,0.00,-2.22,-58.72,6.36,-57.23,0.00,-2.08,-0.70,-107.37,1100,1500,1492,1138,1315,1500,1527,10654,811
30529,1,-2.79,31.70,0.16,-0.122,0.340,1.674,2.03,1.50,0.00,0.00,-2.03,-1.50,0.00,-6.71,-6.49,-3.92,-38.19,0.00,-6.87,-15.33,-71.15,1100,1500,1492,1138,1334,1500,1508,10704,811
30541,1,5.51,10.62,-3.05,0.765,0.568,0.757,6.28,2.51,0.00,2.43,-6.28,-0.08,0.00,-21.60,-1.48,-27.11,-12.10,0.00,-12.29,-2.62,1.95,1324,1330,1302,1304,1315,1500,1527,10725,811
30553,1,28.38,-47.39,1.08,1.891,0.624,-0.489,24.21,12.70,0.00,2.43,-24.21,-10.27,0.00,-84.34,-37.16,-112.71,10.22,0.00,-27.15,20.14,-78.40,1324,1330,1302,1304,1315,1500,1527,10742,811
30564,1,32.75,-80.57,2.32,3.502,0.153,-1.476,42.74,27.42,0.00,0.00,-42.74,-27.42,0.00,-149.25,-97.20,-182.01,-16.63,0.00,-33.62,28.85,-98.24,1324,1330,1302,1304,1325,1500,1517,10754,811
30576,1,10.94,-30.88,-3.10,1.419,-1.068,-0.127,7.63,27.80,0.00,0.00,-7.63,-27.80,0.00,-26.40,-98.59,-37.34,-67.71,0.00,-19.03,6.51,11.15,1324,1330,1302,1304,1325,1500,1517,10754,811
30589,1,-21.67,-28.24,-6.29,1.305,-2.696,0.182,-0.81,20.19,0.00,0.00,0.81,-20.19,0.00,3.12,-71.97,24.79,-43.74,0.00,-2.10,10.30,77.12,1324,1330,1302,1304,1334,1500,1508,10767,811
30601,1,-66.35,5.06,-10.01,-0.483,-3.767,1.745,5.78,12.77,0.00,2.43,-5.78,-10.34,0.00,-19.96,-37.50,46.39,-42.57,0.00,16.42,-0.45,177.05,1324,1330,1302,1304,1315,1500,1527,10754,811
30613,1,-106.58,22.98,-13.23,-1.290,-3.748,2.008,9.23,7.66,0.00,2.43,-9.23,-5.23,0.00,-32.06,-19.65,74.52,-42.63,0.00,33.97,-2.78,243.73,1324,1330,1302,1304,1315,1500,1527,10742,811
30624,1,-129.47,16.63,-10.50,-2.642,-2.741,2.321,16.80,3.54,0.00,5.04,-16.80,1.50,0.00,-58.58,3.92,70.89,-12.72,0.00,43.40,3.01,200.12,1324,1330,1302,1304,1286,1500,1556,10733,811
30636,1,-128.97,-13.27,-5.80,-1.956,-1.669,0.832,5.59,-1.15,0.00,5.04,-5.59,6.19,0.00,-19.38,20.31,109.59,33.59,0.00,45.16,17.37,114.29,1324,1330,1302,1304,1286,1500,1556,10733,811
30649,1,-130.42,-2.04,-3.83,-1.348,-0.182,0.526,2.79,-11.07,0.00,2.34,-2.79,13.41,0.00,-9.58,45.59,120.84,47.63,0.00,46.59,10.88,90.67,1406,1292,1270,1296,1316,1500,1526,10737,810
30661,1,-87.07,49.20,-15.52,-1.583,0.929,2.108,6.33,-6.73,0.00,2.34,-6.33,9.07,0.00,-21.96,30.41,65.12,-18.79,0.00,26.92,-16.33,339.89,1406,1292,1270,1296,1316,1500,1526,10754,810
30672,1,-58.51,87.05,-12.44,0.450,2.411,0.990,-6.34,14.71,0.00,2.34,6.34,-12.37,0.00,22.39,-44.64,80.91,-131.69,0.00,17.72,-37.71,207.40,1406,1292,1270,1296,1316,1500,1526,10767,810
30684,1,-40.12,81.46,-17.80,-0.658,2.666,1.543,-30.90,20.57,0.00,2.34,30.90,-18.23,0.00,108.43,-65.18,148.55,-146.64,0.00,16.36,-36.42,308.06,1406,1292,1270,1296,1316,1500,1526,10725,810
30696,1,7.74,79.72,-16.34,0.859,3.117,1.234,-23.60,18.17,0.00,2.34,23.60,-15.83,0.00,82.91,-56.77,75.17,-136.49,0.00,-6.28,-32.90,250.26,1406,1292,1270,1296,1316,1500,1526,10704,810
30709,1,13.48,19.47,-2.31,1.976,2.064,-0.111,-20.05,22.89,0.00,2.34,20.05,-20.55,0.00,70.51,-73.32,57.03,-92.79,0.00,-11.14,-10.64,-19.58,1406,1292,1270,1296,1316,1500,1526,10704,810
30721,1,33.32,57.71,-5.35,1.664,1.391,0.334,-5.34,16.71,0.00,10.80,5.34,-5.91,0.00,19.06,-22.10,-14.26,-79.81,0.00,-24.74,-23.42,62.72,1406,1292,1270,1296,1222,1500,1620,10721,810
30732,1,28.50,41.49,-3.79,1.668,-1.308,1.100,-16.63,10.78,0.00,10.80,16.63,0.02,0.00,58.57,-1.35,30.07,-42.84,0.00,-22.88,-13.61,48.37,1406,1292,1270,1296,1222,1500,1620,10717,810
30744,1,10.68,50.13,-6.88,0.148,-0.874,1.111,-18.37,0.77,0.00,2.34,18.37,1.57,0.00,64.68,4.11,54.01,-46.02,0.00,-14.25,-13.43,140.94,1421,1169,1243,1431,1316,1500,1526,10713,811
30757,1,16.08,-8.66,-9.28,1.983,-0.105,-0.826,-44.78,6.92,0.00,2.34,44.78,-4.58,0.00,150.00,-17.41,133.92,-8.75,0.00,-10.04,17.25,138.12,1421,1169,1243,1431,1316,1500,1526,10737,811
30769,1,0.86,-4.57,-5.09,0.902,-0.464,0.014,-37.14,23.99,0.00,2.34,37.14,-21.65,0.00,130.45,-77.17,129.59,-72.60,0.00,-2.60,9.66,31.44,1421,1169,1243,1431,1315,1500,1526,10750,811
30781,1,-1.95,29.57,0.02,0.483,-0.693,1.063,-26.18,13.37,0.00,2.34,26.18,-11.03,0.00,92.10,-40.03,94.04,-69.60,0.00,-2.07,-2.06,-76.80,1421,1169,1243,1431,1316,1500,1526,10750,811
30792,1,5.34,9.60,-2.78,1.097,-0.542,0.372,-21.12,25.70,0.00,2.34,21.12,-23.36,0.00,74.43,-83.21,69.09,-92.81,0.00,-5.75,6.58,-21.46,1421,1169,1243,1431,1316,1500,1526,10737,811
30804,1,27.07,3.21,-5.97,1.637,-0.656,-0.048,-40.30,44.77,0.00,2.34,40.30,-42.43,0.00,141.58,-150.00,114.51,-153.21,0.00,-12.75,3.96,27.70,1421,1169,1243,1431,1316,1500,1526,10717,811
30817,1,4.57,54.80,-7.30,-0.028,-1.863,1.068,-24.31,22.37,0.00,2.34,24.31,-20.03,0.00,85.63,-71.62,81.06,-126.41,0.00,-4.61,-12.16,65.35,1421,1169,1243,1431,1316,1500,1526,10704,811
30829,1,-55.29,37.32,-11.39,-0.475,-1.648,1.019,-12.00,10.19,0.00,7.65,12.00,-2.54,0.00,42.56,-10.41,97.84,-47.73,0.00,22.08,2.39,175.59,1421,1169,1243,1431,1257,1500,1585,10704,811
30841,1,-97.84,48.86,-10.01,-3.242,-0.535,2.494,-19.28,4.61,0.00,2.34,19.28,-2.27,0.00,68.06,-9.51,165.90,-58.37,0.00,44.21,-2.03,166.40,1104,1440,1500,1196,1316,1500,1526,10692,810
30853,1,-77.56,54.03,-1.88,-2.205,0.386,1.759,-2.37,-11.81,0.00,2.34,2.37,14.15,0.00,8.89,48.00,86.45,-6.03,0.00,33.80,7.30,47.03,1104,1440,1500,1196,1316,1500,1526,10704,810
30864,1,-18.50,103.12,-6.65,-0.554,1.578,1.494,11.03,2.37,0.00,0.00,-11.03,-2.37,0.00,-38.00,-9.81,-19.50,-112.94,0.00,4.14,-27.92,155.19,1104,1440,1500,1196,1329,1500,1513,10708,810
30876,1,46.76,110.85,-0.48,0.077,1.958,1.479,-5.30,-1.02,0.00,0.00,5.30,1.02,0.00,19.15,2.03,-27.61,-108.82,0.00,-26.29,-35.38,50.05,1104,1440,1500,1196,1329,1500,1513,10713,810
30889,1,75.40,15.16,5.57,3.264,1.068,-0.439,6.64,15.17,0.00,2.25,-6.64,-12.92,0.00,-22.60,-46.74,-98.00,-61.91,0.00,-42.68,3.30,-56.89,1104,1440,1500,1196,1317,1500,1525,10737,810
30901,1,40.12,-0.39,5.81,2.103,-0.773,-0.105,-24.68,18.40,0.00,2.25,24.68,-16.15,0.00,87.02,-58.06,46.90,-57.67,0.00,-21.76,9.59,-59.55,1104,1440,1500,1196,1318,1500,1525,10746,810
30912,1,-31.64,-27.41,2.46,1.866,-2.613,-0.843,-26.24,15.60,0.00,2.25,26.24,-13.35,0.00,92.50,-48.30,124.14,-20.89,0.00,12.81,24.43,14.22,1104,1440,1500,1196,1318,1500,1525,10742,810
30925,1,-73.56,-3.32,-6.77,0.338,-2.186,-0.092,-16.51,16.39,0.00,2.25,16.51,-14.14,0.00,58.44,-51.08,132.00,-47.76,0.00,32.38,17.78,201.87,1104,1440,1500,1196,1317,1500,1525,10725,810
30936,1,-51.09,69.94,-7.96,-1.132,-0.433,1.463,-16.04,14.67,0.00,2.25,16.04,-12.42,0.00,56.81,-45.09,107.90,-115.03,0.00,25.10,-14.62,211.19,1104,1440,1500,1196,1317,1500,1525,10729,810
30949,1,-48.77,85.55,-7.02,-1.912,0.144,2.313,-3.41,8.99,0.00,2.25,3.41,-6.74,0.00,12.63,-25.21,61.40,-110.77,0.00,27.08,-16.48,188.29,1207,1453,1441,1167,1317,1500,1525,10737,810
30961,1,-4.57,130.98,-1.64,-1.536,1.714,2.233,23.02,13.06,0.00,2.25,-23.02,-10.81,0.00,-79.87,-39.46,-75.30,-170.44,0.00,5.94,-36.78,104.50,1207,1453,1441,1167,1317,1500,1525,10692,810
30972,1,45.56,107.76,2.33,0.031,2.447,0.845,7.06,10.16,0.00,2.25,-7.06,-7.91,0.00,-24.03,-29.32,-69.59,-137.08,0.00,-14.95,-24.44,70.74,1207,1453,1441,1167,1317,1500,1525,10646,810
30985,1,105.49,131.79,2.43,0.626,1.883,1.272,4.12,2.73,0.00,2.25,-4.12,-0.48,0.00,-13.73,-3.32,-119.22,-135.11,0.00,-43.22,-34.00,211.79,1207,1453,1441,1167,1271,1500,1525,10621,810
30996,1,103.62,41.18,14.87,2.817,-0.828,-0.006,-23.23,8.30,0.00,2.25,23.23,-6.05,0.00,81.99,-22.79,-21.63,-63.97,0.00,-37.03,5.50,1.08,1207,1453,1441,1167,1271,1500,1525,10625,810
31009,1,55.71,-11.65,18.16,2.942,-1.729,-1.070,-39.13,19.61,0.00,2.25,39.13,-17.36,0.00,137.65,-62.40,81.95,-50.75,0.00,-11.61,22.27,27.04,1207,1453,1441,1167,1250,1500,1525,10667,810
31021,1,25.62,1.66,13.03,0.451,-1.527,0.361,-24.36,12.94,0.00,2.25,24.36,-10.69,0.00,86.01,-39.07,60.39,-40.72,0.00,1.85,19.89,130.70,1207,1453,1441,1167,1248,1500,1525,10704,810
31032,1,-18.88,59.02,8.80,-2.630,-1.570,2.432,-9.09,-7.03,0.00,2.25,9.09,9.28,0.00,32.55,30.84,51.43,-28.19,0.00,20.76,0.81,226.02,1207,1453,1441,1167,1248,1500,1525,10692,810
31045,1,-14.15,33.33,9.33,0.922,-1.721,0.303,-14.09,16.58,0.00,3.24,14.09,-13.34,0.00,50.08,-48.36,64.23,-81.68,0.00,21.00,8.94,250.49,1100,1471,1465,1100,1215,1500,1536,10688,810
31056,1,-17.49,70.92,5.41,-1.689,-0.227,2.188,-20.47,12.45,0.00,3.24,20.47,-9.21,0.00,72.43,-33.93,89.92,-104.85,0.00,25.61,-12.68,349.43,1100,1471,1465,1100,1215,1500,1536,10679,810
31069,1,10.33,75.42,15.37,-1.091,1.573,1.872,-14.19,12.56,0.00,2.25,14.19,-10.31,0.00,50.47,-37.81,40.15,-113.23,0.00,11.63,-15.37,191.55,1100,1471,1465,1100,1225,1500,1525,10688,810
31081,1,32.74,61.02,19.38,0.752,1.435,0.866,-1.86,15.37,0.00,0.00,1.86,-15.37,0.00,7.35,-55.52,-25.39,-116.54,0.00,-1.65,-10.06,142.64,1100,1471,1465,1100,1242,1500,1508,10683,810
31092,1,50.85,17.93,17.34,1.525,0.285,0.521,6.77,33.55,0.00,0.00,-6.77,-33.55,0.00,-22.87,-119.16,-73.73,-137.09,0.00,-10.06,-7.07,184.53,1100,1471,1465,1100,1242,1500,1508,10708,810
31105,1,65.29,-43.22,12.62,1.541,1.757,-0.032,14.73,23.76,0.00,2.25,-14.73,-21.51,0.00,-50.71,-77.05,-116.00,-33.83,0.00,-15.61,17.67,277.58,1100,1471,1465,1100,1225,1500,1525,10742,810
31116,1,59.27,-93.91,17.70,1.663,-0.464,0.328,-38.50,44.77,0.00,2.25,38.50,-42.52,0.00,135.60,-150.00,76.34,-56.09,0.00,-4.27,27.26,159.30,1100,1471,1465,1100,1225,1500,1525,10737,810
31129,1,66.51,7.48,16.21,-2.209,-1.128,2.524,-20.78,7.54,0.00,2.16,20.78,-5.38,0.00,73.63,-20.67,7.12,-28.15,0.00,-11.90,-6.58,220.29,1100,1471,1465,1100,1226,1500,1524,10700,810
31141,1,8.12,-10.82,24.52,-1.746,-1.259,1.471,-10.25,-5.90,0.00,3.15,10.25,9.05,0.00,36.78,29.85,28.66,40.67,0.00,12.43,4.11,124.58,1100,1324,1356,1100,1216,1500,1535,10704,816
31153,1,-4.18,-84.64,26.16,1.321,0.894,-0.569,18.19,13.44,0.00,3.15,-18.19,-10.29,0.00,-62.77,-37.84,-58.59,46.80,0.00,15.53,33.23,140.32,1100,1324,1356,1100,1216,1500,1535,10704,816
31165,1,36.55,62.75,30.56,-0.375,0.471,2.773,-9.07,11.52,0.00,0.00,9.07,-11.52,0.00,32.64,-42.16,-3.91,-104.92,0.00,-0.75,-43.58,108.61,1100,1324,1356,1100,1243,1500,1508,10721,816
31176,1,57.29,62.81,31.46,0.045,-0.882,1.920,-15.54,12.62,0.00,0.00,15.54,-12.62,0.00,55.31,-46.03,-1.98,-108.85,0.00,-12.91,-40.99,109.15,1100,1324,1356,1100,1243,1500,1508,10754,816
31189,1,-7.63,-33.33,24.81,-0.431,-0.624,1.169,-1.32,1.44,0.00,2.16,1.32,0.72,0.00,5.53,0.66,13.16,34.00,0.00,15.63,12.73,245.83,1100,1324,1356,1100,1227,1500,1524,10771,816
31201,1,12.03,-47.16,26.34,-1.128,0.903,2.075,3.71,-4.69,0.00,2.16,-3.71,6.85,0.00,-12.08,22.11,-24.10,69.27,0.00,7.97,25.13,238.67,1100,1324,1356,1100,1227,1500,1524,10771,816
31212,1,85.28,52.96,30.11,-1.727,-0.320,2.643,0.99,-21.14,0.00,2.16,-0.99,23.30,0.00,-2.54,79.72,-87.82,26.75,0.00,-29.00,-17.14,198.10,1100,1324,1356,1100,1227,1500,1524,10771,816
31225,1,35.41,46.23,30.85,-2.166,-0.386,1.769,5.59,-31.66,0.00,2.16,-5.59,33.82,0.00,-18.64,116.57,-54.06,70.33,0.00,-8.65,-12.62,208.23,1100,1324,1356,1100,1230,1500,1524,10787,816
31237,1,13.95,-67.81,37.88,-0.525,1.243,-0.198,27.83,-27.55,0.00,2.16,-27.83,29.71,0.00,-96.52,102.23,-110.46,170.04,0.00,0.78,41.52,116.27,1100,1324,1356,1100,1230,1500,1524,10771,816
31249,1,47.63,-79.59,45.35,-0.359,1.319,0.082,23.43,-21.37,0.00,0.00,-23.43,21.37,0.00,-81.12,73.05,-128.75,152.63,0.00,-14.06,42.17,-3.30,1113,1375,1395,1100,1244,1500,1514,10787,844
31261,1,31.53,87.12,45.08,-3.028,1.141,2.933,15.05,-31.49,0.00,2.16,-15.05,33.65,0.00,-51.82,116.05,-83.34,28.93,0.00,-6.69,-34.48,35.36,1113,1375,1395,1100,1238,1500,1524,10817,844
31273,1,-51.86,44.09,57.40,0.053,1.149,1.314,14.53,-22.70,0.00,2.16,-14.53,24.86,0.00,-50.02,85.35,1.84,41.25,0.00,26.07,-20.02,-166.70,1113,1375,1395,1100,1238,1500,1524,10808,844
31285,1,-53.26,18.32,46.10,-2.239,0.109,2.833,8.48,-29.43,0.00,2.16,-8.48,31.59,0.00,-28.86,108.95,24.40,90.63,0.00,16.65,-2.43,134.07,1113,1375,1395,1100,1239,1500,1524,10800,844
31296,1,-27.08,-5.16,55.33,1.417,-3.168,-0.279,-14.64,-1.94,0.00,2.16,14.64,4.10,0.00,52.07,12.71,79.15,17.87,0.00,3.67,6.64,-21.20,1113,1375,1395,1100,1239,1500,1524,10796,844
31309,1,-4.80,54.59,43.81,0.070,-0.368,-0.141,-25.50,-3.80,0.00,2.16,25.50,5.96,0.00,90.10,19.24,94.90,-35.35,0.00,-4.09,-20.04,197.25,1113,1375,1395,1100,1248,1500,1524,10783,844
31321,1,-20.82,-22.17,41.28,1.695,0.318,-1.151,17.03,9.37,0.00,2.16,-17.03,-7.21,0.00,-58.74,-26.85,-37.91,-4.68,0.00,5.03,18.76,198.72,1113,1375,1395,1100,1258,1500,1524,10804,844
31333,1,-38.22,-10.69,50.28,-0.393,0.053,0.733,26.62,4.82,0.00,2.16,-26.62,-2.66,0.00,-92.36,-10.94,-54.13,-0.25,0.00,11.23,12.14,33.44,1113,1375,1395,1100,1258,1500,1524,10804,844
31345,1,-13.22,29.01,51.78,-0.396,-0.897,1.494,7.40,0.04,0.00,2.97,-7.40,2.93,0.00,-25.09,8.64,-11.86,-20.36,0.00,1.86,-5.73,9.18,1122,1388,1348,1150,1252,1500,1533,10783,852
31356,1,-16.73,36.48,44.16,0.004,-0.355,1.141,13.54,4.02,0.00,2.97,-13.54,-1.05,0.00,-46.60,-5.30,-29.88,-41.78,0.00,7.18,-15.33,145.35,1122,1388,1348,1150,1252,1500,1533,10783,852
31369,1,-25.49,-11.57,44.06,0.426,-0.859,0.640,-0.22,14.84,0.00,2.07,0.22,-12.77,0.00,1.53,-46.31,27.03,-34.75,0.00,13.80,3.49,139.23,1122,1388,1348,1150,1262,1500,1523,10783,852
31381,1,-3.66,33.23,44.58,-0.554,1.386,2.392,3.56,11.81,0.00,2.07,-3.56,-9.74,0.00,-11.68,-35.75,-8.02,-68.97,0.00,3.23,-14.74,120.34,1122,1388,1348,1150,1271,1500,1523,10779,852
31392,1,22.27,45.09,49.63,-0.730,0.423,3.286,13.79,16.57,0.00,2.07,-13.79,-14.50,0.00,-47.50,-52.43,-69.77,-97.52,0.00,-9.73,-23.31,-3.25,1122,1388,1348,1150,1271,1500,1523,10792,852
31405,1,40.64,-32.93,50.98,2.222,-1.181,0.097,4.70,31.87,0.00,2.07,-4.70,-29.80,0.00,-15.71,-105.99,-56.34,-73.06,0.00,-18.39,1.86,-39.11,1122,1388,1348,1150,1272,1500,1523,10787,852
31416,1,13.57,-76.61,43.27,1.017,-0.969,-1.598,3.11,33.84,0.00,2.07,-3.11,-31.77,0.00,-10.14,-112.92,-23.71,-36.31,0.00,-6.81,16.56,126.46,1122,1388,1348,1150,1272,1500,1523,10792,852
31429,1,-7.03,-48.17,47.57,-1.008,0.335,0.757,6.76,0.32,0.00,2.07,-6.76,1.75,0.00,-22.93,4.39,-15.90,52.56,0.00,3.76,13.25,64.97,1122,1388,1348,1150,1271,1500,1523,10783,852
31441,1,54.95,43.46,57.45,-1.626,1.453,1.923,-6.14,-6.36,0.00,2.25,6.14,8.61,0.00,22.22,28.41,-32.72,-15.05,0.00,-25.13,-24.90,-109.80,1381,1211,1113,1379,1271,1500,1525,10775,845
31453,1,27.93,65.35,54.79,-0.033,0.022,1.059,-5.82,-13.34,0.00,2.25,5.82,15.59,0.00,21.11,52.84,-6.82,-12.52,0.00,-15.73,-29.58,-71.41,1381,1211,1113,1379,1271,1500,1525,10762,845
31465,1,-22.39,69.93,44.91,-1.520,0.343,2.267,5.76,-19.58,0.00,0.00,-5.76,19.58,0.00,-19.43,66.85,2.96,-3.09,0.00,8.85,-28.86,111.50,1381,1211,1113,1379,1290,1500,1508,10746,845
31476,1,-36.79,-41.24,34.83,-1.606,1.724,2.433,13.71,-25.69,0.00,0.00,-13.71,25.69,0.00,-47.26,88.26,-10.48,129.50,0.00,17.86,34.11,299.96,1381,1211,1113,1379,1290,1500,1508,10737,845
31489,1,13.42,-10.70,42.53,0.860,2.060,1.001,8.29,0.70,0.00,2.07,-8.29,1.37,0.00,-28.30,3.15,-41.72,13.85,0.00,-6.42,15.59,156.91,1381,1211,1113,1379,1276,1500,1523,10729,845
31501,1,-21.98,57.43,57.95,0.436,-0.415,0.295,2.18,18.10,0.00,2.07,-2.18,-16.03,0.00,-6.93,-57.78,15.05,-115.22,0.00,7.53,-27.59,-147.76,1381,1211,1113,1379,1275,1500,1523,10725,845
31513,1,-18.41,-45.23,56.28,3.049,0.023,-0.840,34.75,24.95,0.00,2.07,-34.75,-22.88,0.00,-120.92,-81.76,-102.51,-36.53,0.00,1.24,15.61,-86.91,1381,1211,1113,1379,1275,1500,1523,10737,845
31525,5,26.15,-64.68,46.29,3.121,0.343,-0.314,29.02,47.65,0.00,2.07,-29.02,-45.58,0.00,-100.90,-375.00,-127.05,-310.32,0.00,-16.45,5.82,106.97,1381,1211,1113,1379,1277,1500,1523,10737,845
31537,1,-3.84,-16.50,43.68,1.371,-0.988,0.769,-7.42,38.72,0.00,0.00,7.42,-38.72,0.00,26.65,-137.30,30.49,-120.80,0.00,0.31,-6.42,205.76,1381,1211,1113,1379,1277,1500,1508,10742,845
31549,5,-9.77,-56.42,43.68,0.653,-1.158,-0.098,-30.52,46.18,0.00,0.00,30.52,-46.18,0.00,107.53,-375.00,117.30,-318.58,0.00,6.41,0.81,193.16,1321,1299,1287,1281,1297,1500,1508,10762,844
31561,1,-45.66,-14.69,44.65,-1.101,-0.216,1.516,6.11,36.42,0.00,2.07,-6.11,-34.35,0.00,-20.68,-122.13,24.97,-107.45,0.00,20.10,-9.38,163.75,1321,1299,1287,1281,1284,1500,1523,10758,844
31572,1,-7.91,-6.28,51.15,0.774,1.745,-0.005,41.19,42.23,0.00,2.07,-41.19,-40.16,0.00,-143.48,-142.50,-135.57,-136.22,0.00,1.37,-12.64,21.83,1321,1299,1287,1281,1284,1500,1523,10750,844
31585,1,40.73,25.40,50.23,1.193,1.329,0.627,21.71,40.86,0.00,0.00,-21.71,-40.86,0.00,-75.33,-144.99,-116.06,-170.38,0.00,-16.97,-26.38,8.85,1321,1299,1287,1281,1299,1500,1507,10750,844
31596,1,62.21,-10.03,50.92,2.540,1.041,-0.372,20.92,37.01,0.00,0.00,-20.92,-37.01,0.00,-72.57,-131.57,-134.79,-121.53,0.00,-30.04,-7.19,-5.64,1321,1299,1287,1281,1299,1500,1507,10742,844
31609,1,54.92,-39.65,48.14,3.386,-0.416,-0.544,-20.01,35.99,0.00,2.07,20.01,-33.92,0.00,70.65,-120.77,15.72,-81.12,0.00,-25.76,4.82,67.64,1321,1299,1287,1281,1285,1500,1523,10746,844
31621,1,-2.18,-33.49,53.51,0.734,-1.553,0.570,-21.40,21.68,0.00,1.98,21.40,-19.70,0.00,75.53,-71.05,77.70,-37.56,0.00,-1.11,8.42,-3.62,1321,1299,1287,1281,1285,1500,1522,10733,844
31632,1,-67.04,-1.11,46.23,-1.750,-1.091,2.035,4.10,10.94,0.00,1.98,-4.10,-8.96,0.00,-13.73,-33.47,53.32,-32.35,0.00,27.46,0.10,161.37,1321,1299,1287,1281,1285,1500,1522,10704,844
31645,1,-56.12,-3.77,47.60,-3.054,0.916,2.949,6.78,5.26,0.00,2.07,-6.78,-3.19,0.00,-23.09,-13.28,33.03,-9.51,0.00,22.50,3.22,162.13,1298,1282,1240,1316,1284,1500,1523,10696,935
31656,1,-18.66,36.57,47.51,-2.259,1.117,2.746,2.74,1.29,0.00,2.07,-2.74,0.78,0.00,-8.94,0.61,9.72,-35.96,0.00,6.91,-14.93,191.73,1298,1282,1240,1316,1284,1500,1523,10713,935
31669,1,33.23,69.05,46.26,-0.161,1.234,1.564,-0.59,2.92,0.00,1.98,0.59,-0.94,0.00,2.69,-5.42,-30.54,-74.47,0.00,-18.84,-33.13,215.96,1298,1282,1240,1316,1285,1500,1522,10717,935
31681,1,13.76,11.58,58.67,1.313,0.020,0.767,-9.37,9.57,0.00,1.98,9.37,-7.59,0.00,33.43,-28.69,19.67,-40.27,0.00,-10.09,-11.36,-19.30,1298,1282,1240,1316,1285,1500,1522,10733,935
31693,1,11.31,-40.52,65.85,2.969,-0.575,-0.953,-42.30,16.35,0.00,1.98,42.30,-14.37,0.00,148.71,-52.42,137.40,-11.90,0.00,-4.89,10.39,-145.07,1298,1282,1240,1316,1285,1500,1522,10733,935
31705,1,-1.70,-56.10,61.42,0.611,-0.547,-0.113,-33.41,14.68,0.00,1.98,33.41,-12.70,0.00,117.62,-46.58,119.32,9.52,0.00,1.93,17.01,-62.91,1298,1282,1240,1316,1287,1500,1522,10742,935
31716,1,-10.46,-56.24,62.02,-0.718,-0.910,1.099,-20.84,2.10,0.00,1.98,20.84,-0.12,0.00,73.66,-2.57,84.12,53.68,0.00,4.92,21.39,-52.73,1298,1282,1240,1316,1287,1500,1522,10746,935
31729,1,-24.01,-33.58,53.50,0.205,-0.462,1.019,-19.36,22.27,0.00,1.98,19.36,-20.29,0.00,68.51,-73.20,92.52,-39.62,0.00,11.54,4.94,136.27,1298,1282,1240,1316,1288,1500,1522,10737,935
31741,1,-36.07,-17.67,48.69,-0.563,-0.324,1.073,-31.30,22.30,0.00,1.98,31.30,-20.32,0.00,110.34,-73.32,146.41,-55.65,0.00,18.36,-3.23,242.53,1100,1500,1500,1100,1288,1500,1522,10733,964
31753,1,-51.20,-43.53,46.00,-0.035,-0.318,0.402,-15.88,20.29,0.00,1.98,15.88,-18.31,0.00,56.41,-66.31,107.60,-22.79,0.00,23.02,8.86,295.31,1100,1500,1500,1100,1288,1500,1522,10704,964
31765,1,-35.35,24.56,55.49,0.028,0.729,0.485,-12.64,28.52,0.00,0.00,12.64,-28.52,0.00,45.07,-102.09,80.42,-126.65,0.00,15.47,-28.58,133.90,1100,1500,1500,1100,1302,1500,1508,10700,964
31776,1,-42.34,37.93,55.86,-0.992,1.427,1.812,-5.89,12.81,0.00,0.00,5.89,-12.81,0.00,21.48,-47.13,63.82,-85.07,0.00,22.08,-27.19,147.11,1100,1500,1500,1100,1302,1500,1508,10717,964
31789,1,3.47,-5.43,60.80,0.786,1.999,0.066,21.94,22.37,0.00,1.98,-21.94,-20.39,0.00,-75.93,-73.67,-79.40,-68.24,0.00,-0.31,-5.00,47.02,1100,1500,1500,1100,1289,1500,1522,10729,964
31801,1,47.15,26.21,66.57,0.855,1.407,0.927,-11.56,28.98,0.00,1.98,11.56,-27.00,0.00,41.34,-96.85,-5.81,-123.06,0.00,-15.99,-28.88,-50.00,1100,1500,1500,1100,1289,1500,1522,10733,964
31812,1,89.61,39.89,67.76,2.389,0.978,0.714,-12.42,26.77,0.00,1.98,12.42,-24.79,0.00,44.35,-89.13,-45.26,-129.02,0.00,-38.41,-35.65,-40.95,1100,1500,1500,1100,1289,1500,1522,10729,964
31825,1,87.18,-24.43,70.02,2.905,-0.475,-0.549,-39.83,31.26,0.00,1.98,39.83,-29.28,0.00,140.33,-104.88,53.15,-80.45,0.00,-35.14,-1.79,-89.85,1100,1500,1500,1100,1289,1500,1522,10746,964
31836,1,48.56,-44.23,71.46,1.659,-1.853,-0.054,-38.54,20.35,0.00,1.98,38.54,-18.37,0.00,135.83,-66.70,87.28,-22.47,0.00,-18.41,15.06,-115.18,1100,1500,1500,1100,1289,1500,1522,10750,964
31849,1,-4.44,-36.48,66.90,0.456,-2.428,0.563,-26.13,11.01,0.00,2.25,26.13,-8.76,0.00,92.44,-33.10,96.88,3.37,0.00,4.95,17.57,-9.15,1136,1462,1368,1178,1286,1500,1525,10737,816
31861,1,-57.77,-9.19,57.96,-0.961,-2.007,1.786,-2.98,9.58,0.00,1.89,2.98,-7.69,0.00,11.41,-29.37,69.18,-20.18,0.00,29.26,7.45,173.70,1136,1462,1368,1178,1290,1500,1521,10758,816
31872,1,-79.31,-1.59,55.49,-1.993,-0.080,1.721,-7.34,8.00,0.00,1.89,7.34,-6.11,0.00,26.68,-23.84,105.99,-22.25,0.00,42.47,3.49,231.70,1136,1462,1368,1178,1290,1500,1521,10779,816
31885,1,-57.92,57.80,52.63,-2.565,1.804,2.721,4.18,1.30,0.00,1.89,-4.18,0.59,0.00,-13.64,-0.41,44.29,-58.21,0.00,32.60,-21.15,285.30,1136,1462,1368,1178,1290,1500,1521,10762,816
31896,1,-9.91,57.02,59.37,-1.275,2.467,2.173,-15.38,6.99,0.00,1.89,15.38,-5.10,0.00,54.84,-20.32,64.75,-77.34,0.00,14.48,-24.34,160.23,1136,1462,1368,1178,1290,1500,1521,10754,816
31909,1,55.02,24.10,66.38,0.944,2.084,0.117,-7.81,9.48,0.00,1.89,7.81,-7.59,0.00,28.37,-29.04,-26.65,-53.14,0.00,-17.76,-9.73,49.75,1136,1462,1368,1178,1290,1500,1521,10754,816
31921,1,92.25,43.18,70.01,0.375,0.376,1.384,-8.82,0.09,0.00,1.89,8.82,1.80,0.00,31.91,3.83,-60.34,-39.35,0.00,-37.43,-19.28,8.91,1136,1462,1368,1178,1290,1500,1521,10754,816
31932,1,75.39,6.21,73.43,0.314,-1.079,0.952,-18.27,-7.89,0.00,1.89,18.27,9.78,0.00,65.01,31.79,-10.37,25.58,0.00,-29.64,1.41,-43.76,1136,1462,1368,1178,1290,1500,1521,10771,816
31945,1,40.39,-53.95,77.17,0.483,-2.017,0.191,-22.30,-11.28,0.00,1.89,22.30,13.17,0.00,79.12,43.65,38.73,97.61,0.00,-13.19,29.16,-107.82,1100,1442,1500,1122,1290,1500,1521,10771,817
31956,1,7.00,-60.53,73.35,-1.143,-1.602,1.183,-10.37,-14.91,0.00,1.89,10.37,16.80,0.00,37.39,56.39,30.38,116.93,0.00,0.95,28.34,-30.92,1100,1442,1500,1122,1290,1500,1521,10771,817
31969,1,-23.69,-40.31,71.01,-2.080,-0.836,1.669,-4.81,-12.69,0.00,2.88,4.81,15.57,0.00,17.92,52.08,41.61,92.39,0.00,16.26,19.64,21.70,1100,1442,1500,1122,1279,1500,1532,10754,817
31981,1,-84.67,22.45,68.71,-3.138,-0.166,2.980,-4.73,-7.38,0.00,1.89,4.73,9.27,0.00,17.64,30.04,102.32,7.60,0.00,44.29,-13.61,98.89,1100,1442,1500,1122,1290,1500,1521,10762,817
31992,1,-68.72,-28.65,77.80,-0.225,0.583,1.268,3.13,-0.21,0.00,1.89,-3.13,2.10,0.00,-9.85,4.96,58.87,33.62,0.00,31.35,9.10,-21.68,1100,1442,1500,1122,1290,1500,1521,10767,817
32005,1,-24.77,61.16,73.45,-0.526,2.695,1.567,-4.22,1.60,0.00,1.89,4.22,0.29,0.00,15.88,-1.39,40.65,-62.55,0.00,7.22,-33.14,104.96,1100,1442,1500,1122,1290,1500,1521,10754,817
32016,1,-10.99,42.20,69.95,1.314,2.097,1.483,-9.30,11.71,0.00,1.89,9.30,-9.82,0.00,33.69,-36.79,44.67,-78.98,0.00,0.61,-28.39,190.15,1100,1442,1500,1122,1290,1500,1521,10746,817
32029,1,14.08,54.61,73.30,0.326,0.733,1.208,-8.39,15.04,0.00,1.89,8.39,-13.15,0.00,30.53,-48.44,16.45,-103.05,0.00,-8.98,-29.02,129.07,1100,1442,1500,1122,1290,1500,1521,10754,817
32041,1,1.26,35.67,77.57,-0.564,0.018,1.451,-8.12,0.93,0.00,1.89,8.12,0.96,0.00,29.60,0.94,28.34,-34.73,0.00,-1.14,-13.19,48.11,1229,1351,1323,1253,1289,1500,1521,10737,811
32053,1,-4.24,28.51,83.66,-0.225,-0.306,0.898,-12.96,-5.60,0.00,1.89,12.96,7.49,0.00,46.56,23.79,50.80,-4.72,0.00,2.69,-6.14,-72.01,1229,1351,1323,1253,1289,1500,1521,10746,811
32065,1,8.85,13.68,85.74,0.682,0.246,0.066,6.81,5.99,0.00,0.00,-6.81,-5.99,0.00,-22.64,-23.38,-31.49,-37.06,0.00,-6.45,0.51,-116.54,1229,1351,1323,1253,1270,1500,1520,10779,811
32076,1,23.68,8.47,85.07,-0.218,0.606,1.090,6.65,-5.54,0.00,0.00,-6.65,5.54,0.00,-22.09,16.99,-45.76,8.53,0.00,-13.57,2.67,-99.76,1229,1351,1323,1253,1270,1500,1520,10771,811
32089,1,38.66,6.16,85.59,0.410,0.037,0.748,3.01,-1.90,0.00,0.00,-3.01,1.90,0.00,-9.38,4.25,-48.04,-1.91,0.00,-19.61,3.69,-122.63,1229,1351,1323,1253,1281,1500,1508,10771,811
32101,1,45.74,38.78,77.26,-1.283,-0.422,2.086,4.29,-13.67,0.00,0.00,-4.29,13.67,0.00,-13.85,45.47,-59.58,6.70,0.00,-22.75,-11.13,5.38,1229,1351,1323,1253,1250,1500,1520,10771,811
32112,1,30.01,0.83,71.33,-0.805,-1.048,1.514,1.77,-15.12,0.00,0.00,-1.77,15.12,0.00,-5.03,50.55,-35.05,49.72,0.00,-13.51,7.12,122.41,1229,1351,1323,1253,1250,1500,1520,10796,811
32125,1,12.87,-9.25,68.46,-0.539,-0.874,1.004,-0.17,-8.95,0.00,0.00,0.17,8.95,0.00,1.74,28.98,-11.13,38.23,0.00,-3.01,10.26,128.31,1229,1351,1323,1253,1204,1500,1520,10792,811
32136,1,14.39,4.22,67.82,-0.596,-0.687,0.935,0.40,-2.80,0.00,0.00,-0.40,2.80,0.00,-0.27,7.43,-14.66,3.20,0.00,-2.11,1.31,135.04,1229,1351,1323,1253,1204,1500,1520,10792,811
32149,9,8.14,20.82,68.76,-1.097,-0.403,1.890,2.95,5.78,0.00,0.00,-2.95,-5.78,0.00,-10.32,-20.23,-18.46,-41.06,0.00,1.72,-6.62,123.75,1318,1100,1100,1264,1184,1500,1520,10808,814
32161,9,21.77,21.62,77.55,-0.635,-0.067,1.455,15.73,16.07,0.00,0.00,-15.73,-16.07,0.00,-55.06,-56.24,-76.82,-77.86,0.00,-2.76,-10.47,-204.33,1318,1100,1100,1264,1101,1500,1511,10817,814
32172,9,39.88,35.56,81.49,-0.720,0.026,1.058,28.55,16.99,0.00,0.00,-28.55,-16.99,0.00,-99.94,-59.46,-139.82,-95.02,0.00,-9.46,-17.82,-279.13,1318,1100,1100,1264,1101,1500,1511,10825,814
32184,9,40.79,46.50,80.45,-0.860,-0.210,0.987,10.01,9.00,0.00,2.16,-10.01,-6.84,0.00,-35.04,-23.94,-75.82,-70.43,0.00,-4.70,-21.29,-311.28,1318,1100,1100,1264,1018,1500,1524,10850,814
32196,9,-21.54,68.03,89.83,-3.837,-1.906,4.035,4.10,-13.37,0.00,2.16,-4.10,15.53,0.00,-14.35,54.36,7.20,-13.68,0.00,14.61,-17.56,-350.00,1318,1100,1100,1264,1018,1500,1524,10875,814
32209,9,-15.54,-20.63,85.08,-0.338,1.395,-0.980,17.44,-12.00,0.00,2.16,-17.44,14.16,0.00,-61.05,49.56,-45.51,70.18,0.00,6.13,32.06,-321.09,1318,1100,1100,1264,1018,1500,1524,10916,814
32221,9,-6.83,-21.38,92.72,1.881,1.626,-1.017,4.09,15.79,0.00,2.16,-4.09,-13.63,0.00,-14.30,-47.71,-7.47,-26.34,0.00,-0.22,12.47,-350.00,1318,1100,1100,1264,1018,1500,1524,10929,814
32232,9,-33.21,-23.50,92.94,-1.876,-0.605,3.282,-14.20,1.37,0.00,2.16,14.20,0.79,0.00,49.69,2.76,82.90,26.26,0.00,13.67,10.09,-350.00,1318,1100,1100,1264,1018,1500,1524,10946,814
32245,9,-13.51,-0.55,78.45,0.276,-1.163,-0.152,-22.43,1.23,0.00,2.16,22.43,0.93,0.00,78.50,3.27,92.01,3.82,0.00,4.42,5.43,-245.16,1100,1100,1100,1100,1017,1500,1524,10962,808
32257,9,-81.68,-39.05,66.25,1.188,-0.968,-0.811,-10.43,13.01,0.00,2.16,10.43,-10.85,0.00,36.52,-37.98,118.20,1.07,0.00,36.92,21.36,-40.20,1100,1100,1100,1100,1017,1500,1524,10975,808
32269,9,-55.02,93.54,75.19,-1.770,0.510,2.674,-19.61,11.46,0.00,2.61,19.61,-8.85,0.00,68.65,-30.97,123.67,-124.51,0.00,25.83,-44.65,-220.00,1100,1100,1100,1100,1013,1500,1529,10983,808
32281,9,-44.60,161.13,72.03,-3.144,0.203,5.351,-19.56,-2.48,0.00,2.43,19.56,4.91,0.00,68.47,17.17,113.08,-143.96,0.00,21.24,-68.13,-162.75,1100,1100,1100,1100,1015,1500,1527,10987,808
32292,9,8.40,44.62,76.54,-2.865,1.697,3.633,14.55,2.74,0.00,2.43,-14.55,-0.31,0.00,-50.93,-1.09,-59.33,-45.70,0.00,-6.26,-3.78,-283.74,1100,1100,1100,1100,1015,1500,1527,10996,808
32304,9,12.38,-34.52,72.67,1.127,0.112,-0.022,20.51,12.83,0.00,2.16,-20.51,-10.67,0.00,-71.79,-37.34,-84.17,-2.82,0.00,-11.21,40.52,-234.09,1100,1100,1100,1100,1017,1500,1524,11000,808
32316,9,-33.08,18.63,64.14,0.256,-1.791,0.406,-4.54,12.55,0.00,2.16,4.54,-10.39,0.00,15.89,-36.38,48.97,-55.01,0.00,11.63,4.61,-55.52,1100,1100,1100,1100,1017,1500,1524,11012,808
32329,9,-56.64,25.53,66.93,0.298,-3.578,0.950,14.09,15.49,0.00,2.16,-14.09,-13.33,0.00,-49.33,-46.67,7.32,-72.19,0.00,20.84,-4.32,-142.36,1100,1100,1100,1100,1017,1500,1524,11029,808
32341,9,-5.08,-52.48,67.51,0.002,1.365,-0.844,15.58,16.98,0.00,2.34,-15.58,-14.64,0.00,-54.54,-51.24,-49.46,1.23,0.00,-2.94,32.69,-182.81,1100,1100,1100,1100,1015,1500,1526,11021,813
