time_ms,flags,gyro_x,gyro_y,gyro_z,accel_x,accel_y,accel_z,roll,pitch,angle_sp_roll,angle_sp_pitch,angle_err_roll,angle_err_pitch,angle_i_roll,rate_sp_roll,rate_sp_pitch,rate_err_roll,rate_err_pitch,rate_i_roll,pid_roll,pid_pitch,pid_yaw,m1,m2,m3,m4,rc_thr,rc_roll,rc_pitch,battery_mv,loop_us
47729,9,-0.10,0.03,-0.05,0.021,-0.055,0.997,-3.36,3.36,0.00,0.00,3.36,-3.36,0.00,11.77,-11.74,11.86,-11.77,0.00,0.51,-0.48,1.16,1000,1000,1000,1000,1049,1500,1508,11208,813
47741,9,-0.04,0.03,-0.06,0.017,-0.053,0.997,-3.33,3.29,0.00,3.69,3.33,0.40,0.00,11.65,1.39,11.69,1.36,0.00,0.48,0.05,0.91,1100,1100,1100,1100,1002,1500,1541,11208,809
47752,9,-0.04,0.03,-0.06,0.016,-0.057,0.994,-3.39,3.27,0.00,3.69,3.39,0.42,0.00,11.85,1.45,11.89,1.42,0.00,0.48,0.06,0.98,1100,1100,1100,1100,1002,1500,1541,11208,809
47765,9,-0.04,-0.03,-0.12,0.018,-0.054,0.999,-3.39,3.21,0.00,3.69,3.39,0.48,0.00,11.86,1.68,11.90,1.71,0.00,0.48,0.10,1.86,1100,1100,1100,1100,1002,1500,1541,11208,809
47776,9,0.02,0.03,0.00,0.019,-0.054,0.997,-3.31,3.23,0.00,3.69,3.31,0.46,0.00,11.58,1.62,11.56,1.59,0.00,0.45,0.06,-0.71,1100,1100,1100,1100,1002,1500,1541,11208,809
47789,9,0.02,-0.03,0.06,0.014,-0.052,0.998,-3.31,3.16,0.00,3.60,3.31,0.44,0.00,11.58,1.54,11.56,1.58,0.00,0.45,0.09,-1.85,1100,1100,1100,1100,1003,1500,1540,11208,809
47801,9,-0.04,0.08,0.00,0.019,-0.056,1.003,-3.36,3.17,0.00,3.60,3.36,0.43,0.00,11.76,1.49,11.79,1.41,0.00,0.49,0.03,-0.32,1100,1100,1100,1100,1003,1500,1540,11208,809
47812,9,-0.04,0.08,-0.00,0.020,-0.059,0.997,-3.37,3.22,0.00,3.60,3.37,0.38,0.00,11.79,1.34,11.83,1.26,0.00,0.49,0.02,-0.43,1100,1100,1100,1100,1003,1500,1540,11208,809
47825,9,0.29,-0.03,-0.06,0.014,-0.053,0.998,-3.29,3.16,0.00,0.00,3.29,-3.16,0.00,11.53,-11.05,11.24,-11.02,0.00,0.31,-0.42,0.55,1100,1100,1100,1100,1035,1500,1508,11200,809
47836,9,0.02,-0.08,0.06,0.018,-0.046,1.003,-3.24,3.19,0.00,0.00,3.24,-3.19,0.00,11.35,-11.16,11.33,-11.08,0.00,0.45,-0.39,-1.79,1100,1100,1100,1100,1035,1500,1508,11200,809
47849,9,-0.03,-0.10,0.06,0.019,-0.062,0.997,-3.39,3.11,0.00,3.60,3.39,0.49,0.00,11.88,1.71,11.91,1.81,0.00,0.50,0.12,-1.18,1100,1100,1100,1100,1003,1500,1540,11195,808
47861,9,0.25,0.02,-0.12,0.031,-0.052,0.993,-3.36,3.23,0.00,2.07,3.36,-1.16,0.00,11.76,-4.07,11.51,-4.09,0.00,0.35,-0.16,1.84,1100,1100,1100,1100,1020,1500,1523,11195,808
47872,9,-0.04,0.55,0.23,0.011,-0.048,1.003,-3.30,2.95,0.00,2.07,3.30,-0.88,0.00,11.54,-3.08,11.58,-3.63,0.00,0.46,-0.31,-5.07,1100,1100,1100,1100,1020,1500,1523,11200,808
47885,9,-0.09,0.12,0.12,0.016,-0.058,1.004,-3.36,3.07,0.00,3.60,3.36,0.53,0.00,11.74,1.85,11.83,1.73,0.00,0.51,0.07,-1.55,1100,1100,1100,1100,1003,1500,1540,11200,808
47896,9,0.08,0.02,-0.12,0.017,-0.057,1.002,-3.40,3.15,0.00,3.60,3.40,0.45,0.00,11.89,1.57,11.82,1.55,0.00,0.43,0.10,2.54,1100,1100,1100,1100,1003,1500,1540,11195,808
47909,9,0.01,-0.04,-0.12,0.023,-0.051,0.999,-3.32,3.21,0.00,3.60,3.32,0.39,0.00,11.62,1.36,11.61,1.39,0.00,0.45,0.10,1.33,1100,1100,1100,1100,1003,1500,1540,11195,808
47921,9,0.02,-0.26,0.14,0.011,-0.039,0.997,-3.38,3.22,0.00,0.00,3.38,-3.22,0.00,11.82,-11.26,11.79,-11.00,0.00,0.47,-0.30,-1.59,1100,1100,1100,1100,1034,1500,1509,11187,808
47932,9,-0.53,-0.76,-0.23,0.043,-0.056,0.975,-3.51,3.40,0.00,0.00,3.51,-3.40,0.00,12.29,-11.89,12.82,-11.13,0.00,0.76,-0.08,5.33,1100,1100,1100,1100,1034,1500,1509,11191,808
47945,9,-0.38,-0.25,0.01,-0.001,-0.043,0.994,-3.10,3.17,0.00,3.60,3.10,0.43,0.00,10.87,1.51,11.24,1.76,0.00,0.60,0.20,0.28,1100,1100,1100,1100,1003,1500,1540,11187,809
47956,9,-0.91,-0.23,-0.76,-0.034,-0.059,1.016,-3.16,2.93,0.00,3.60,3.16,0.67,0.00,11.06,2.36,11.97,2.59,0.00,0.86,0.24,12.50,1100,1100,1100,1100,1003,1500,1540,11179,809
47969,9,-0.64,-0.89,-0.10,-0.021,-0.082,0.988,-3.51,2.28,0.00,3.60,3.51,1.32,0.00,12.28,4.61,12.92,5.51,0.00,0.79,0.78,-0.37,1100,1100,1100,1100,1003,1500,1540,11166,809
47981,9,0.35,-0.16,-0.09,0.003,-0.051,1.012,-2.96,2.12,0.00,3.60,2.96,1.48,0.00,10.36,5.17,10.02,5.34,0.00,0.21,0.53,2.78,1100,1100,1100,1100,1003,1500,1540,11170,809
47992,9,-0.15,-3.19,-0.53,0.155,0.036,0.876,-1.86,5.02,0.00,3.60,1.86,-1.42,0.00,6.52,-4.96,6.67,-1.77,0.00,0.31,1.33,9.78,1100,1100,1100,1100,1003,1500,1540,11170,809
48005,9,-1.50,-0.60,0.16,0.116,-0.089,0.944,-2.45,6.77,0.00,3.60,2.45,-3.17,0.00,8.57,-11.10,10.07,-10.50,0.00,1.08,-0.56,-6.27,1100,1100,1100,1100,1003,1500,1540,11162,809
48016,9,0.04,3.95,0.65,-0.165,-0.150,1.070,-4.10,2.28,0.00,3.60,4.10,1.32,0.00,14.34,4.61,14.29,0.66,0.00,0.54,-1.82,-11.39,1100,1100,1100,1100,1003,1500,1540,11129,809
48029,9,1.41,1.20,0.02,-0.052,-0.036,1.049,-3.34,1.83,0.00,3.60,3.34,1.77,0.00,11.69,6.21,10.28,5.01,0.00,-0.23,-0.19,2.82,1100,1100,1100,1100,1003,1500,1540,11091,809
48041,9,-0.70,-1.28,-0.20,0.086,-0.068,0.939,-3.72,4.03,0.00,3.51,3.72,-0.52,0.00,13.03,-1.82,13.73,-0.55,0.00,0.85,0.52,3.37,1100,1100,1100,1100,1004,1500,1539,11083,809
48052,9,-0.11,2.29,0.52,-0.017,-0.038,0.999,-2.94,2.93,0.00,3.51,2.94,0.58,0.00,10.28,2.04,10.39,-0.25,0.00,0.45,-0.91,-10.08,1100,1100,1100,1100,1004,1500,1539,11075,809
48065,9,0.56,1.26,0.43,-0.010,-0.043,1.041,-3.25,1.94,0.00,3.51,3.25,1.57,0.00,11.38,5.49,10.82,4.23,0.00,0.22,-0.28,-4.54,1100,1100,1100,1100,1004,1500,1539,11070,809
48076,9,0.00,-1.75,-0.07,0.103,0.021,0.945,-3.27,3.71,0.00,3.51,3.27,-0.20,0.00,11.46,-0.71,11.46,1.04,0.00,0.48,0.72,2.78,1100,1100,1100,1100,1004,1500,1539,11079,809
48089,9,-0.60,1.37,-0.14,0.012,-0.102,1.029,-3.31,2.53,0.00,0.00,3.31,-2.53,0.00,11.57,-8.85,12.17,-10.22,0.00,0.74,-0.97,-0.09,1100,1100,1100,1100,1035,1500,1508,11066,809
48101,9,0.28,2.12,0.40,-0.091,-0.053,1.085,-2.98,1.50,0.00,3.51,2.98,2.01,0.00,10.42,7.02,10.14,4.90,0.00,0.26,-0.60,-9.58,1100,1100,1100,1100,1004,1500,1539,11070,809
48112,9,-0.48,-2.45,-0.58,0.149,-0.056,0.905,-3.56,5.95,0.00,3.51,3.56,-2.44,0.00,12.45,-8.55,12.93,-6.10,0.00,0.74,0.71,10.34,1100,1100,1100,1100,1004,1500,1539,11079,809
48125,9,-0.03,-1.94,0.85,0.063,-0.072,0.995,-3.58,6.26,0.00,3.51,3.58,-2.75,0.00,12.54,-9.64,12.57,-7.70,0.00,0.52,0.42,-14.54,1100,1100,1100,1100,1004,1500,1539,11083,809
48136,9,-0.01,-2.35,0.58,0.018,-0.119,0.999,-4.69,6.12,0.00,3.51,4.69,-2.61,0.00,16.43,-9.12,16.44,-6.77,0.00,0.59,0.28,-2.44,1100,1100,1100,1100,1004,1500,1539,11095,809
48149,9,1.26,1.67,-2.43,0.004,-0.092,0.968,-4.91,4.30,0.00,0.00,4.91,-4.30,0.00,17.18,-15.04,15.92,-16.72,0.00,0.08,-1.58,46.62,1100,1100,1100,1100,1034,1500,1509,11087,808
48161,9,-0.68,-0.02,-0.26,0.036,0.008,0.966,-3.61,3.47,0.00,1.98,3.61,-1.49,0.00,12.62,-5.21,13.30,-5.19,0.00,0.85,-0.23,-9.15,1100,1100,1100,1100,1021,1500,1522,11100,808
48172,9,-1.20,-1.63,3.73,-0.031,-0.035,1.009,-3.15,3.88,0.00,1.98,3.15,-1.90,0.00,11.02,-6.65,12.22,-5.02,0.00,0.94,0.46,-59.14,1100,1100,1100,1100,1021,1500,1522,11104,808
48185,9,-0.26,0.40,-2.76,0.035,-0.143,0.949,-4.61,1.24,0.00,3.51,4.61,2.27,0.00,16.14,7.96,16.40,7.56,0.00,0.75,0.25,71.30,1100,1100,1100,1100,1004,1500,1539,11100,808
48196,9,-0.11,3.35,-2.16,-0.035,-0.065,1.147,-4.64,1.10,0.00,3.51,4.64,2.41,0.00,16.23,8.43,16.34,5.08,0.00,0.82,-1.02,17.00,1100,1100,1100,1100,1004,1500,1539,11108,808
48209,9,-0.92,-0.15,5.65,-0.024,-0.022,0.938,-3.30,2.09,0.00,3.51,3.30,1.42,0.00,11.56,4.98,12.48,5.13,0.00,0.80,0.36,-105.92,1100,1100,1100,1100,1004,1500,1539,11100,808
48221,9,2.11,-0.89,-0.69,-0.014,-0.140,1.108,-4.87,1.74,0.00,3.51,4.87,1.77,0.00,17.03,6.18,14.92,7.07,0.00,-0.44,0.60,36.04,1100,1100,1100,1100,1004,1500,1539,11095,808
48232,9,-0.27,1.81,-1.14,-0.073,-0.047,1.077,-4.17,1.58,0.00,3.51,4.17,1.93,0.00,14.58,6.75,14.85,4.94,0.00,0.83,-0.43,15.01,1100,1100,1100,1100,1004,1500,1539,11091,808
48245,9,-0.84,-0.58,0.32,-0.062,-0.101,1.031,-4.97,1.84,0.00,0.00,4.97,-1.84,0.00,17.40,-6.43,18.24,-5.85,0.00,0.95,-0.24,-9.02,1100,1100,1100,1100,1034,1500,1509,11095,808
48256,9,1.52,-1.38,1.37,0.001,0.084,1.070,-2.43,2.63,0.00,0.00,2.43,-2.63,0.00,8.52,-9.21,7.00,-7.82,0.00,-0.52,0.20,-28.66,1100,1100,1100,1100,1034,1500,1509,11100,808
48269,9,-0.92,3.29,1.34,-0.080,-0.168,0.933,-2.52,-0.17,0.00,3.51,2.52,3.68,0.00,8.82,12.86,9.75,9.58,0.00,0.88,-0.52,-11.21,1100,1100,1100,1100,1004,1500,1539,11095,808
48281,9,-1.26,-1.03,-2.74,0.052,-0.041,1.049,-3.69,3.40,0.00,3.51,3.69,0.11,0.00,12.92,0.38,14.18,1.41,0.00,1.11,0.77,49.61,1100,1100,1100,1100,1004,1500,1539,11100,808
48292,9,-0.84,2.06,0.77,-0.100,-0.025,0.746,-0.74,3.09,0.00,3.51,0.74,0.42,0.00,2.58,1.48,3.42,-0.59,0.00,0.40,-1.12,-21.00,1100,1100,1100,1100,1004,1500,1539,11108,808
48305,9,2.56,1.83,0.18,-0.025,-0.033,1.302,-2.63,1.82,0.00,3.42,2.63,1.60,0.00,9.21,5.62,6.65,3.79,0.00,-0.74,-0.23,-9.22,1100,1100,1100,1100,1005,1501,1538,11116,808
48316,9,-0.11,1.20,1.46,-0.206,0.113,0.968,0.12,-0.95,0.00,3.42,-0.12,4.37,0.00,-0.42,15.30,-0.31,14.10,0.00,0.02,0.53,-23.54,1100,1100,1100,1100,1005,1500,1538,11108,808
48329,9,0.29,-9.30,-1.28,0.366,-0.213,0.845,-5.01,5.59,0.00,3.42,5.01,-2.17,0.00,17.54,-7.59,17.25,1.72,0.00,0.62,4.15,27.03,1100,1100,1100,1100,1005,1500,1538,11100,808
48341,9,1.66,1.80,-0.20,-0.097,0.105,0.858,-0.98,4.08,0.00,2.25,0.98,-1.83,0.00,3.42,-6.39,1.76,-8.19,0.00,-0.73,-1.91,3.66,1100,1100,1100,1100,1018,1500,1525,11112,840
48352,9,-0.51,-3.09,-1.17,0.001,-0.258,1.278,-4.88,2.91,0.00,2.25,4.88,-0.66,0.00,17.09,-2.31,17.59,0.78,0.00,1.08,1.42,16.65,1100,1100,1100,1100,1018,1500,1525,11100,840
48365,9,-0.36,1.06,-0.10,-0.036,0.157,0.819,-0.43,1.79,0.00,3.42,0.43,1.63,0.00,1.52,5.69,1.88,4.63,0.00,0.10,-0.60,2.37,1100,1100,1100,1100,1005,1500,1538,11100,840
48376,9,-1.99,-1.47,-1.84,0.191,-0.229,1.004,-4.85,4.10,0.00,3.42,4.85,-0.68,0.00,16.97,-2.38,18.96,-0.92,0.00,1.83,1.16,30.49,1100,1100,1100,1100,1005,1500,1538,11100,840
48389,9,-0.49,2.34,-1.39,0.114,0.039,0.853,-1.40,3.00,0.00,3.42,1.40,0.42,0.00,4.89,1.47,5.38,-0.87,0.00,0.33,-0.65,22.67,1100,1100,1100,1100,1005,1500,1538,11108,840
48401,9,-1.87,-1.71,-0.91,0.044,-0.021,1.055,-2.53,2.25,0.00,3.42,2.53,1.17,0.00,8.87,4.09,10.74,5.80,0.00,1.60,1.86,11.10,1100,1100,1100,1100,1005,1500,1538,11116,840
48412,9,-3.30,7.83,-0.53,0.027,-0.274,0.903,-3.93,1.09,0.00,3.42,3.93,2.33,0.00,13.77,8.14,17.07,0.31,0.00,1.86,-2.52,7.08,1100,1100,1100,1100,1005,1500,1538,11112,840
48425,9,-0.26,-0.86,0.67,-0.124,0.050,0.936,-1.85,1.98,0.00,3.42,1.85,1.44,0.00,6.49,5.04,6.75,5.90,0.00,0.76,1.00,-17.54,1100,1100,1100,1100,1005,1500,1538,11108,840
48437,9,6.94,7.63,-0.06,-0.284,-0.241,1.112,-2.99,-0.96,0.00,3.42,2.99,4.38,0.00,10.47,15.33,3.53,7.70,0.00,-3.01,-2.11,-4.77,1100,1100,1100,1100,1005,1500,1538,11116,840
48449,9,-3.17,-6.37,1.22,-0.058,0.099,0.956,-2.45,4.16,0.00,2.25,2.45,-1.91,0.00,8.57,-6.67,11.74,-0.29,0.00,1.88,2.15,-27.83,1100,1100,1100,1100,1018,1500,1525,11116,852
48461,9,6.79,-0.01,-2.23,-0.071,-0.072,1.272,-4.66,0.89,0.00,0.00,4.66,-0.89,0.00,16.32,-3.11,9.53,-3.09,0.00,-2.59,0.32,40.08,1100,1100,1100,1100,1035,1500,1508,11112,852
48472,9,-3.46,-4.24,-0.46,0.023,0.158,0.937,-1.69,2.43,0.00,0.00,1.69,-2.43,0.00,5.92,-8.49,9.39,-4.25,0.00,1.70,1.55,7.73,1100,1100,1100,1100,1035,1500,1508,11112,852
48485,9,4.40,-12.00,0.68,0.294,-0.055,1.004,-5.35,5.21,0.00,3.42,5.35,-1.79,0.00,18.73,-6.25,14.33,5.75,0.00,-1.07,5.65,-15.79,1100,1100,1100,1100,1005,1500,1538,11116,852
48496,9,-5.38,7.85,-0.52,-0.159,-0.314,0.992,-4.87,0.72,0.00,3.42,4.87,2.70,0.00,17.05,9.47,22.43,1.61,0.00,2.97,-3.50,12.10,1100,1100,1100,1100,1005,1500,1538,11116,852
48509,9,-1.45,-1.76,1.46,0.252,-0.092,0.963,-6.57,4.83,0.00,3.42,6.57,-1.41,0.00,23.00,-4.94,24.44,-3.18,0.00,1.98,0.49,-26.92,1100,1100,1100,1100,1005,1500,1538,11120,852
48521,9,4.18,11.34,0.71,-0.493,-0.295,1.325,-6.07,-0.60,0.00,3.42,6.07,4.02,0.00,21.24,14.07,17.06,2.73,0.00,-1.72,-4.22,-10.34,1100,1100,1100,1100,1005,1500,1538,11116,852
48533,9,-4.22,3.89,-0.74,-0.076,0.132,1.032,-1.65,0.56,0.00,3.42,1.65,2.86,0.00,5.78,10.03,10.00,6.14,0.00,2.63,-0.53,18.78,1100,1100,1100,1100,1005,1500,1538,11116,852
48545,9,0.02,1.32,-0.32,0.212,-0.201,0.837,-4.14,2.42,0.00,0.00,4.14,-2.42,0.00,14.50,-8.46,14.49,-9.78,0.00,0.53,0.40,5.98,1100,1100,1100,1100,1025,1500,1518,11120,847
48556,9,-5.68,0.34,-0.46,0.196,0.239,0.737,2.14,8.84,0.00,0.00,-2.14,-8.84,0.00,-7.50,-30.95,-1.82,-31.29,0.00,2.33,-1.46,8.33,1100,1100,1100,1100,1025,1500,1518,11116,847
48569,9,11.95,-1.74,0.43,0.050,-0.162,1.112,-2.77,8.36,0.00,3.42,2.77,-4.94,0.00,9.70,-17.28,-2.25,-15.55,0.00,-4.93,-0.12,-11.34,1100,1100,1100,1100,1005,1500,1538,11112,847
48581,9,-10.79,10.66,-1.22,-0.174,-0.524,1.062,-2.68,6.26,0.00,4.86,2.68,-1.40,0.00,9.37,-4.91,20.16,-15.56,0.00,5.29,-5.13,20.63,1100,1100,1100,1100,1000,1500,1554,11112,847
48592,9,0.26,-11.11,0.71,0.340,0.376,0.823,1.60,8.17,0.00,4.86,-1.60,-3.31,0.00,-5.59,-11.60,-5.85,-0.49,0.00,0.30,5.04,-11.72,1100,1100,1100,1100,1000,1500,1554,11116,847
48605,9,9.38,-3.68,0.38,0.233,0.169,0.735,2.65,12.42,0.00,0.00,-2.65,-12.42,0.00,-9.27,-43.47,-18.65,-39.80,0.00,-5.27,-0.33,-17.87,1100,1100,1100,1100,1035,1500,1508,11108,847
48616,9,-2.88,-7.45,-0.36,0.168,-0.198,0.971,-1.04,14.79,0.00,0.00,1.04,-14.79,0.00,3.65,-51.76,6.53,-44.30,0.00,2.06,-0.74,4.94,1100,1100,1100,1100,1035,1500,1508,11108,847
48629,9,0.25,-1.96,3.01,0.032,-0.349,0.929,-6.63,9.47,0.00,0.00,6.63,-9.47,0.00,23.19,-33.15,22.94,-31.19,0.00,0.67,-1.72,-64.74,1100,1100,1100,1100,1035,1500,1508,11116,847
48641,9,-11.40,9.18,-2.77,-0.077,0.160,1.129,-2.33,4.76,0.00,3.42,2.33,-1.34,0.00,8.14,-4.70,19.55,-13.88,0.00,5.81,-5.70,54.06,1100,1100,1100,1100,1005,1500,1538,11120,926
48652,9,3.26,-3.50,-0.51,0.020,0.033,1.085,-4.07,0.90,0.00,3.42,4.07,2.52,0.00,14.24,8.81,10.98,12.30,0.00,-0.50,1.56,19.32,1100,1100,1100,1100,1005,1500,1538,11125,926
48665,9,-2.74,6.32,-0.38,0.076,-0.132,1.010,-4.26,1.23,0.00,3.33,4.26,2.10,0.00,14.90,7.34,17.64,1.02,0.00,1.61,-2.52,7.35,1100,1100,1100,1100,1006,1500,1537,11133,926
48676,9,-0.22,-10.74,1.38,0.234,0.005,0.871,-4.83,9.99,0.00,3.33,4.83,-6.66,0.00,16.91,-23.32,17.13,-12.58,0.00,1.05,3.22,-17.27,1100,1100,1100,1100,1006,1500,1537,11129,926
48689,9,6.08,-3.08,2.41,-0.001,-0.175,0.846,-3.34,4.80,0.00,0.00,3.34,-4.80,0.00,11.69,-16.81,5.61,-13.72,0.00,-2.62,1.38,-47.77,1100,1100,1100,1100,1035,1500,1508,11112,926
48701,9,-2.42,0.81,-3.78,-0.038,-0.381,0.968,-3.99,8.40,0.00,3.33,3.99,-5.07,0.00,13.98,-17.74,16.39,-18.55,0.00,2.17,-2.16,76.26,1100,1100,1100,1100,1006,1500,1537,11112,926
48712,9,-4.10,-0.46,1.11,-0.097,-0.507,0.923,-5.83,11.78,0.00,3.33,5.83,-8.45,0.00,20.42,-29.58,24.52,-29.12,0.00,2.64,-2.05,-29.72,1100,1100,1100,1100,1006,1500,1537,11104,926
48725,9,0.61,7.15,-0.29,-0.027,0.383,1.030,1.11,6.81,0.00,0.00,-1.11,-6.81,0.00,-3.89,-23.83,-4.50,-30.98,0.00,-0.74,-4.86,-4.10,1100,1100,1100,1100,1035,1500,1508,11108,926
48736,9,8.09,-10.08,2.11,0.140,0.349,1.043,1.48,6.03,0.00,0.00,-1.48,-6.03,0.00,-5.19,-21.12,-13.28,-11.04,0.00,-3.75,3.44,-28.99,1100,1100,1100,1100,1035,1500,1508,11112,926
48749,9,-3.36,1.76,0.60,-0.079,-0.485,1.007,-4.51,3.64,0.00,0.00,4.51,-3.64,0.00,15.77,-12.72,19.13,-14.49,0.00,2.21,-1.06,-9.36,1100,1100,1100,1100,1035,1500,1508,11104,958
48761,9,-12.61,14.67,-1.44,-0.046,-0.424,1.188,-5.96,0.27,0.00,3.24,5.96,2.97,0.00,20.87,10.41,33.47,-4.25,0.00,6.89,-6.23,35.28,1100,1100,1100,1100,1007,1500,1536,11112,958
48772,9,-1.77,8.30,2.62,0.111,0.232,0.670,0.80,0.24,0.00,3.24,-0.80,3.00,0.00,-2.81,10.50,-1.04,2.20,0.00,0.68,-2.43,-51.87,1100,1100,1100,1100,1007,1500,1536,11100,958
48785,9,6.83,3.61,-0.52,0.098,0.223,0.987,-0.21,2.86,0.00,3.33,0.21,0.47,0.00,0.75,1.63,-6.08,-1.98,0.00,-3.19,-0.42,14.78,1100,1100,1100,1100,1006,1500,1537,11091,958
48796,9,3.14,-3.47,2.34,-0.062,0.164,1.044,0.15,5.30,0.00,3.33,-0.15,-1.97,0.00,-0.52,-6.91,-3.66,-3.43,0.00,-1.47,1.48,-34.04,1100,1100,1100,1100,1006,1500,1537,11104,958
48809,9,-3.99,-6.80,-0.05,0.352,0.064,0.731,-0.94,11.19,0.00,3.33,0.94,-7.86,0.00,3.28,-27.53,7.27,-20.72,0.00,2.30,1.26,0.20,1100,1100,1100,1100,1006,1500,1537,11108,958
48821,9,2.14,1.98,-3.56,0.204,-0.171,1.125,-1.71,9.29,0.00,0.00,1.71,-9.29,0.00,5.97,-32.51,3.83,-34.49,0.00,-0.47,-2.92,69.54,1100,1100,1100,1100,1034,1500,1509,11100,958
48832,9,-8.21,0.84,0.62,-0.074,-0.376,0.675,-5.70,8.08,0.00,0.00,5.70,-8.08,0.00,19.96,-28.28,28.18,-29.12,0.00,4.42,-2.41,-17.26,1100,1100,1100,1100,1034,1500,1509,11104,958
48845,9,-0.71,7.59,0.29,0.004,-0.092,1.186,-5.33,8.12,0.00,0.00,5.33,-8.12,0.00,18.65,-28.41,19.37,-35.99,0.00,1.52,-5.65,-2.06,1100,1100,1100,1100,1035,1500,1508,11100,1202
48856,9,3.36,-4.38,2.32,-0.294,0.053,1.116,-2.86,-2.76,0.00,0.00,2.86,2.76,0.00,10.02,9.66,6.66,14.04,0.00,-1.70,2.58,-35.11,1100,1100,1100,1100,1035,1500,1508,11100,1202
48869,9,1.93,-8.56,-1.04,0.080,0.294,0.993,0.20,0.13,0.00,0.00,-0.20,-0.13,0.00,-0.70,-0.44,-2.63,8.11,0.00,-0.78,4.45,16.06,1100,1100,1100,1100,1035,1500,1508,11108,1202
48881,9,13.60,3.33,-1.90,-0.149,-0.362,1.236,-4.93,-3.48,0.00,3.24,4.93,6.72,0.00,17.26,23.53,3.67,20.21,0.00,-5.86,0.39,33.02,1100,1100,1100,1100,1007,1500,1536,11100,1202
48892,9,-2.68,6.82,2.18,-0.361,-0.261,0.900,-4.64,-1.73,0.00,3.24,4.64,4.97,0.00,16.24,17.38,18.93,10.57,0.00,1.81,-2.09,-50.66,1100,1100,1100,1100,1007,1500,1536,11095,1202
48905,9,0.98,1.59,0.28,-0.116,0.092,1.523,-2.73,-2.53,0.00,3.24,2.73,5.77,0.00,9.56,20.20,8.58,18.61,0.00,0.50,1.74,-1.58,1100,1100,1100,1100,1007,1500,1536,11087,1202
48916,9,-11.02,8.46,1.29,-0.021,-0.026,0.797,-0.68,2.40,0.00,3.24,0.68,0.84,0.00,2.37,2.93,13.39,-5.53,0.00,4.76,-3.21,-16.01,1100,1100,1100,1100,1007,1500,1536,11091,1202
48929,9,-3.64,-9.40,-1.02,0.268,-0.029,0.905,-3.26,5.08,0.00,0.00,3.26,-5.08,0.00,11.41,-17.77,15.05,-8.37,0.00,2.45,3.96,22.75,1100,1100,1100,1100,1032,1500,1511,11095,1202
48941,9,11.18,3.59,-0.48,-0.369,-0.479,1.234,-6.66,-2.87,0.00,3.24,6.66,6.11,0.00,23.30,21.40,12.13,17.81,0.00,-4.68,0.54,13.47,1100,1100,1100,1100,1007,1500,1536,11091,809
48952,9,-0.50,-1.98,1.77,0.040,0.405,0.876,1.99,8.16,0.00,3.24,-1.99,-4.92,0.00,-6.97,-17.23,-6.47,-15.25,0.00,-0.25,-0.59,-37.14,1100,1100,1100,1100,1007,1500,1536,11100,809
48965,9,6.05,-13.51,0.89,0.157,0.130,1.209,-4.26,7.11,0.00,0.00,4.26,-7.11,0.00,14.91,-24.88,8.86,-11.37,0.00,-1.62,5.07,-14.89,1100,1100,1100,1100,1032,1500,1511,11095,809
48977,9,-8.61,-0.44,-2.96,0.065,-0.422,0.625,-6.21,6.19,0.00,0.00,6.21,-6.19,0.00,21.73,-21.66,30.34,-21.22,0.00,4.19,-0.71,54.24,1100,1100,1100,1100,1032,1500,1511,11095,809
48989,9,-4.76,2.79,-2.67,0.220,0.068,0.792,-3.33,8.40,0.00,0.00,3.33,-8.40,0.00,11.65,-29.41,16.41,-32.20,0.00,3.39,-3.72,47.48,1100,1100,1100,1100,1034,1500,1509,11104,809
49001,9,14.14,-3.20,2.25,0.170,-0.115,1.003,-6.90,8.23,0.00,0.00,6.90,-8.23,0.00,24.17,-28.80,10.02,-25.60,0.00,-6.23,-0.67,-54.12,1100,1100,1100,1100,1032,1500,1511,11112,809
49012,9,-10.06,-3.19,-0.45,0.172,0.195,0.699,-0.09,9.57,0.00,0.00,0.09,-9.57,0.00,0.31,-33.50,10.38,-30.31,0.00,4.67,-1.61,8.77,1100,1100,1100,1100,1032,1500,1511,11100,809
49025,9,8.37,-10.74,1.34,0.118,-0.023,1.099,-4.57,6.77,0.00,0.00,4.57,-6.77,0.00,16.00,-23.69,7.63,-12.95,0.00,-2.75,3.04,-25.67,1100,1100,1100,1100,1032,1500,1511,11108,809
49036,9,0.29,9.41,-1.68,-0.555,-0.342,1.279,-4.87,-2.63,0.00,0.00,4.87,2.63,0.00,17.06,9.21,16.76,-0.20,0.00,-0.11,-3.57,22.81,1100,1100,1100,1100,1032,1500,1511,11104,809
49049,9,-1.80,-4.77,-0.28,0.296,0.137,0.911,-2.88,3.91,0.00,3.24,2.88,-0.67,0.00,10.08,-2.34,11.87,2.43,0.00,1.97,1.81,2.70,1100,1100,1100,1100,1007,1500,1536,11100,809
49061,9,0.03,8.75,1.52,0.007,0.038,1.116,-3.53,2.60,0.00,2.79,3.53,0.19,0.00,12.35,0.66,12.32,-8.09,0.00,0.23,-3.82,-37.25,1100,1100,1100,1100,1012,1500,1531,11100,809
49072,9,-7.67,0.06,0.36,-0.041,0.118,1.085,-0.86,3.15,0.00,2.79,0.86,-0.36,0.00,3.02,-1.25,10.69,-1.31,0.00,3.50,0.12,-5.24,1100,1100,1100,1100,1012,1500,1531,11095,809
49085,9,8.78,-13.82,1.24,-0.053,-0.129,1.128,-4.00,-2.30,0.00,0.00,4.00,2.30,0.00,13.99,8.05,5.20,21.87,0.00,-3.29,8.00,-14.39,1100,1100,1100,1100,1033,1500,1510,11095,809
49096,9,1.68,12.04,-1.82,-0.568,-0.482,1.264,-4.16,-3.71,0.00,0.00,4.16,3.71,0.00,14.55,12.98,12.87,0.94,0.00,-0.86,-4.29,36.88,1100,1100,1100,1100,1033,1500,1510,11100,809
49109,9,-5.99,2.32,1.70,-0.036,-0.235,1.221,-4.08,1.20,0.00,3.15,4.08,1.95,0.00,14.27,6.83,20.26,4.52,0.00,3.97,-0.59,-35.29,1100,1100,1100,1100,1008,1500,1535,11100,809
49121,9,4.79,1.02,0.61,-0.020,-0.125,0.837,-4.76,-0.18,0.00,3.15,4.76,3.33,0.00,16.65,11.64,11.86,10.63,0.00,-1.77,1.33,-22.27,1100,1100,1100,1100,1008,1500,1535,11100,809
49132,9,-6.14,4.14,-2.70,0.065,0.206,0.993,-0.60,2.35,0.00,3.15,0.60,0.80,0.00,2.10,2.80,8.24,-1.34,0.00,3.17,-2.10,60.46,1100,1100,1100,1100,1008,1500,1535,11108,809
49145,9,2.08,-4.97,2.47,0.111,-0.242,0.885,-6.89,8.40,0.00,3.15,6.89,-5.25,0.00,24.12,-18.38,22.05,-13.41,0.00,-0.02,1.31,-46.13,1100,1100,1100,1100,1008,1500,1535,11112,813
49156,9,-1.95,11.04,-2.81,0.079,-0.051,1.023,-3.34,9.47,0.00,3.15,3.34,-6.32,0.00,11.69,-22.14,13.64,-33.18,0.00,0.76,-6.15,52.81,1100,1100,1100,1100,1008,1500,1535,11104,813
49169,9,-0.71,-3.09,0.65,-0.004,-0.042,1.100,-4.27,8.21,0.00,1.98,4.27,-6.23,0.00,14.94,-21.80,15.65,-18.71,0.00,1.19,-0.14,-5.45,1100,1100,1100,1100,1021,1500,1522,11100,813
49181,9,-0.93,-9.73,1.46,0.025,-0.366,0.741,-8.43,7.71,0.00,3.15,8.43,-4.56,0.00,29.49,-15.95,30.42,-6.22,0.00,1.28,3.89,-33.56,1100,1100,1100,1100,1008,1500,1535,11104,813
49192,9,-5.29,11.73,-3.36,-0.185,-0.109,1.258,-3.22,6.92,0.00,3.15,3.22,-3.77,0.00,11.27,-13.18,16.56,-24.91,0.00,3.03,-6.95,67.31,1100,1100,1100,1100,1008,1500,1535,11104,813
49205,9,1.40,5.39,2.92,0.086,0.172,0.953,-1.87,4.21,0.00,0.00,1.87,-4.21,0.00,6.54,-14.73,5.14,-20.12,0.00,-0.27,-3.26,-50.77,1100,1100,1100,1100,1033,1500,1510,11095,813
49216,9,-2.39,1.69,-1.15,0.309,0.000,0.759,-1.64,7.13,0.00,0.00,1.64,-7.13,0.00,5.73,-24.96,8.12,-26.65,0.00,1.47,-1.54,25.09,1100,1100,1100,1100,1033,1500,1510,11091,813
49229,9,-2.72,-4.08,-2.44,0.129,0.280,0.980,-1.16,4.89,0.00,3.15,1.16,-1.74,0.00,4.05,-6.10,6.77,-2.02,0.00,1.31,1.78,55.60,1100,1100,1100,1100,1008,1500,1535,11095,813
49241,9,3.10,-9.53,1.81,0.088,0.153,1.125,-1.43,5.67,0.00,3.15,1.43,-2.52,0.00,5.01,-8.82,1.91,0.72,0.00,-1.45,4.55,-48.42,1100,1100,1100,1100,1008,1500,1535,11100,808
49253,9,4.06,4.93,0.64,0.123,-0.354,1.081,-7.62,2.52,0.00,3.15,7.62,0.63,0.00,26.68,2.22,22.62,-2.71,0.00,-1.34,-0.98,-13.10,1100,1100,1100,1100,1008,1500,1535,11104,808
49265,9,1.28,5.00,4.70,-0.068,-0.251,1.036,-6.88,1.50,0.00,3.33,6.88,1.83,0.00,24.09,6.41,22.81,1.41,0.00,0.23,-1.37,-82.92,1100,1100,1100,1100,1006,1500,1537,11095,808
49276,9,-0.28,9.36,-1.92,-0.185,0.053,1.267,-4.82,0.26,0.00,3.33,4.82,3.07,0.00,16.88,10.73,17.15,1.37,0.00,1.02,-2.98,39.81,1100,1100,1100,1100,1006,1500,1537,11091,808
49289,9,-1.75,6.12,-5.93,-0.231,-0.452,1.002,-6.18,-1.51,0.00,3.15,6.18,4.66,0.00,21.62,16.31,23.37,10.19,0.00,1.79,-1.35,119.79,1100,1100,1100,1100,1008,1500,1535,11100,808
49301,9,-10.64,14.38,1.70,-0.536,-0.362,1.100,-6.58,-4.55,0.00,0.00,6.58,4.55,0.00,23.03,15.92,33.67,1.54,0.00,5.75,-5.40,-35.81,1100,1100,1100,1100,1033,1500,1510,11100,808
49312,9,11.55,-8.58,0.62,0.023,0.060,1.344,-4.69,-2.29,0.00,0.00,4.69,2.29,0.00,16.42,8.03,4.87,16.61,0.00,-4.66,5.15,-10.57,1100,1100,1100,1100,1033,1500,1510,11095,808
49325,9,-3.77,-3.52,4.15,0.074,0.286,0.777,-0.65,0.18,0.00,0.00,0.65,-0.18,0.00,2.27,-0.64,6.05,2.88,0.00,1.27,1.80,-74.98,1100,1100,1100,1100,1033,1500,1510,11100,808
49336,9,-1.07,-8.97,1.60,0.190,-0.357,1.034,-7.42,2.21,0.00,0.00,7.42,-2.21,0.00,25.96,-7.75,27.03,1.22,0.00,1.81,3.83,-26.80,1100,1100,1100,1100,1033,1500,1510,11100,808
49349,9,11.38,5.77,-2.14,-0.295,-0.461,1.392,-6.36,-0.69,0.00,0.00,6.36,0.69,0.00,22.27,2.40,10.89,-3.37,0.00,-4.72,-2.15,46.57,1100,1100,1100,1100,1033,1500,1510,11104,808
49361,9,-4.09,6.24,-2.05,-0.371,0.103,0.988,-2.99,-0.03,0.00,0.00,2.99,0.03,0.00,10.48,0.12,14.57,-6.12,0.00,2.39,-3.03,44.78,1100,1100,1100,1100,1036,1500,1507,11100,808
49372,9,-5.70,1.02,0.98,0.111,-0.080,1.298,-6.56,0.80,0.00,0.00,6.56,-0.80,0.00,22.95,-2.80,28.64,-3.82,0.00,4.14,0.03,-13.38,1100,1100,1100,1100,1036,1500,1507,11104,808
49385,9,-1.60,-2.16,1.83,0.012,-0.051,0.700,-2.56,-0.78,0.00,3.06,2.56,3.84,0.00,8.94,13.43,10.55,15.59,0.00,0.27,2.66,-28.58,1100,1100,1100,1100,1009,1500,1534,11104,808
49396,9,3.78,-2.08,-1.80,0.192,0.316,0.935,0.13,1.11,0.00,3.06,-0.13,1.95,0.00,-0.45,6.82,-4.23,8.90,0.00,-1.64,2.46,41.02,1100,1100,1100,1100,1009,1500,1534,11104,808
49409,9,19.19,-0.06,-0.46,-0.268,-0.225,1.340,-5.61,-1.67,0.00,3.06,5.61,4.73,0.00,19.63,16.56,0.44,16.61,0.00,-8.76,2.41,10.32,1100,1100,1100,1100,1009,1500,1534,11100,808
49421,9,-5.47,-3.95,0.84,-0.302,0.158,1.080,-0.16,-3.17,0.00,3.06,0.16,6.23,0.00,0.57,21.81,6.04,25.76,0.00,2.40,3.30,-12.68,1100,1100,1100,1100,1009,1500,1534,11100,808
49432,9,2.52,-13.42,-0.11,0.089,0.097,1.083,-3.38,-2.54,0.00,3.06,3.38,5.60,0.00,11.82,19.59,9.30,33.01,0.00,-0.06,7.48,5.23,1100,1100,1100,1100,1009,1500,1534,11100,808
49445,9,-5.81,12.52,-0.88,-0.136,-0.549,1.045,-3.51,-0.36,0.00,0.00,3.51,0.36,0.00,12.27,1.26,18.08,-11.26,0.00,2.61,-6.21,19.92,1100,1100,1100,1100,1034,1500,1509,11100,808
49457,9,-10.16,0.79,-1.34,0.546,-0.060,0.628,-2.81,10.51,0.00,0.00,2.81,-10.51,0.00,9.84,-36.78,19.99,-37.57,0.00,5.91,-2.63,29.24,1100,1100,1100,1100,1034,1500,1509,11095,808
49469,9,15.22,-10.06,0.33,0.326,0.018,0.803,-4.25,11.05,0.00,0.00,4.25,-11.05,0.00,14.88,-38.68,-0.35,-28.62,0.00,-6.71,2.84,-17.74,1100,1100,1100,1100,1032,1500,1511,11100,808
49481,9,-14.21,2.89,0.19,0.134,0.625,0.778,3.69,10.52,0.00,3.06,-3.69,-7.46,0.00,-12.93,-26.12,1.28,-29.01,0.00,6.01,-4.06,-7.70,1100,1100,1100,1100,1009,1500,1534,11104,808
49492,9,14.73,-24.66,3.33,0.386,0.146,0.962,-3.48,8.95,0.00,3.06,3.48,-5.89,0.00,12.19,-20.60,-2.54,4.06,0.00,-6.29,9.87,-62.10,1100,1100,1100,1100,1009,1500,1534,11095,808
49505,9,12.48,-11.83,0.70,-0.044,-0.466,0.984,-6.74,10.42,0.00,0.00,6.74,-10.42,0.00,23.58,-36.48,11.10,-24.65,0.00,-5.68,2.49,-12.78,1100,1100,1100,1100,1034,1500,1509,11095,808
49516,9,-9.63,-0.76,-1.47,-0.304,-0.387,1.166,-6.06,5.91,0.00,0.00,6.06,-5.91,0.00,21.21,-20.68,30.84,-19.93,0.00,5.81,-2.36,30.84,1100,1100,1100,1100,1034,1500,1509,11091,808
49529,9,-0.20,6.44,2.47,0.076,-0.483,0.986,-9.16,6.52,0.00,3.06,9.16,-3.46,0.00,32.07,-12.13,32.27,-18.56,0.00,1.18,-4.09,-60.87,1100,1100,1100,1100,1009,1500,1534,11083,808
49541,9,-0.72,5.08,-1.87,-0.125,0.152,1.104,-1.65,5.72,0.00,0.00,1.65,-5.72,0.00,5.78,-20.02,6.50,-25.10,0.00,-0.12,-4.65,31.17,1100,1100,1100,1100,1034,1500,1509,11083,808
49552,9,5.61,-17.87,1.40,0.119,0.113,0.875,-5.44,8.32,0.00,0.00,5.44,-8.32,0.00,19.04,-29.13,13.42,-11.26,0.00,-1.74,5.86,-18.69,1100,1100,1100,1100,1034,1500,1509,11083,808
49565,9,6.51,3.86,-0.58,-0.211,-0.198,1.051,-4.47,3.00,0.00,0.00,4.47,-3.00,0.00,15.63,-10.50,9.12,-14.36,0.00,-3.04,-2.97,12.26,1100,1100,1100,1100,1034,1500,1509,11083,808
49576,9,-5.28,-10.25,-0.49,0.066,-0.044,0.919,-3.17,3.84,0.00,0.00,3.17,-3.84,0.00,11.08,-13.45,16.36,-3.20,0.00,3.38,3.60,11.90,1100,1100,1100,1100,1034,1500,1509,11100,808
49589,9,4.69,-5.91,3.71,-0.093,0.005,1.140,-2.79,1.24,0.00,3.51,2.79,2.27,0.00,9.76,7.93,5.08,13.85,0.00,-1.80,3.19,-82.27,1100,1100,1100,1100,1004,1500,1539,11091,808
49601,9,-1.01,8.14,-1.13,-0.132,-0.132,0.859,-2.53,1.67,0.00,3.06,2.53,1.39,0.00,8.86,4.88,9.87,-3.26,0.00,0.55,-4.08,24.12,1100,1100,1100,1100,1009,1500,1534,11091,808
49612,9,0.62,9.27,0.44,-0.275,-0.419,1.332,-4.12,-2.88,0.00,3.06,4.12,5.94,0.00,14.41,20.80,13.78,11.53,0.00,0.58,-2.83,6.62,1100,1100,1100,1100,1009,1500,1534,11091,808
49625,9,-3.88,15.61,-1.31,-0.505,-0.252,1.158,-4.26,-6.50,0.00,3.06,4.26,9.56,0.00,14.91,33.47,18.79,17.85,0.00,2.49,-4.53,30.12,1100,1100,1100,1100,1009,1500,1534,11095,808
49636,9,-8.24,4.10,-3.76,0.031,0.034,1.126,-2.43,-5.66,0.00,3.06,2.43,8.72,0.00,8.49,30.53,16.73,26.43,0.00,4.33,1.43,74.53,1100,1100,1100,1100,1009,1500,1534,11091,808
49649,9,1.34,11.20,1.98,-0.307,0.194,1.053,-1.76,-8.00,0.00,2.97,1.76,10.97,0.00,6.16,38.41,4.82,27.21,0.00,-0.67,-1.20,-43.37,1100,1100,1100,1100,1010,1500,1533,11100,809
49661,9,11.37,-7.00,2.13,0.073,0.061,0.901,-2.53,-1.75,0.00,0.00,2.53,1.75,0.00,8.85,6.12,-2.51,13.11,0.00,-4.99,4.95,-42.28,1100,1100,1100,1100,1029,1500,1520,11100,809
49672,9,4.70,-7.84,3.29,-0.294,-0.260,1.192,-2.49,-4.10,0.00,0.00,2.49,4.10,0.00,8.72,14.35,4.01,22.19,0.00,-2.17,5.67,-44.13,1100,1100,1100,1100,1029,1500,1520,11100,809
49685,9,1.74,-8.90,1.40,-0.154,-0.311,1.144,-3.77,-2.61,0.00,3.69,3.77,6.30,0.00,13.19,22.04,11.45,30.94,0.00,-0.48,5.56,-19.22,1100,1100,1100,1100,1002,1500,1541,11104,809
49696,9,-2.00,5.11,-2.50,-0.038,-0.127,1.164,-4.61,0.15,0.00,3.69,4.61,3.54,0.00,16.13,12.41,18.13,7.30,0.00,1.49,-1.93,54.84,1100,1100,1100,1100,1002,1500,1541,11108,809
49709,9,-1.26,3.15,1.27,-0.047,-0.250,0.701,-5.93,1.89,0.00,2.97,5.93,1.08,0.00,20.76,3.78,22.02,0.64,0.00,1.19,-1.12,-24.28,1100,1100,1100,1100,1010,1500,1533,11112,809
49721,9,3.58,1.41,-3.21,0.120,0.120,1.156,-4.86,7.24,0.00,2.97,4.86,-4.27,0.00,17.01,-14.94,13.44,-16.36,0.00,-0.85,-1.99,61.17,1100,1100,1100,1100,1010,1500,1533,11104,809
49732,9,-1.14,-12.09,1.88,0.114,0.202,0.919,-2.47,8.81,0.00,2.97,2.47,-5.84,0.00,8.63,-20.43,9.77,-8.34,0.00,0.56,4.12,-33.63,1100,1100,1100,1100,1010,1500,1533,11100,809
49745,9,-1.68,-8.53,1.83,0.324,0.215,0.701,0.67,9.21,0.00,3.69,-0.67,-5.52,0.00,-2.34,-19.31,-0.66,-10.77,0.00,0.94,3.20,-39.84,1100,1100,1100,1100,1002,1500,1541,11100,809
49756,9,13.94,-1.87,-0.26,-0.112,-0.417,1.189,-4.74,4.57,0.00,3.69,4.74,-0.88,0.00,16.58,-3.09,2.64,-1.22,0.00,-6.08,0.57,4.21,1100,1100,1100,1100,1002,1500,1541,11108,809
49769,9,1.62,2.47,-0.61,-0.474,-0.293,1.040,-0.57,3.66,0.00,2.97,0.57,-0.69,0.00,2.00,-2.40,0.38,-4.87,0.00,-0.80,-1.73,9.01,1100,1100,1100,1100,1010,1500,1533,11095,809
49781,9,-7.76,7.66,-0.90,-0.238,-0.059,1.380,-3.00,1.14,0.00,3.69,3.00,2.55,0.00,10.49,8.93,18.24,1.27,0.00,4.87,-3.50,15.97,1100,1100,1100,1100,1002,1500,1541,11095,809
49792,9,-11.26,10.88,0.17,0.333,-0.390,0.892,-2.00,7.17,0.00,3.69,2.00,-3.48,0.00,7.00,-12.17,18.27,-23.05,0.00,5.37,-6.27,-0.93,1100,1100,1100,1100,1002,1500,1541,11100,809
49805,9,-4.59,-2.58,-0.59,0.335,0.217,0.678,1.09,11.66,0.00,2.97,-1.09,-8.69,0.00,-3.82,-30.43,0.76,-27.85,0.00,2.22,-0.87,6.63,1100,1100,1100,1100,1010,1500,1533,11087,809
49816,9,22.67,-15.29,-1.87,0.354,0.022,0.914,-2.96,15.65,0.00,2.97,2.96,-12.68,0.00,10.35,-44.39,-12.31,-29.10,0.00,-10.19,4.32,29.04,1100,1100,1100,1100,1010,1500,1533,11083,809
49829,9,-6.07,-1.65,0.79,-0.033,0.143,0.852,2.77,15.90,0.00,3.69,-2.77,-12.21,0.00,-9.70,-42.75,-3.64,-41.10,0.00,2.28,-3.25,-22.47,1100,1100,1100,1100,1002,1500,1541,11087,809
49841,9,-0.39,-11.28,0.65,0.205,-0.036,1.075,-2.34,12.22,0.00,3.33,2.34,-8.89,0.00,8.19,-31.10,8.59,-19.82,0.00,1.38,2.14,-17.79,1100,1100,1100,1100,1006,1500,1537,11083,809
49853,9,-1.75,9.82,-0.85,0.047,-0.408,0.846,-4.43,7.85,0.00,3.33,4.43,-4.52,0.00,15.50,-15.83,17.25,-25.64,0.00,0.76,-6.08,12.94,1100,1100,1100,1100,1006,1500,1537,11100,809
49865,9,-11.58,0.69,-0.39,0.273,-0.204,0.752,-5.08,14.38,0.00,3.69,5.08,-10.69,0.00,17.79,-37.43,29.38,-38.12,0.00,6.69,-3.38,3.62,1100,1100,1100,1100,1002,1500,1541,11095,809
49876,9,5.85,8.21,-0.56,-0.137,-0.179,1.284,-5.95,11.29,0.00,3.69,5.95,-7.60,0.00,20.81,-26.60,14.96,-34.81,0.00,-1.82,-5.64,5.82,1100,1100,1100,1100,1002,1500,1541,11087,809
49889,9,-12.85,5.37,-1.44,-0.007,0.325,0.803,3.24,8.77,0.00,2.25,-3.24,-6.52,0.00,-11.35,-22.80,1.50,-28.18,0.00,5.41,-4.05,27.48,1100,1100,1100,1100,1018,1500,1525,11083,809
49901,9,1.25,-15.21,0.66,0.820,0.150,0.733,-1.18,15.17,0.00,3.60,1.18,-11.57,0.00,4.13,-40.51,2.88,-25.30,0.00,0.27,4.79,-9.22,1100,1100,1100,1100,1003,1500,1540,11091,809
49912,9,4.87,2.74,-0.47,-0.208,-0.515,0.948,-0.42,9.92,0.00,3.60,0.42,-6.32,0.00,1.46,-22.12,-3.42,-24.86,0.00,-2.72,-2.98,0.96,1100,1100,1100,1100,1003,1500,1540,11095,809
49925,9,-7.20,0.36,-1.05,0.100,0.243,0.754,3.18,11.77,0.00,3.60,-3.18,-8.17,0.00,-11.14,-28.58,-3.94,-28.94,0.00,3.45,-2.52,22.35,1100,1100,1100,1100,1003,1500,1540,11095,809
49936,9,4.65,-1.47,0.45,0.098,-0.112,1.167,-2.26,7.36,0.00,3.60,2.26,-3.76,0.00,7.89,-13.15,3.24,-11.68,0.00,-1.56,-0.43,-6.69,1100,1100,1100,1100,1003,1500,1540,11091,809
49949,9,-5.76,12.26,-1.06,0.145,-0.384,0.864,-3.55,13.16,0.00,2.88,3.55,-10.28,0.00,12.44,-35.99,18.19,-48.25,0.00,2.49,-8.14,20.06,1100,1100,1100,1100,1012,1500,1532,11083,808
49961,9,-1.69,-0.07,0.08,0.183,-0.024,0.772,-4.57,11.97,0.00,2.79,4.57,-9.18,0.00,15.99,-32.15,17.68,-32.08,0.00,1.97,-1.97,-2.34,1100,1100,1100,1100,1012,1500,1531,11095,808
49972,9,5.39,0.96,0.22,-0.093,0.003,1.081,-4.93,5.90,0.00,2.79,4.93,-3.11,0.00,17.26,-10.88,11.87,-11.84,0.00,-2.42,-0.84,-8.08,1100,1100,1100,1100,1012,1500,1531,11100,808
49985,9,-5.83,-8.34,-2.98,0.378,0.350,0.851,0.80,10.25,0.00,3.24,-0.80,-7.01,0.00,-2.80,-24.55,3.03,-16.21,0.00,2.82,2.37,59.94,1100,1100,1100,1100,1007,1500,1536,11104,808
49996,9,4.32,-4.66,1.88,0.219,0.054,0.954,-3.39,8.26,0.00,3.24,3.39,-5.02,0.00,11.85,-17.56,7.53,-12.90,0.00,-1.45,1.74,-36.34,1100,1100,1100,1100,1007,1500,1536,11100,808
50009,9,-0.09,8.82,-0.95,0.029,-0.101,0.887,-1.71,6.29,0.00,3.60,1.71,-2.69,0.00,5.98,-9.41,6.07,-18.23,0.00,-0.19,-4.16,2.17,1100,1100,1100,1100,1003,1500,1540,11091,808
50021,9,2.02,-5.84,-0.48,-0.005,-0.047,1.059,-1.43,3.39,0.00,2.88,1.43,-0.51,0.00,5.01,-1.78,2.99,4.06,0.00,-0.65,2.42,3.07,1100,1100,1100,1100,1011,1500,1532,11091,808
50032,9,6.32,-8.19,1.27,-0.219,-0.327,1.039,-5.35,1.36,0.00,2.88,5.35,1.52,0.00,18.74,5.31,12.42,13.50,0.00,-2.43,3.86,-37.97,1100,1100,1100,1100,1011,1500,1532,11095,808
50045,9,-8.03,3.37,-3.72,-0.460,-0.208,1.121,-4.35,0.60,0.00,3.60,4.35,3.00,0.00,15.23,10.49,23.26,7.12,0.00,4.40,-2.38,71.60,1100,1100,1100,1100,1003,1500,1540,11104,809
50056,9,-1.66,4.82,-0.16,0.226,-0.041,0.860,-4.09,3.01,0.00,3.60,4.09,0.59,0.00,14.31,2.06,15.97,-2.76,0.00,1.41,-3.11,1.26,1100,1100,1100,1100,1003,1500,1540,11100,809
50069,9,-5.96,6.27,-1.16,0.459,-0.103,0.889,-4.21,9.75,0.00,2.88,4.21,-6.87,0.00,14.72,-24.04,20.68,-30.32,0.00,3.47,-5.01,13.42,1100,1100,1100,1100,1011,1500,1532,11100,809
50081,9,2.43,-16.36,-0.48,0.493,0.322,0.785,2.21,15.02,0.00,0.00,-2.21,-15.02,0.00,-7.72,-52.58,-10.15,-36.22,0.00,-1.65,4.76,4.89,1100,1100,1100,1100,1033,1500,1510,11100,809
50092,9,-0.68,-0.57,2.28,-0.028,-0.202,1.032,0.85,11.67,0.00,0.00,-0.85,-11.67,0.00,-2.97,-40.83,-2.29,-40.26,0.00,0.34,-2.55,-56.47,1100,1100,1100,1100,1033,1500,1510,11100,809
50105,9,6.09,7.56,-0.39,-0.289,-0.380,1.329,-0.55,8.22,0.00,3.60,0.55,-4.62,0.00,1.92,-16.16,-4.17,-23.71,0.00,-2.61,-4.79,4.80,1100,1100,1100,1100,1003,1500,1540,11095,809
50116,9,1.79,6.03,3.23,0.054,-0.002,1.109,1.34,12.23,0.00,3.60,-1.34,-8.63,0.00,-4.69,-30.21,-6.48,-36.25,0.00,-1.04,-3.79,-63.78,1100,1100,1100,1100,1003,1500,1540,11087,809
50129,9,-1.05,-2.22,-1.62,0.089,-0.069,1.095,-1.33,9.44,0.00,3.60,1.33,-5.84,0.00,4.67,-20.44,5.71,-18.22,0.00,1.08,0.45,28.12,1100,1100,1100,1100,1003,1500,1540,11087,809
50141,9,-6.41,-0.11,-4.40,-0.087,-0.079,1.053,-1.80,2.19,0.00,3.60,1.80,1.41,0.00,6.31,4.93,12.71,5.04,0.00,3.23,1.54,94.58,1100,1100,1100,1100,1003,1500,1540,11091,809
50152,9,3.47,7.76,1.93,-0.397,0.101,1.073,-0.62,-6.56,0.00,3.60,0.62,10.16,0.00,2.16,35.54,-1.31,27.79,0.00,-1.83,0.34,-43.61,1100,1100,1100,1100,1003,1500,1540,11083,809
50165,9,7.04,-4.45,0.32,0.038,-0.328,1.167,-2.83,-0.57,0.00,2.79,2.83,3.36,0.00,9.91,11.75,2.87,16.20,0.00,-2.80,4.58,-15.78,1100,1100,1100,1100,1012,1500,1531,11100,809
50177,9,0.13,-6.19,2.94,0.053,-0.285,0.932,-3.74,8.29,0.00,2.79,3.74,-5.50,0.00,13.09,-19.25,12.96,-13.06,0.00,0.08,2.43,-53.32,1100,1100,1100,1100,1012,1500,1531,11095,809
50189,9,-5.14,-2.28,0.45,-0.065,-0.220,1.060,-3.55,9.35,0.00,2.97,3.55,-6.38,0.00,12.42,-22.33,17.56,-20.05,0.00,3.39,-0.76,-14.44,1100,1100,1100,1100,1010,1500,1533,11087,809
50201,9,0.90,5.36,-5.11,-0.076,-0.297,1.052,-3.80,4.03,0.00,2.79,3.80,-1.24,0.00,13.29,-4.34,12.39,-9.70,0.00,-0.13,-3.44,102.17,1100,1100,1100,1100,1012,1500,1531,11091,809
50212,9,-7.76,3.71,-0.35,-0.230,-0.118,0.920,-2.20,6.52,0.00,2.79,2.20,-3.73,0.00,7.70,-13.04,15.46,-16.75,0.00,3.80,-4.00,1.05,1100,1100,1100,1100,1012,1500,1531,11100,809
50225,9,1.71,-6.43,-0.57,0.543,0.254,0.892,-1.96,11.05,0.00,3.51,1.96,-7.54,0.00,6.85,-26.37,5.14,-19.94,0.00,-0.04,0.57,2.26,1100,1100,1100,1100,1005,1500,1539,11091,809
50236,9,0.64,-8.78,3.99,0.315,-0.036,0.695,-3.58,8.97,0.00,3.51,3.58,-5.46,0.00,12.53,-19.11,11.89,-10.33,0.00,-0.06,1.90,-75.95,1100,1100,1100,1100,1005,1500,1539,11087,809
50249,9,0.53,-8.18,0.90,0.073,0.152,0.827,-1.78,7.27,0.00,3.51,1.78,-3.76,0.00,6.23,-13.16,5.71,-4.99,0.00,0.34,2.00,-22.68,1100,1100,1100,1100,1005,1500,1539,11100,809
50261,9,14.22,4.50,-1.51,-0.277,-0.159,1.342,-4.36,-1.38,0.00,2.70,4.36,4.08,0.00,15.26,14.27,1.04,9.77,0.00,-6.33,-1.54,37.22,1100,1100,1100,1100,1014,1500,1530,11100,809
50273,9,-3.90,8.55,1.72,-0.472,-0.084,1.151,-1.53,-2.97,0.00,2.70,1.53,5.67,0.00,5.36,19.86,9.26,11.30,0.00,2.01,-2.91,-31.32,1100,1100,1100,1100,1014,1500,1530,11100,809
50285,9,-5.50,2.19,-0.63,-0.210,-0.297,1.461,-5.89,-2.48,0.00,0.00,5.89,2.48,0.00,20.62,8.69,26.12,6.50,0.00,4.10,0.45,18.57,1100,1100,1100,1100,1024,1500,1519,11104,809
50296,9,-5.46,8.24,-0.09,0.078,-0.076,0.913,-3.46,-0.07,0.00,0.00,3.46,0.07,0.00,12.12,0.25,17.58,-7.99,0.00,2.39,-2.99,4.99,1100,1100,1100,1100,1024,1500,1519,11100,809
50309,9,-2.56,-3.61,0.92,0.077,0.017,0.821,-4.02,-0.15,0.00,2.79,4.02,2.94,0.00,14.08,10.30,16.64,13.91,0.00,2.01,2.61,-18.92,1100,1100,1100,1100,1012,1500,1531,11095,809
50321,9,18.04,0.40,-0.56,-0.348,-0.265,1.422,-5.27,-3.85,0.00,3.51,5.27,7.36,0.00,18.45,25.77,0.41,25.37,0.00,-8.03,2.28,11.75,1100,1100,1100,1100,1005,1500,1539,11091,809
50332,9,-6.54,4.97,0.40,-0.409,0.138,1.114,0.26,0.98,0.00,3.51,-0.26,2.53,0.00,-0.92,8.85,5.62,3.88,0.00,2.72,-1.33,-8.29,1100,1100,1100,1100,1005,1500,1539,11083,809
50345,9,2.65,-12.90,0.24,0.321,-0.082,1.036,-3.58,6.20,0.00,3.51,3.58,-2.69,0.00,12.53,-9.42,9.88,3.49,0.00,-0.03,6.20,-3.43,1100,1100,1100,1100,1005,1500,1539,11083,809
50356,9,-3.38,2.81,0.21,0.084,-0.515,0.785,-4.81,10.97,0.00,3.51,4.81,-7.46,0.00,16.83,-26.10,20.20,-28.90,0.00,1.68,-3.53,-6.76,1100,1100,1100,1100,1005,1500,1539,11091,809
50369,9,-7.53,-3.12,0.12,0.251,0.046,0.652,-1.93,17.73,0.00,3.51,1.93,-14.22,0.00,6.76,-49.77,14.29,-46.65,0.00,4.24,-2.52,-7.87,1100,1100,1100,1100,1005,1500,1539,11087,809
50381,9,10.72,4.58,0.14,-0.104,-0.007,1.187,-4.30,6.31,0.00,0.00,4.30,-6.31,0.00,15.05,-22.07,4.34,-26.66,0.00,-4.59,-3.24,0.09,1100,1100,1100,1100,1030,1500,1514,11083,809
50392,9,-7.72,1.27,0.61,-0.024,0.217,0.935,0.94,6.39,0.00,0.00,-0.94,-6.39,0.00,-3.28,-22.35,4.45,-23.63,0.00,3.15,-2.52,-6.13,1100,1100,1100,1100,1030,1500,1514,11087,809
50405,9,6.81,-14.49,-0.46,0.505,0.270,0.880,-0.01,7.41,0.00,3.51,0.01,-3.90,0.00,0.05,-13.63,-6.76,0.85,0.00,-2.46,6.56,13.76,1100,1100,1100,1100,1004,1500,1539,11100,809
50416,9,8.30,2.91,0.54,-0.299,-0.451,1.143,-2.00,1.54,0.00,3.51,2.00,1.97,0.00,7.01,6.88,-1.28,3.97,0.00,-4.25,-0.37,-10.36,1100,1100,1100,1100,1004,1500,1539,11104,809
50429,9,-10.23,2.41,-0.43,0.039,0.033,0.939,1.19,6.36,0.00,2.70,-1.19,-3.66,0.00,-4.15,-12.80,6.08,-15.21,0.00,5.43,-2.23,6.53,1100,1100,1100,1100,1014,1500,1530,11100,809
50441,9,4.28,11.26,0.91,-0.585,-0.278,1.495,-2.76,-3.18,0.00,2.70,2.76,5.88,0.00,9.65,20.59,5.38,9.33,0.00,-1.70,-3.21,-21.51,1100,1100,1100,1100,1014,1500,1530,11100,809
50452,9,-11.18,14.75,-3.57,-0.009,0.053,1.049,1.14,-1.84,0.00,2.70,-1.14,4.54,0.00,-3.97,15.87,7.20,1.12,0.00,4.63,-5.23,63.56,1100,1100,1100,1100,1014,1500,1530,11100,809
50465,9,5.83,-14.25,0.02,0.409,0.230,0.832,-0.58,3.35,0.00,0.00,0.58,-3.35,0.00,2.02,-11.71,-3.81,2.54,0.00,-2.31,6.88,-5.78,1100,1100,1100,1100,1036,1500,1508,11100,809
50476,9,8.63,-6.95,-0.11,-0.151,-0.334,0.849,-3.96,0.51,0.00,0.00,3.96,-0.51,0.00,13.85,-1.80,5.22,5.15,0.00,-4.04,3.81,-13.13,1100,1100,1100,1100,1036,1500,1508,11100,809
50489,9,-4.97,-3.48,-1.32,-0.290,0.200,1.221,0.44,0.58,0.00,0.00,-0.44,-0.58,0.00,-1.53,-2.02,3.44,1.46,0.00,2.71,0.35,23.48,1100,1100,1100,1100,1034,1500,1510,11091,809
50501,9,2.46,-9.99,3.67,0.246,-0.135,0.810,-6.88,6.57,0.00,2.70,6.88,-3.87,0.00,24.08,-13.54,21.62,-3.54,0.00,-0.09,3.13,-75.61,1100,1100,1100,1100,1014,1500,1530,11083,809
50512,9,-10.49,9.02,-2.63,0.209,-0.449,0.758,-5.70,12.59,0.00,2.70,5.70,-9.89,0.00,19.94,-34.61,30.42,-43.63,0.00,5.46,-7.85,46.45,1100,1100,1100,1100,1014,1500,1530,11087,809
50525,9,2.97,-0.97,0.16,0.052,0.026,1.119,-3.13,7.20,0.00,3.42,3.13,-3.78,0.00,10.94,-13.22,7.97,-12.25,0.00,-0.61,-1.11,2.84,1100,1100,1100,1100,1007,1500,1538,11095,809
50536,9,5.61,0.09,-0.14,-0.000,0.190,0.918,-2.98,7.87,0.00,3.42,2.98,-4.45,0.00,10.44,-15.56,4.83,-15.65,0.00,-2.69,-1.29,1.26,1100,1100,1100,1100,1007,1500,1538,11100,809
50549,9,-8.91,-6.50,-0.95,0.305,0.103,0.736,-1.44,12.87,0.00,3.42,1.44,-9.45,0.00,5.05,-33.08,13.97,-26.59,0.00,4.64,1.08,24.39,1100,1100,1100,1100,1007,1500,1538,11091,808
50561,9,0.33,3.88,3.33,0.042,-0.365,1.024,-3.86,4.39,0.00,2.25,3.86,-2.14,0.00,13.51,-7.47,13.18,-11.36,0.00,0.64,-1.90,-66.93,1100,1100,1100,1100,1023,1500,1525,11095,808
50572,9,-4.73,7.01,-1.27,0.022,-0.291,0.923,-3.21,7.97,0.00,2.25,3.21,-5.72,0.00,11.24,-20.01,15.96,-27.01,0.00,2.60,-4.75,21.69,1100,1100,1100,1100,1023,1500,1525,11095,808
50585,9,-0.83,-8.88,0.28,0.103,0.190,1.044,-0.40,5.68,0.00,3.78,0.40,-1.90,0.00,1.41,-6.64,2.24,2.24,0.00,0.96,3.81,-1.61,1100,1100,1100,1100,1006,1500,1542,11095,808
50596,9,2.13,-2.07,-1.15,-0.157,-0.129,0.833,-2.74,4.90,0.00,3.78,2.74,-1.12,0.00,9.58,-3.91,7.45,-1.85,0.00,-0.74,1.03,14.05,1100,1100,1100,1100,1006,1500,1542,11095,808
50609,9,-6.88,6.73,-3.02,0.212,-0.311,0.883,-3.80,9.37,0.00,2.70,3.80,-6.67,0.00,13.29,-23.36,20.16,-30.09,0.00,3.90,-5.35,61.03,1100,1100,1100,1100,1025,1500,1530,11100,808
50621,9,-0.61,-4.18,1.86,0.288,-0.111,0.697,-6.35,12.79,0.00,2.70,6.35,-10.09,0.00,22.24,-35.31,22.84,-31.12,0.00,1.36,-1.65,-39.89,1100,1100,1100,1100,1025,1500,1530,11100,808
50632,9,3.47,2.40,-1.27,-0.027,0.338,1.046,-0.80,6.93,0.00,2.70,0.80,-4.23,0.00,2.78,-14.81,-0.68,-17.20,0.00,-1.46,-3.38,17.73,1100,1100,1100,1100,1025,1500,1530,11091,808
50645,9,7.49,-19.21,1.34,0.149,0.291,0.906,-1.84,4.45,0.00,2.70,1.84,-1.75,0.00,6.44,-6.12,-1.04,13.09,0.00,-3.32,8.31,-23.54,1100,1100,1100,1100,1027,1500,1530,11087,809
50656,9,0.21,-9.48,0.36,0.162,-0.241,0.915,-5.50,7.29,0.00,2.70,5.50,-4.59,0.00,19.27,-16.05,19.06,-6.57,0.00,0.71,3.32,-5.90,1100,1100,1100,1100,1027,1500,1530,11083,809
50669,9,-5.63,7.41,-0.55,0.161,-0.346,1.156,-5.51,7.59,0.00,2.70,5.51,-4.89,0.00,19.27,-17.10,24.90,-24.51,0.00,3.60,-5.36,20.91,1100,1100,1100,1100,1028,1500,1530,11091,809
50681,9,0.02,3.90,2.81,-0.098,-0.079,0.811,-4.26,2.71,0.00,2.61,4.26,-0.10,0.00,14.92,-0.36,14.89,-4.26,0.00,0.40,-1.41,-51.33,1100,1100,1100,1100,1029,1501,1529,11091,809
50692,9,3.89,3.80,-0.68,-0.121,0.194,1.196,-2.49,0.25,0.00,2.61,2.49,2.36,0.00,8.73,8.27,4.84,4.47,0.00,-1.49,-0.74,16.87,1100,1100,1100,1100,1029,1501,1529,11087,809
50705,9,-0.34,4.23,-1.80,-0.197,-0.071,1.223,-4.27,-2.79,0.00,2.61,4.27,5.40,0.00,14.95,18.91,15.30,14.68,0.00,0.47,-0.03,50.35,1100,1100,1100,1100,1029,1500,1529,11087,809
50716,9,-4.75,4.95,-0.31,0.283,0.069,0.867,-1.64,1.39,0.00,2.61,1.64,1.22,0.00,5.74,4.28,10.49,-0.67,0.00,2.58,-0.42,7.19,1100,1100,1100,1100,1029,1500,1529,11083,809
50729,9,7.77,-0.87,1.33,-0.051,-0.063,1.502,-4.88,0.63,0.00,2.61,4.88,1.98,0.00,17.08,6.92,9.31,7.79,0.00,-3.33,1.88,-25.69,1100,1100,1100,1100,1029,1500,1529,11075,809
50741,9,-0.38,-3.10,2.90,-0.055,0.017,0.832,-1.23,1.63,0.00,2.61,1.23,0.98,0.00,4.30,3.44,4.69,6.54,0.00,0.14,2.78,-57.62,1100,1100,1100,1100,1039,1500,1529,11066,809
50752,9,-4.90,0.56,-0.82,0.028,-0.077,0.886,-3.22,2.20,0.00,2.61,3.22,0.41,0.00,11.27,1.44,16.17,0.87,0.00,3.21,0.66,15.85,1100,1100,1100,1100,1039,1500,1529,11079,809
50765,9,2.22,12.33,-1.45,0.038,-0.367,1.141,-3.61,3.40,0.00,2.61,3.61,-0.79,0.00,12.65,-2.76,10.43,-15.09,0.00,-0.82,-5.30,34.78,1100,1100,1100,1100,1039,1500,1529,11079,809
50776,9,-4.02,-4.27,0.67,0.194,0.309,0.813,0.40,6.08,0.00,2.61,-0.40,-3.47,0.00,-1.40,-12.15,2.62,-7.88,0.00,1.93,1.02,-12.55,1100,1100,1100,1100,1039,1500,1529,11075,809
50789,9,11.67,-9.77,-1.68,0.238,0.361,1.102,0.13,2.77,0.00,2.61,-0.13,-0.16,0.00,-0.45,-0.55,-12.12,9.21,0.00,-5.32,4.94,31.36,1100,1100,1100,1100,1047,1500,1529,11083,809
50801,9,-1.14,-11.05,1.27,0.098,0.170,0.731,3.95,2.53,0.00,0.00,-3.95,-2.53,0.00,-13.82,-8.84,-12.68,2.20,0.00,-0.57,5.03,-28.75,1100,1100,1100,1100,1060,1500,1516,11091,809
50812,9,0.23,-20.68,1.38,0.601,-0.303,0.692,-3.43,14.34,0.00,0.00,3.43,-14.34,0.00,12.00,-50.18,11.78,-29.50,0.00,0.81,6.74,-29.09,1100,1100,1100,1100,1060,1500,1516,11087,809
50825,9,1.23,17.67,0.26,-0.062,-0.610,0.961,-6.27,12.28,0.00,3.33,6.27,-8.95,0.00,21.93,-31.32,20.70,-48.99,0.00,-0.04,-11.28,3.56,1100,1100,1100,1100,1057,1500,1537,11091,809
50836,9,-8.87,9.05,0.64,-0.186,0.302,0.872,1.54,10.16,0.00,3.33,-1.54,-6.83,0.00,-5.38,-23.89,3.49,-32.94,0.00,4.00,-6.81,-8.78,1100,1100,1100,1100,1057,1500,1537,11091,809
50849,9,10.52,-8.71,-2.64,0.239,0.145,1.183,-0.65,4.35,0.00,3.69,0.65,-0.66,0.00,2.29,-2.31,-8.23,6.39,0.00,-4.64,4.54,44.51,1100,1100,1100,1100,1053,1500,1541,11091,809
50861,9,-8.13,3.71,-1.59,-0.013,-0.111,0.904,-0.87,5.32,0.00,0.00,0.87,-5.32,0.00,3.06,-18.62,11.18,-22.33,0.00,3.66,-2.81,25.24,1100,1100,1100,1100,1091,1500,1520,11087,809
50873,9,-2.61,-6.62,1.21,0.408,0.155,0.867,-1.56,8.81,0.00,0.00,1.56,-8.81,0.00,5.47,-30.83,8.08,-24.21,0.00,2.26,1.74,-30.06,1100,1100,1100,1100,1091,1500,1520,11083,809
50885,9,11.14,9.62,2.83,-0.292,-0.557,1.323,-4.58,1.23,0.00,3.33,4.58,2.10,0.00,16.02,7.34,4.89,-2.28,0.00,-5.48,-3.34,-31.52,1100,1100,1100,1100,1083,1500,1537,11091,809
50896,9,-3.88,1.70,2.39,-0.335,-0.021,1.204,-1.73,3.42,0.00,3.33,1.73,-0.09,0.00,6.04,-0.31,9.92,-2.01,0.00,2.30,-0.66,-16.63,1100,1100,1100,1100,1083,1500,1537,11083,809
50909,9,11.00,-9.86,-1.24,-0.185,-0.174,1.215,-5.33,-2.05,0.00,2.43,5.33,4.48,0.00,18.67,15.67,7.66,25.54,0.00,-4.22,6.84,51.44,1100,1100,1100,1100,1093,1500,1527,11083,809
50921,9,-12.80,13.63,-1.97,-0.129,-0.210,1.006,-1.25,0.53,0.00,3.33,1.25,2.80,0.00,4.36,9.81,17.16,-3.81,0.00,5.71,-5.26,68.39,1100,1100,1100,1100,1083,1500,1537,11083,809
50933,9,-1.62,-2.16,1.14,0.508,0.086,0.910,-3.03,8.70,0.00,3.33,3.03,-5.37,0.00,10.62,-18.79,12.24,-16.63,0.00,1.98,0.17,8.42,1100,1100,1100,1100,1083,1500,1537,11083,809
50945,9,9.73,-0.99,0.97,0.045,-0.049,0.905,-3.76,4.51,0.00,3.33,3.76,-1.18,0.00,13.15,-4.14,3.41,-3.15,0.00,-4.84,1.35,12.79,1100,1100,1100,1100,1084,1500,1537,11079,809
50956,9,-10.88,-5.32,-0.62,-0.051,0.178,0.868,1.29,4.39,0.00,3.33,-1.29,-1.06,0.00,-4.50,-3.70,6.37,1.62,0.00,5.19,1.93,49.66,1100,1100,1100,1100,1084,1500,1537,11083,809
50969,9,7.17,-4.61,1.53,-0.093,-0.429,1.154,-4.87,0.89,0.00,3.24,4.87,2.35,0.00,17.05,8.22,9.88,12.83,0.00,-2.36,3.22,5.04,1100,1100,1100,1100,1088,1500,1536,11087,809
50981,9,-2.17,12.85,-2.50,0.177,-0.080,0.733,-1.66,8.07,0.00,2.52,1.66,-5.55,0.00,5.83,-19.42,8.00,-32.28,0.00,0.72,-7.09,86.58,1100,1100,1100,1100,1098,1500,1528,11083,809
50993,9,-4.12,-4.49,0.55,0.426,0.215,0.906,-1.27,10.51,0.00,2.52,1.27,-7.99,0.00,4.46,-27.97,8.58,-23.49,0.00,2.80,0.57,32.76,1100,1100,1100,1100,1098,1500,1528,11083,809
51005,9,5.56,-5.04,0.81,0.440,-0.015,0.750,-1.31,13.37,0.00,3.42,1.31,-9.95,0.00,4.58,-34.81,-0.98,-29.77,0.00,-2.71,1.20,13.58,1100,1100,1100,1100,1092,1500,1538,11079,809
51016,9,-6.44,-7.93,-2.23,0.121,0.115,0.729,0.17,12.44,0.00,3.42,-0.17,-9.02,0.00,-0.59,-31.56,5.84,-23.63,0.00,3.30,1.49,73.49,1100,1100,1100,1100,1092,1500,1538,11083,809
51029,9,10.84,-11.93,2.10,0.311,0.075,0.881,-1.74,11.63,0.00,2.52,1.74,-9.11,0.00,6.10,-31.87,-4.75,-19.94,0.00,-4.76,3.91,-13.28,1100,1100,1100,1100,1101,1500,1528,11091,809
51041,9,-3.26,6.68,-0.13,0.359,-0.154,0.847,-1.73,15.45,0.00,2.52,1.73,-12.93,0.00,6.04,-45.27,9.30,-51.95,0.00,1.41,-6.43,26.10,1100,1100,1100,1100,1104,1500,1528,11087,809
51052,9,4.51,-14.31,1.41,0.365,0.131,0.877,1.13,23.54,0.00,2.52,-1.13,-21.02,0.00,-3.95,-73.57,-8.46,-59.26,0.00,-1.63,1.42,1.06,1100,1100,1100,1100,1104,1500,1528,11083,809
51065,9,2.45,-6.26,-0.81,-0.088,-0.099,0.902,-1.14,11.13,0.00,3.24,1.14,-7.89,0.00,3.99,-27.62,1.54,-21.36,0.00,-1.13,0.61,36.45,1100,1100,1100,1100,1110,1500,1536,11091,809
51076,9,-12.86,5.72,-3.50,-0.386,-0.239,1.130,-1.87,8.88,0.00,3.24,1.87,-5.64,0.00,6.55,-19.75,19.41,-25.47,0.00,6.41,-5.90,95.08,1100,1100,1100,1100,1110,1500,1536,11087,809
51089,9,3.85,-0.09,0.23,0.442,0.030,0.658,-2.10,9.76,0.00,0.00,2.10,-9.76,0.00,7.36,-34.16,3.51,-34.06,0.00,-1.30,-2.59,16.17,1100,1100,1100,1100,1140,1500,1509,11083,809
51101,9,-1.06,5.26,-2.11,0.202,0.230,0.958,1.23,7.43,0.00,0.00,-1.23,-7.43,0.00,-4.31,-26.00,-3.25,-31.25,0.00,0.30,-4.22,28.99,1100,1100,1100,1100,1139,1500,1515,11095,809
51113,9,2.96,-21.55,0.35,0.431,0.513,0.754,3.05,14.17,0.00,0.00,-3.05,-14.17,0.00,-10.68,-49.59,-13.65,-28.04,0.00,-1.82,7.19,-9.90,1100,1100,1100,1100,1139,1500,1515,11100,809
51125,9,2.95,-12.01,1.10,0.082,-0.142,0.800,-1.96,14.29,0.00,3.24,1.96,-11.05,0.00,6.88,-38.68,3.92,-26.67,0.00,-1.17,2.18,-36.76,1100,1100,1100,1100,1118,1500,1536,11087,809
51136,9,-6.02,15.44,-2.88,-0.206,-0.394,1.036,-3.99,8.69,0.00,3.24,3.99,-5.45,0.00,13.96,-19.07,19.97,-34.51,0.00,3.75,-9.75,51.14,1100,1100,1100,1100,1118,1500,1536,11091,809
51149,9,1.43,6.97,1.95,-0.028,-0.217,0.933,-5.41,4.33,0.00,2.52,5.41,-1.81,0.00,18.93,-6.35,17.51,-13.32,0.00,0.05,-4.32,-42.86,1100,1100,1100,1100,1129,1500,1528,11083,808
51161,9,4.21,-3.44,0.10,-0.058,0.299,1.182,-1.63,3.80,0.00,2.07,1.63,-1.73,0.00,5.69,-6.05,1.48,-2.61,0.00,-1.98,0.97,-6.53,1100,1100,1100,1100,1139,1500,1523,11087,808
51173,9,2.66,-11.35,-1.39,0.190,0.470,0.873,2.71,4.87,0.00,2.07,-2.71,-2.80,0.00,-9.49,-9.80,-12.15,1.55,0.00,-1.40,5.21,33.52,1100,1100,1100,1100,1139,1500,1523,11087,808
51185,9,-0.31,-11.98,0.69,0.161,-0.355,0.715,-5.17,4.79,0.00,3.24,5.17,-1.55,0.00,18.10,-5.44,18.41,6.54,0.00,0.88,5.68,-15.63,1100,1100,1100,1100,1140,1500,1536,11087,808
51197,9,8.94,-0.42,-1.25,-0.016,-0.422,1.141,-6.15,4.71,0.00,0.00,6.15,-4.71,0.00,21.54,-16.49,12.59,-16.07,0.00,-3.29,-1.12,22.65,1100,1100,1100,1100,1140,1499,1509,11087,808
51209,9,1.41,3.26,4.30,-0.200,-0.035,0.864,-4.34,0.23,0.00,0.00,4.34,-0.23,0.00,15.21,-0.81,13.79,-4.07,0.00,0.25,-1.94,-84.25,1100,1100,1100,1100,1167,1499,1509,11091,808
51221,9,1.28,-0.70,0.32,-0.292,0.123,1.240,-4.84,-2.27,0.00,2.43,4.84,4.70,0.00,16.95,16.44,15.67,17.15,0.00,0.39,0.94,-8.11,1100,1100,1100,1100,1151,1500,1527,11083,808
51232,9,-4.40,2.72,-3.68,-0.044,-0.229,1.117,-7.26,-2.50,0.00,2.43,7.26,4.93,0.00,25.40,17.27,29.81,14.55,0.00,2.79,-0.06,86.60,1100,1100,1100,1100,1151,1500,1527,11066,808
51245,9,-9.58,0.23,-0.23,-0.026,-0.111,0.695,-6.43,-4.88,0.00,2.43,6.43,7.31,0.00,22.50,25.59,32.08,25.36,0.00,5.21,2.12,8.40,1141,1157,1157,1149,1151,1500,1527,11058,809
51256,9,9.29,-14.85,-0.78,0.421,0.170,0.861,-5.11,3.89,0.00,2.43,5.11,-1.46,0.00,17.89,-5.11,8.60,9.75,0.00,-3.37,6.74,8.78,1141,1157,1157,1149,1151,1500,1527,11054,809
51269,9,1.09,-7.08,4.32,0.368,0.086,1.029,-4.67,5.69,0.00,3.15,4.67,-2.54,0.00,16.33,-8.91,15.23,-1.83,0.00,-0.59,2.19,-76.07,1141,1157,1157,1149,1143,1500,1535,11037,809
51281,9,-7.96,-14.23,2.08,0.678,0.049,0.253,1.70,25.30,0.00,3.51,-1.70,-21.79,0.00,-5.97,-76.27,2.00,-62.03,0.00,3.85,1.67,-39.55,1141,1157,1157,1149,1145,1500,1539,11029,809
51292,9,15.86,-2.34,1.65,-0.154,0.019,1.553,-3.64,14.50,0.00,3.51,3.64,-10.99,0.00,12.73,-38.46,-3.13,-36.12,0.00,-6.83,-1.72,-30.08,1141,1157,1157,1149,1145,1500,1539,11045,809
51305,9,-10.05,2.74,3.22,0.048,-0.169,1.014,-4.92,10.96,0.00,0.00,4.92,-10.96,0.00,17.22,-38.35,27.27,-41.09,0.00,4.47,-2.43,-56.50,1141,1157,1157,1149,1173,1500,1514,11050,809
51316,9,-6.03,-16.20,-0.37,0.239,0.278,0.691,1.16,9.71,0.00,0.00,-1.16,-9.71,0.00,-4.05,-33.99,1.98,-17.79,0.00,3.32,6.22,-6.80,1141,1157,1157,1149,1173,1500,1514,11058,809
51329,9,20.50,-7.58,-0.36,0.056,0.181,1.247,-1.77,2.59,0.00,2.43,1.77,-0.16,0.00,6.19,-0.57,-14.31,7.01,0.00,-9.31,4.38,-3.13,1141,1157,1157,1149,1160,1500,1527,11050,809
51341,9,-15.01,7.06,2.02,-0.223,0.263,0.846,0.51,-3.14,0.00,2.79,-0.51,5.93,0.00,-1.78,20.75,13.22,13.69,0.00,5.96,-1.35,-39.85,1192,1116,1124,1204,1159,1500,1531,11033,809
51353,9,-4.76,-18.89,0.32,0.199,0.844,0.478,10.13,-0.95,0.00,2.79,-10.13,3.74,0.00,-35.44,13.09,-30.68,31.98,0.00,1.57,11.14,-14.45,1192,1116,1124,1204,1159,1500,1531,11029,809
51365,9,24.36,-20.31,1.54,0.561,0.513,0.819,5.48,2.85,0.00,3.15,-5.48,0.30,0.00,-19.17,1.05,-43.53,21.36,0.00,-12.83,11.65,-37.46,1192,1116,1124,1204,1166,1500,1535,11016,809
51377,9,-17.32,20.35,1.81,-0.139,0.360,0.696,5.94,-1.16,0.00,3.15,-5.94,4.31,0.00,-20.78,15.08,-3.47,-5.28,0.00,5.70,-8.38,-41.15,1192,1116,1124,1204,1166,1500,1535,11012,809
51389,9,-20.07,-28.47,0.64,0.475,0.955,0.124,13.18,3.84,0.00,3.24,-13.18,-0.60,0.00,-46.13,-2.09,-26.05,26.39,0.00,8.84,12.35,-8.58,1192,1116,1124,1204,1168,1500,1536,11008,809
51401,9,14.74,-5.70,3.65,0.555,0.138,0.951,-3.00,4.93,0.00,3.15,3.00,-1.78,0.00,10.49,-6.24,-4.26,-0.54,0.00,-6.44,2.74,-51.65,1192,1116,1124,1204,1172,1500,1535,11000,809
51412,9,-3.53,54.87,2.84,-0.758,-0.680,1.613,-1.18,-3.82,0.00,3.15,1.18,6.97,0.00,4.13,24.40,7.66,-30.47,0.00,0.01,-24.40,-34.55,1192,1116,1124,1204,1172,1500,1535,11012,809
51424,9,-46.42,-16.95,4.20,0.067,-0.191,0.715,0.15,8.22,0.00,3.15,-0.15,-5.07,0.00,-0.53,-17.74,45.89,-0.79,0.00,23.11,4.57,-62.32,1192,1116,1124,1204,1173,1500,1535,11012,809
51436,9,7.99,-27.27,4.81,0.222,-0.057,1.501,-12.29,15.00,0.00,3.15,12.29,-11.85,0.00,43.02,-41.49,35.03,-14.22,0.00,-0.11,10.89,-74.77,1192,1116,1124,1204,1173,1500,1535,11012,809
51449,9,21.53,36.34,-2.53,-0.132,-1.096,1.418,-13.16,-0.80,0.00,3.15,13.16,3.95,0.00,46.06,13.82,24.53,-22.52,0.00,-9.62,-13.69,45.11,1122,1198,1226,1146,1173,1500,1535,10979,814
51461,9,-53.84,13.42,-7.84,0.448,-1.727,0.230,-12.52,0.40,0.00,2.70,12.52,2.30,0.00,43.81,8.05,97.66,-5.37,0.00,26.82,-4.49,139.40,1122,1198,1226,1146,1184,1500,1530,10975,814
51472,9,-6.26,-19.52,-3.69,0.349,0.784,1.173,1.54,11.47,0.00,2.70,-1.54,-8.77,0.00,-5.38,-30.70,0.88,-11.18,0.00,5.83,8.16,58.95,1122,1198,1226,1146,1184,1500,1530,10966,814
51484,9,56.99,-15.97,2.49,0.452,0.814,1.405,-12.28,15.67,0.00,3.06,12.28,-12.61,0.00,42.97,-44.14,-14.01,-28.17,0.00,-24.58,6.95,-62.99,1122,1198,1226,1146,1183,1500,1534,10962,814
51496,9,28.11,24.02,8.43,-0.186,-0.260,0.634,-29.34,16.55,0.00,3.06,29.34,-13.49,0.00,102.67,-47.20,74.56,-71.22,0.00,-12.65,-15.27,-185.43,1122,1198,1226,1146,1183,1500,1534,10979,814
51509,9,-78.93,-28.32,-6.23,0.207,-0.784,0.180,-26.34,10.18,0.00,3.06,26.34,-7.12,0.00,92.20,-24.91,171.13,3.40,0.00,40.71,9.97,99.07,1122,1198,1226,1146,1184,1500,1534,10975,814
51521,9,-0.54,-11.34,-11.17,-0.041,1.046,2.113,-11.76,1.86,0.00,3.06,11.76,1.20,0.00,41.16,4.21,41.70,15.55,0.00,5.42,4.77,186.90,1122,1198,1226,1146,1189,1500,1534,10954,814
51532,9,65.18,24.05,-8.51,-0.452,-0.136,2.145,-19.32,4.86,0.00,3.06,19.32,-1.80,0.00,67.62,-6.31,2.44,-30.35,0.00,-27.82,-10.90,120.84,1122,1198,1226,1146,1189,1500,1534,10946,814
51544,9,22.85,22.91,3.98,-0.773,-0.859,0.801,-38.97,2.82,0.00,3.06,38.97,0.24,0.00,136.40,0.86,113.55,-22.05,0.00,-8.75,-13.34,-172.72,1100,1240,1372,1100,1190,1500,1534,10937,822
51556,9,-73.28,-72.39,-5.64,1.660,-1.607,-1.024,-34.95,8.33,0.00,3.06,34.95,-5.27,0.00,122.32,-18.46,195.60,53.93,0.00,40.17,33.15,6.41,1100,1240,1372,1100,1190,1500,1534,10937,822
51569,9,-44.63,6.37,-4.53,-1.714,1.412,2.391,-14.40,-7.25,0.00,3.06,14.40,10.31,0.00,50.38,36.08,95.02,29.71,0.00,26.39,2.13,26.05,1100,1240,1372,1100,1198,1500,1534,10921,822
51581,9,62.06,34.45,4.65,-2.472,1.622,3.271,-32.52,-5.09,0.00,3.51,32.52,8.60,0.00,113.83,30.11,51.78,-4.34,0.00,-22.98,-13.66,-108.77,1100,1240,1372,1100,1193,1500,1539,10921,822
51592,9,63.90,-3.05,4.65,0.391,-0.403,0.218,-43.99,6.10,0.00,3.51,43.99,-2.59,0.00,150.00,-9.08,86.10,-6.04,0.00,-26.05,2.62,-80.91,1100,1240,1372,1100,1193,1500,1539,10933,822
51605,1,3.51,8.22,-2.52,1.856,-2.336,-0.090,-33.15,2.48,0.00,3.06,33.15,0.58,0.00,116.03,2.03,112.52,-6.20,0.00,-0.25,-4.07,47.27,1100,1240,1372,1100,1211,1500,1534,10937,822
51616,1,-60.53,-1.43,-4.67,-1.989,-0.681,2.942,-10.49,-9.04,0.00,3.06,10.49,12.10,0.00,36.75,42.35,97.28,43.77,0.00,29.07,2.33,88.14,1100,1240,1372,1100,1211,1500,1534,10946,822
51629,1,-44.76,-11.16,-7.18,-0.196,-0.786,0.070,-13.69,-4.28,0.00,0.00,13.69,4.28,0.00,47.95,14.98,92.71,26.14,0.00,23.20,11.02,108.68,1100,1240,1372,1100,1237,1500,1508,10946,822
51641,1,-29.46,14.97,-5.36,-2.463,1.196,2.889,-9.32,-8.43,0.00,2.70,9.32,11.13,0.00,32.67,38.99,62.13,24.01,0.00,15.81,0.42,73.72,1132,1278,1308,1162,1220,1500,1530,10946,810
51652,1,10.24,11.51,-2.86,0.230,1.020,1.060,21.83,10.41,0.00,2.70,-21.83,-7.71,0.00,-76.35,-26.99,-86.60,-38.50,0.00,-5.91,-2.56,-1.58,1132,1278,1308,1162,1220,1500,1530,10941,810
51664,1,37.38,39.17,1.95,0.637,0.451,1.139,6.02,5.00,0.00,2.70,-6.02,-2.30,0.00,-21.03,-8.02,-58.41,-47.19,0.00,-17.15,-16.73,-79.23,1132,1278,1308,1162,1221,1500,1530,10941,810
51676,1,48.49,5.59,-3.28,0.908,-0.661,0.632,-14.25,5.87,0.00,2.70,14.25,-3.17,0.00,49.92,-11.06,1.43,-16.65,0.00,-22.04,-2.50,31.93,1132,1278,1308,1162,1221,1500,1530,10937,810
51689,1,14.23,-8.08,0.97,0.752,-0.225,0.248,-16.12,9.63,0.00,2.70,16.12,-6.93,0.00,56.49,-24.23,42.27,-16.15,0.00,-6.92,3.38,-49.28,1132,1278,1308,1162,1227,1500,1530,10908,810
51701,1,-45.42,-33.69,-1.79,-0.396,-1.290,0.813,-11.97,3.16,0.00,2.70,11.97,-0.46,0.00,41.96,-1.58,87.37,32.11,0.00,21.97,18.09,-4.17,1132,1278,1308,1162,1237,1500,1530,10908,810
51713,1,-32.88,-23.64,-2.51,-1.146,-0.100,1.187,-13.48,1.79,0.00,2.70,13.48,0.91,0.00,47.27,3.21,80.15,26.84,0.00,15.95,13.41,14.01,1132,1278,1308,1162,1237,1500,1530,10896,810
51724,1,-7.81,19.54,-8.35,-0.636,0.425,2.009,-3.59,3.55,0.00,0.00,3.59,-3.55,0.00,12.65,-12.43,20.47,-31.96,0.00,4.86,-7.76,132.19,1132,1278,1308,1162,1252,1500,1517,10896,810
51736,1,22.27,1.13,-3.13,1.040,0.375,0.566,-11.39,19.51,0.00,0.00,11.39,-19.51,0.00,39.99,-68.29,17.72,-69.42,0.00,-8.72,-2.90,19.83,1132,1278,1308,1162,1252,1500,1517,10908,810
51749,1,53.23,21.30,-3.62,0.280,0.076,1.425,-8.15,6.43,0.00,2.61,8.15,-3.82,0.00,28.63,-13.40,-24.60,-34.70,0.00,-24.57,-13.52,17.72,1225,1261,1281,1229,1249,1500,1529,10900,810
51761,1,15.54,-5.83,-2.03,1.403,-1.526,0.193,-19.34,4.74,0.00,2.52,19.34,-2.22,0.00,67.82,-7.79,52.28,-1.96,0.00,-5.19,3.52,-30.60,1225,1261,1281,1229,1260,1500,1528,10891,810
51772,1,-30.38,-26.38,-1.56,0.214,-1.430,0.421,-16.52,-0.12,0.00,2.52,16.52,2.64,0.00,57.95,9.23,88.33,35.61,0.00,15.97,13.30,-33.92,1225,1261,1281,1229,1260,1500,1528,10879,810
51784,1,-45.74,-22.29,-4.27,-0.409,-0.110,0.804,-4.79,-1.92,0.00,2.61,4.79,4.53,0.00,16.90,15.83,62.64,38.12,0.00,22.60,12.09,23.90,1225,1261,1281,1229,1260,1500,1529,10875,810
51796,1,-22.20,-11.59,-0.84,-1.056,0.417,1.261,0.01,-7.47,0.00,2.61,-0.01,10.08,0.00,0.12,35.29,22.32,46.87,0.00,10.54,9.61,-50.62,1225,1261,1281,1229,1260,1500,1529,10879,810
51809,1,-1.42,-2.74,-0.55,-0.672,0.293,1.476,-3.30,1.25,0.00,2.61,3.30,1.36,0.00,11.72,4.77,13.14,7.51,0.00,1.00,2.92,-46.52,1225,1261,1281,1229,1263,1500,1529,10887,810
51821,1,10.34,21.58,-8.33,-0.892,0.249,1.798,-11.48,7.42,0.00,0.00,11.48,-7.42,0.00,40.36,-25.98,30.01,-47.56,0.00,-2.76,-11.82,106.27,1225,1261,1281,1229,1276,1500,1517,10862,810
51832,1,6.57,22.15,-14.64,-0.308,-0.084,1.010,-6.57,-3.18,0.00,0.00,6.57,3.18,0.00,23.18,11.13,16.60,-11.02,0.00,-1.69,-8.28,218.60,1225,1261,1281,1229,1276,1500,1517,10858,810
51844,1,6.62,-10.09,-14.88,0.117,0.042,0.716,-13.54,8.62,0.00,2.97,13.54,-5.65,0.00,47.59,-19.80,40.96,-9.71,0.00,-0.94,3.51,199.95,1274,1238,1256,1288,1264,1500,1533,10862,811
51856,1,2.29,16.82,-12.19,-0.203,-0.147,1.488,-7.86,10.30,0.00,2.97,7.86,-7.33,0.00,27.71,-25.67,25.42,-42.49,0.00,0.53,-9.96,128.10,1274,1238,1256,1288,1264,1500,1533,10867,811
51869,1,-4.31,12.47,-4.49,0.453,0.128,0.998,-2.71,16.74,0.00,2.61,2.71,-14.13,0.00,9.71,-49.49,14.02,-61.96,0.00,3.30,-8.49,-19.50,1274,1238,1256,1288,1275,1500,1529,10817,811
51881,1,-6.84,22.02,2.03,0.239,0.160,0.937,-4.47,20.87,0.00,2.61,4.47,-18.26,0.00,15.88,-63.97,22.72,-85.99,0.00,4.52,-15.47,-100.88,1274,1238,1256,1288,1276,1500,1529,10804,811
51892,1,-21.47,14.41,-0.47,-0.441,0.035,1.329,-2.85,3.12,0.00,2.61,2.85,-0.51,0.00,10.20,-1.87,31.67,-16.28,0.00,11.02,-8.30,-44.47,1274,1238,1256,1288,1276,1500,1529,10804,811
51905,1,-19.84,30.05,0.05,-0.806,0.682,1.567,1.55,-6.39,0.00,2.61,-1.55,9.00,0.00,-5.18,31.44,14.66,1.39,0.00,9.64,-10.80,-42.28,1274,1238,1256,1288,1281,1500,1529,10837,811
51917,1,-4.21,0.65,0.97,0.681,0.826,0.681,2.20,0.40,0.00,2.61,-2.20,2.21,0.00,-7.46,7.68,-3.25,7.03,0.00,2.45,2.05,-52.73,1274,1238,1256,1288,1281,1500,1529,10825,811
51929,1,16.44,-13.09,3.13,1.213,0.519,0.456,-3.96,19.47,0.00,3.15,3.96,-16.32,0.00,14.13,-57.17,-2.31,-44.08,0.00,-6.44,1.64,-87.99,1274,1238,1256,1288,1277,1500,1535,10821,811
51941,1,28.29,1.29,-1.59,-0.022,0.690,1.261,-2.19,9.24,0.00,2.61,2.19,-6.63,0.00,7.92,-23.28,-20.37,-24.57,0.00,-12.44,-5.56,-4.50,1301,1303,1269,1287,1290,1500,1529,10821,810
51952,1,44.27,0.99,-5.01,0.570,0.356,1.217,-1.04,3.26,0.00,2.61,1.04,-0.65,0.00,3.91,-2.36,-40.37,-3.35,0.00,-20.31,-1.37,44.56,1301,1303,1269,1287,1290,1500,1529,10825,810
51965,1,42.12,-14.62,-3.31,1.986,-0.846,0.079,-14.07,20.75,0.00,2.61,14.07,-18.14,0.00,49.52,-63.58,7.40,-48.96,0.00,-17.96,4.45,-16.88,1301,1303,1269,1287,1296,1500,1529,10821,810
51976,1,35.11,-47.07,-0.21,1.549,-1.866,-0.413,-28.83,33.93,0.00,2.61,28.83,-31.32,0.00,101.19,-109.74,66.08,-62.67,0.00,-13.94,13.26,-85.45,1301,1303,1269,1287,1296,1500,1529,10821,810
51989,1,6.42,-25.70,-3.62,0.619,-2.555,0.100,-22.51,25.58,0.00,2.61,22.51,-22.97,0.00,79.10,-80.53,72.67,-54.83,0.00,-2.01,2.37,1.07,1301,1303,1269,1287,1296,1500,1529,10812,810
52001,1,-6.28,-19.02,-5.66,-0.387,-2.517,1.019,-14.04,8.31,0.00,2.52,14.04,-5.79,0.00,49.45,-20.44,55.73,-1.42,0.00,2.29,3.48,49.08,1301,1303,1269,1287,1302,1500,1528,10804,810
52012,1,-27.04,-5.39,-9.13,-0.664,-2.757,1.401,-9.00,-2.43,0.00,2.52,9.00,4.95,0.00,31.80,17.17,58.84,22.56,0.00,11.58,3.77,111.06,1301,1303,1269,1287,1302,1500,1528,10800,810
52024,1,-31.09,4.41,-6.04,-0.669,-3.178,1.503,-4.68,-4.76,0.00,2.70,4.68,7.46,0.00,16.68,25.94,47.77,21.53,0.00,11.83,3.51,32.45,1301,1303,1269,1287,1305,1500,1530,10783,810
52036,1,-59.46,-8.82,-6.91,-0.630,-2.395,1.339,-1.07,-2.27,0.00,2.70,1.07,4.97,0.00,4.05,17.25,63.51,26.07,0.00,25.80,11.92,50.30,1301,1303,1269,1287,1305,1500,1530,10767,810
52049,1,-84.70,4.86,-4.68,-0.630,-2.030,1.438,-8.22,2.85,0.00,2.52,8.22,-0.33,0.00,29.06,-1.33,113.76,-6.18,0.00,40.05,6.90,29.91,1406,1296,1206,1324,1308,1500,1528,10742,811
52061,1,-88.70,-4.80,-4.38,-1.320,-0.894,1.253,-16.15,4.00,0.00,2.43,16.15,-1.57,0.00,56.86,-5.66,145.56,-0.86,0.00,43.41,6.93,29.46,1406,1296,1206,1324,1315,1500,1527,10746,811
52072,1,-78.95,24.29,-8.09,-1.853,0.078,1.781,-14.91,-1.42,0.00,2.43,14.91,3.85,0.00,52.55,13.30,131.49,-10.99,0.00,39.55,-11.37,113.84,1406,1296,1206,1324,1315,1500,1527,10762,811
52084,1,-40.67,41.26,-11.01,-2.400,1.137,2.468,-7.11,-4.56,0.00,0.00,7.11,4.56,0.00,25.27,15.78,65.94,-25.48,0.00,21.37,-19.26,171.73,1406,1296,1206,1324,1332,1500,1510,10779,811
52096,1,-7.54,37.18,-11.08,-1.889,1.175,2.239,11.47,5.17,0.00,0.00,-11.47,-5.17,0.00,-39.77,-18.29,-32.23,-55.47,0.00,2.91,-21.44,169.60,1406,1296,1206,1324,1332,1500,1510,10771,811
52109,1,2.37,30.55,-12.34,-1.084,1.054,1.966,1.55,5.27,0.00,2.52,-1.55,-2.75,0.00,-5.06,-9.80,-7.44,-40.35,0.00,-0.93,-17.82,184.05,1406,1296,1206,1324,1316,1500,1528,10742,811
52121,1,-6.72,-0.30,-9.87,-0.115,0.668,1.332,-5.18,5.58,0.00,1.89,5.18,-3.69,0.00,18.52,-13.10,25.24,-12.80,0.00,4.27,-7.78,138.18,1406,1296,1206,1324,1327,1500,1521,10721,811
52132,1,4.79,3.51,-8.45,1.306,0.771,0.412,8.54,11.46,0.00,1.89,-8.54,-9.57,0.00,-29.51,-33.70,-34.30,-37.21,0.00,-3.43,-9.62,128.07,1406,1296,1206,1324,1327,1500,1521,10721,811
52144,1,20.44,-9.15,-7.02,0.662,1.190,0.813,18.56,14.01,0.00,2.52,-18.56,-11.49,0.00,-64.60,-40.43,-85.04,-31.29,0.00,-12.92,-5.12,123.52,1350,1290,1278,1366,1321,1500,1528,10721,810
52156,1,10.92,-8.84,-8.44,-0.590,0.883,1.777,8.68,11.99,0.00,2.52,-8.68,-9.47,0.00,-30.05,-33.37,-40.97,-24.53,0.00,-7.57,-6.21,163.57,1350,1290,1278,1366,1321,1500,1528,10733,810
52169,1,-12.16,-16.17,-7.00,-1.370,0.455,1.753,7.52,0.52,0.00,2.52,-7.52,2.00,0.00,-25.99,6.79,-13.83,22.96,0.00,4.62,0.17,137.81,1350,1290,1278,1366,1323,1500,1528,10746,810
52181,1,-22.92,9.26,-5.92,-2.300,0.099,2.276,4.63,-18.15,0.00,2.52,-4.63,20.67,0.00,-15.88,72.14,7.04,62.89,0.00,10.76,-6.48,130.45,1350,1290,1278,1366,1324,1500,1528,10754,810
52192,1,-26.95,-27.12,-3.36,-0.375,0.417,1.511,3.10,-7.09,0.00,2.52,-3.10,9.61,0.00,-10.51,33.46,16.44,60.58,0.00,13.20,4.05,102.81,1350,1290,1278,1366,1324,1500,1528,10762,810
52204,1,-36.29,-25.24,-1.79,-0.142,1.383,1.404,10.26,9.41,0.00,2.52,-10.26,-6.89,0.00,-35.58,-24.30,0.71,0.95,0.00,16.56,-5.88,72.60,1350,1290,1278,1366,1324,1500,1528,10762,810
52216,1,-17.69,-27.33,2.60,-0.174,1.906,1.416,14.30,10.11,0.00,2.52,-14.30,-7.59,0.00,-49.74,-26.77,-32.05,0.55,0.00,8.00,-5.82,-12.08,1350,1290,1278,1366,1324,1500,1528,10775,810
52229,1,12.27,-29.16,6.99,0.102,2.586,1.199,3.60,14.77,0.00,2.52,-3.60,-12.25,0.00,-12.27,-43.08,-24.54,-13.92,0.00,-3.82,-5.87,-104.67,1350,1290,1278,1366,1327,1500,1528,10767,810
52241,1,27.38,-16.75,9.13,-0.334,2.199,1.430,-1.98,12.36,0.00,2.52,1.98,-9.84,0.00,7.26,-34.67,-20.12,-17.92,0.00,-9.87,-11.66,-146.31,1471,1201,1161,1475,1327,1500,1528,10771,810
52252,1,46.75,-8.86,10.30,-0.606,1.905,1.864,-1.36,-3.04,0.00,2.52,1.36,5.56,0.00,5.12,19.24,-41.63,28.10,0.00,-19.49,-11.19,-161.02,1471,1201,1161,1475,1327,1500,1528,10762,810
52264,1,61.91,0.66,11.80,-0.930,1.228,2.288,-3.85,-15.27,0.00,2.52,3.85,17.79,0.00,13.82,62.08,-48.09,61.42,0.00,-27.45,-14.71,-169.88,1471,1201,1161,1475,1329,1500,1528,10762,810
52276,1,69.28,-43.65,13.46,1.026,0.667,1.166,-6.99,-4.01,0.00,2.52,6.99,6.53,0.00,24.82,22.68,-44.47,66.33,0.00,-32.08,-0.67,-180.12,1471,1201,1161,1475,1329,1500,1528,10779,810
52289,1,80.32,-55.20,4.71,2.443,0.530,0.356,-0.24,11.88,0.00,2.79,0.24,-9.09,0.00,1.21,-31.99,-79.11,23.21,0.00,-39.00,-3.15,-8.28,1471,1201,1161,1475,1324,1500,1531,10754,810
52301,1,67.68,-100.02,4.36,3.958,-0.053,-1.314,-42.25,20.33,0.00,2.43,42.25,-17.90,0.00,148.25,-62.85,80.57,37.17,0.00,-26.74,16.05,-40.11,1471,1201,1161,1475,1329,1500,1527,10775,810
52313,5,68.85,-80.49,1.09,3.528,-0.146,-0.958,-55.09,23.46,0.00,2.43,55.09,-21.03,0.00,375.00,-73.79,306.15,6.69,0.00,-18.16,4.08,0.76,1471,1201,1161,1475,1329,1500,1527,10771,810
52325,5,65.49,-97.83,-0.41,3.197,-0.609,-1.265,-57.99,24.70,0.00,2.43,57.99,-22.27,0.00,375.00,-78.17,309.51,19.66,0.00,-15.70,10.60,5.37,1471,1201,1161,1475,1333,1500,1527,10750,810
52337,5,55.57,-89.62,-0.57,2.183,-0.720,-0.693,-53.47,23.91,0.00,2.43,53.47,-21.48,0.00,375.00,-75.41,319.43,14.21,0.00,-10.92,5.51,6.06,1471,1201,1161,1475,1333,1500,1527,10742,810
52349,1,54.66,-102.96,1.09,2.106,-1.246,-0.484,-43.66,20.10,0.00,2.43,43.66,-17.67,0.00,150.00,-62.10,95.34,40.86,0.00,-19.23,13.78,-18.54,1500,1166,1150,1500,1334,1500,1527,10721,810
52361,1,46.27,-85.08,5.90,0.463,-1.329,0.898,-26.13,8.24,0.00,0.00,26.13,-8.24,0.00,92.03,-29.10,45.75,55.98,0.00,-18.62,4.06,-75.50,1500,1166,1150,1500,1343,1500,1518,10737,810
52372,1,36.72,-129.36,7.58,0.026,-1.569,1.255,-19.11,-4.92,0.00,0.00,19.11,4.92,0.00,67.48,16.94,30.76,146.30,0.00,-15.37,26.60,-84.20,1500,1166,1150,1500,1343,1500,1518,10746,810
52385,1,36.55,-197.48,12.72,0.916,-2.578,-0.054,-32.59,-5.68,0.00,2.43,32.59,8.11,0.00,114.67,28.11,78.12,225.59,0.00,-12.41,58.21,-159.85,1500,1166,1150,1500,1334,1500,1527,10721,810
52396,1,28.77,-157.78,3.61,1.732,-2.238,-1.069,-34.56,-3.59,0.00,2.43,34.56,6.02,0.00,121.62,20.81,92.84,178.59,0.00,-7.32,44.90,21.74,1500,1166,1150,1500,1334,1500,1527,10729,810
52409,1,8.62,-145.34,4.32,1.509,-3.015,-0.118,-27.12,1.78,0.00,2.43,27.12,0.65,0.00,95.59,2.05,86.98,147.39,0.00,1.37,37.59,10.04,1500,1166,1150,1500,1334,1500,1527,10733,810
52421,1,-4.56,-105.02,3.62,0.470,-2.693,0.677,-18.16,6.99,0.00,2.43,18.16,-4.56,0.00,64.23,-16.21,68.79,88.81,0.00,6.83,20.99,43.30,1500,1166,1150,1500,1334,1500,1527,10733,810
52432,1,-3.99,-89.36,-0.38,0.880,-2.044,0.309,-17.81,13.72,0.00,2.43,17.81,-11.29,0.00,63.03,-39.78,67.02,49.58,0.00,7.82,15.98,137.69,1500,1166,1150,1500,1334,1500,1527,10725,810
52445,1,-2.72,-62.13,-1.81,-0.590,-2.333,1.392,-30.31,12.13,0.00,0.00,30.31,-12.13,0.00,106.83,-42.73,109.55,19.40,0.00,9.96,2.49,179.54,1304,1366,1384,1354,1352,1500,1509,10713,810
52456,1,3.36,-52.97,-1.55,-0.678,-2.547,1.466,-23.28,3.34,0.00,0.00,23.28,-3.34,0.00,82.24,-11.97,78.88,40.99,0.00,7.68,4.52,165.88,1304,1366,1384,1354,1352,1500,1509,10708,810
52469,1,11.32,-49.74,2.04,-0.738,-2.516,1.881,-21.12,-2.14,0.00,4.05,21.12,6.19,0.00,74.71,21.35,63.39,71.09,0.00,4.69,3.89,91.85,1304,1366,1384,1354,1316,1500,1545,10667,810
52481,1,27.61,-50.86,7.90,-0.279,-1.700,1.441,-9.45,-1.78,0.00,2.43,9.45,4.21,0.00,33.85,14.44,6.24,65.30,0.00,-3.33,2.66,-44.86,1304,1366,1384,1354,1334,1500,1527,10663,810
52492,1,34.59,-59.92,22.10,0.489,-1.961,0.732,-11.84,-0.60,0.00,2.43,11.84,3.03,0.00,42.22,10.31,7.63,70.22,0.00,-4.36,5.01,-290.41,1304,1366,1384,1354,1334,1500,1527,10683,810
52504,1,57.46,-82.68,25.73,1.476,-0.394,0.137,-13.82,23.03,0.00,2.43,13.82,-20.60,0.00,49.17,-72.41,-8.29,10.27,0.00,-13.68,9.35,-350.00,1304,1366,1384,1354,1331,1500,1527,10692,810
52516,1,52.45,-69.21,27.18,1.103,0.100,0.724,-12.26,23.87,0.00,2.43,12.26,-21.44,0.00,43.72,-75.35,-8.73,-6.14,0.00,-10.13,2.94,-350.00,1304,1366,1384,1354,1331,1500,1527,10692,810
52529,1,34.71,-60.02,16.08,1.177,0.847,0.435,-3.03,31.44,0.00,2.43,3.03,-29.01,0.00,11.43,-101.86,-23.28,-41.85,0.00,-1.11,-2.83,-130.77,1304,1366,1384,1354,1331,1500,1527,10721,810
52541,1,32.54,-47.56,20.06,0.967,0.353,0.759,-11.78,42.75,0.00,0.00,11.78,-42.75,0.00,42.10,-150.00,9.56,-102.44,0.00,1.29,-10.85,-200.13,1447,1100,1100,1469,1258,1500,1511,10733,810
52552,1,12.08,-30.54,17.26,-0.568,0.486,1.372,-0.63,15.63,0.00,0.00,0.63,-15.63,0.00,3.07,-55.11,-9.01,-24.57,0.00,9.23,-5.22,-108.85,1447,1100,1100,1469,1258,1500,1511,10737,810
52564,9,7.06,-6.39,15.26,-1.410,0.644,1.871,5.42,0.81,0.00,0.00,-5.42,-0.81,0.00,-18.97,-2.83,-26.03,3.56,0.00,9.35,-7.75,-10.67,1447,1100,1100,1469,1161,1500,1518,10737,810
52576,9,-1.55,6.16,5.52,-1.822,0.722,2.432,9.53,-10.90,0.00,0.00,-9.53,10.90,0.00,-33.34,38.15,-31.79,31.99,0.00,13.50,-7.77,166.96,1447,1100,1100,1469,1161,1500,1518,10762,810
52589,9,4.26,4.15,3.81,0.008,0.649,1.777,9.64,-9.99,0.00,3.87,-9.64,13.86,0.00,-33.73,48.50,-37.99,44.35,0.00,11.27,-6.48,232.73,1447,1100,1100,1469,1079,1500,1543,10775,810
52601,9,21.83,-1.60,7.65,0.679,0.552,1.740,4.32,2.11,0.00,2.70,-4.32,0.59,0.00,-15.13,2.07,-36.96,3.67,0.00,3.04,-8.62,183.49,1447,1100,1100,1469,1015,1500,1530,10796,810
52612,9,25.19,25.33,7.58,0.170,-0.404,1.624,-9.46,-0.39,0.00,2.70,9.46,3.09,0.00,33.11,10.83,7.93,-14.50,0.00,3.54,-17.23,202.32,1447,1100,1100,1469,1015,1500,1530,10829,810
52625,9,41.27,-37.65,14.70,1.207,-0.847,0.054,-10.28,13.88,0.00,2.70,10.28,-11.18,0.00,35.98,-39.13,-5.29,-1.48,0.00,-3.37,10.50,56.56,1447,1100,1100,1469,1015,1500,1530,10850,810
52636,9,9.22,-65.54,26.20,2.875,-0.745,-1.106,-40.93,34.82,0.00,2.70,40.93,-32.12,0.00,143.24,-112.41,134.03,-46.87,0.00,15.76,10.05,-146.14,1447,1100,1100,1469,1015,1500,1530,10867,810
52649,9,16.97,7.80,41.95,0.733,-1.501,0.441,-26.32,30.53,0.00,0.00,26.32,-30.53,0.00,92.13,-106.86,75.16,-114.66,0.00,8.29,-24.83,-350.00,1100,1100,1100,1100,1031,1500,1513,10921,837
52661,9,46.52,-18.82,36.40,1.666,-0.217,-0.646,-43.33,21.56,0.00,2.25,43.33,-19.31,0.00,150.00,-67.59,103.48,-48.77,0.00,-5.55,-0.93,-242.15,1100,1100,1100,1100,1019,1500,1525,10954,837
52672,9,31.85,-37.61,40.14,2.190,0.300,-1.126,9.27,21.69,0.00,2.25,-9.27,-19.44,0.00,-32.45,-68.03,-64.31,-30.42,0.00,-6.74,12.89,-278.37,1100,1100,1100,1100,1019,1500,1525,10966,837
52684,9,41.89,50.15,40.67,0.790,0.918,1.607,13.58,7.26,0.00,2.70,-13.58,-4.56,0.00,-47.53,-15.96,-89.42,-66.11,0.00,-12.00,-23.84,-253.26,1100,1100,1100,1100,1014,1500,1530,10983,837
52696,9,28.66,15.99,59.56,2.368,-0.132,-0.772,-38.48,31.25,0.00,2.70,38.48,-28.55,0.00,134.67,-99.93,106.01,-115.92,0.00,-2.81,-8.65,-350.00,1100,1100,1100,1100,1014,1500,1530,11000,837
52709,9,28.07,11.96,50.86,-0.712,-1.267,1.159,-24.41,4.22,0.00,2.70,24.41,-1.52,0.00,85.45,-5.33,57.39,-17.29,0.00,-9.18,3.00,-240.25,1100,1100,1100,1100,1015,1500,1530,11012,837
52721,9,1.81,51.63,47.32,-1.252,-2.989,1.576,-5.61,-3.45,0.00,2.70,5.61,6.15,0.00,19.63,21.52,17.82,-30.11,0.00,-2.79,-9.36,-157.14,1100,1100,1100,1100,1017,1500,1530,11021,837
52733,9,-50.70,19.13,44.54,0.236,-2.287,-0.224,1.82,6.02,0.00,2.70,-1.82,-3.32,0.00,-6.37,-11.62,44.32,-30.76,0.00,21.42,7.03,-87.06,1100,1100,1100,1100,1017,1500,1530,11029,837
52745,9,-80.68,15.26,44.23,-0.553,-0.377,0.428,-2.65,3.87,0.00,3.60,2.65,-0.27,0.00,9.27,-0.95,89.95,-16.21,0.00,39.29,10.16,-81.88,1100,1100,1100,1100,1007,1500,1540,11033,840
52756,9,-57.84,96.58,68.09,-2.418,0.552,2.337,-3.57,2.09,0.00,3.60,3.57,1.51,0.00,12.50,5.27,70.34,-91.31,0.00,25.12,-24.64,-350.00,1100,1100,1100,1100,1007,1500,1540,11041,840
52769,9,-48.36,90.86,67.30,-0.108,1.634,1.241,-12.86,14.51,0.00,2.70,12.86,-11.81,0.00,45.00,-41.33,93.36,-132.19,0.00,16.81,-15.57,-294.77,1100,1100,1100,1100,1017,1500,1530,11041,840
52781,9,-22.68,153.16,79.90,1.092,0.585,1.214,-21.23,12.85,0.00,2.70,21.23,-10.15,0.00,74.32,-35.54,97.00,-188.70,0.00,-2.47,-42.62,-350.00,1100,1100,1100,1100,1017,1500,1530,11041,840
52792,13,-69.53,95.06,83.34,0.055,-0.993,-0.200,-51.41,13.13,0.00,2.70,51.41,-10.43,0.00,375.00,-36.49,444.53,-131.56,0.00,26.18,-14.12,-350.00,1100,1100,1100,1100,1017,1500,1530,11041,840
52805,13,-121.06,31.55,79.86,2.334,-0.113,-1.395,-52.50,17.35,0.00,2.61,52.50,-14.74,0.00,375.00,-51.58,496.06,-83.13,0.00,49.74,17.57,-285.56,1100,1100,1100,1100,1018,1500,1529,11041,840
