time_ms,flags,gyro_x,gyro_y,gyro_z,accel_x,accel_y,accel_z,roll,pitch,angle_sp_roll,angle_sp_pitch,angle_err_roll,angle_err_pitch,angle_i_roll,rate_sp_roll,rate_sp_pitch,rate_err_roll,rate_err_pitch,rate_i_roll,pid_roll,pid_pitch,pid_yaw,m1,m2,m3,m4,rc_thr,rc_roll,rc_pitch,battery_mv,loop_us
142549,9,0.02,0.08,0.00,0.004,-0.071,0.997,-4.40,2.39,0.00,0.00,4.40,-2.39,0.00,15.39,-8.36,15.37,-8.44,0.00,0.61,-0.37,-29.23,1100,1100,1100,1100,1060,1500,1508,11170,934
142561,9,0.08,0.03,-0.00,0.006,-0.073,0.994,-4.39,2.46,0.00,2.25,4.39,-0.21,0.00,15.36,-0.72,15.28,-0.75,0.00,0.58,-0.03,-0.25,1100,1100,1100,1100,1018,1500,1525,11166,934
142572,9,-0.04,-0.03,-0.06,0.007,-0.074,0.992,-4.40,2.52,0.00,2.25,4.40,-0.27,0.00,15.41,-0.95,15.45,-0.92,0.00,0.64,-0.01,0.64,1100,1100,1100,1100,1018,1500,1525,11166,934
142584,9,-0.04,-0.03,-0.00,0.004,-0.069,1.003,-4.31,2.50,0.00,0.00,4.31,-2.50,0.00,15.09,-8.74,15.13,-8.71,0.00,0.62,-0.33,-0.64,1100,1100,1100,1100,1024,1500,1520,11170,934
142596,9,0.02,0.02,0.01,0.002,-0.069,1.000,-4.30,2.41,0.00,0.00,4.30,-2.41,0.00,15.05,-8.44,15.04,-8.46,0.00,0.59,-0.35,0.02,1100,1100,1100,1100,1024,1500,1520,11166,934
142609,9,0.02,0.08,0.00,-0.000,-0.072,1.000,-4.32,2.33,0.00,0.00,4.32,-2.33,0.00,15.12,-8.17,15.10,-8.25,0.00,0.60,-0.36,0.20,1100,1100,1100,1100,1033,1500,1511,11166,934
142621,9,-0.04,0.08,0.00,0.004,-0.072,1.000,-4.31,2.37,0.00,0.00,4.31,-2.37,0.00,15.08,-8.30,15.12,-8.38,0.00,0.62,-0.37,0.28,1100,1100,1100,1100,1033,1500,1511,11166,934
142632,9,-0.16,0.03,0.01,0.001,-0.071,1.000,-4.32,2.35,0.00,0.00,4.32,-2.35,0.00,15.11,-8.24,15.27,-8.27,0.00,0.66,-0.33,0.38,1100,1100,1100,1100,1033,1500,1511,11158,934
142645,9,-0.09,-0.02,-0.12,0.004,-0.072,0.998,-4.36,2.37,0.00,0.00,4.36,-2.37,0.00,15.26,-8.28,15.35,-8.26,0.00,0.65,-0.28,2.02,1100,1100,1100,1100,1036,1500,1507,11145,998
142656,9,0.02,0.09,0.06,0.008,-0.072,0.995,-4.29,2.43,0.00,0.00,4.29,-2.43,0.00,15.03,-8.52,15.01,-8.61,0.00,0.58,-0.34,-1.18,1100,1100,1100,1100,1036,1500,1507,11145,998
142669,9,0.02,0.20,-0.11,0.005,-0.074,0.995,-4.37,2.38,0.00,0.00,4.37,-2.38,0.00,15.29,-8.33,15.27,-8.53,0.00,0.60,-0.40,2.91,1100,1100,1100,1100,1035,1500,1508,11141,998
142681,9,0.02,-0.03,-0.24,0.005,-0.076,0.998,-4.43,2.37,0.00,0.00,4.43,-2.37,0.00,15.50,-8.31,15.47,-8.28,0.00,0.63,-0.30,3.57,1100,1100,1100,1100,1034,1500,1510,11133,998
142692,9,-0.04,0.03,0.18,-0.000,-0.075,1.005,-4.37,2.35,0.00,0.00,4.37,-2.35,0.00,15.31,-8.22,15.35,-8.26,0.00,0.64,-0.32,-4.19,1100,1100,1100,1100,1034,1500,1510,11133,998
142704,9,0.08,0.09,0.19,-0.000,-0.077,0.999,-4.45,2.28,0.00,0.00,4.45,-2.28,0.00,15.56,-7.97,15.49,-8.06,0.00,0.59,-0.35,-2.27,1100,1100,1100,1100,1034,1500,1510,11137,998
142716,9,0.13,0.02,-0.24,0.006,-0.077,0.998,-4.45,2.34,0.00,0.00,4.45,-2.34,0.00,15.58,-8.20,15.45,-8.23,0.00,0.56,-0.33,4.49,1100,1100,1100,1100,1034,1500,1510,11141,998
142729,9,-0.16,-0.10,-0.00,0.004,-0.066,0.993,-4.35,2.39,0.00,0.00,4.35,-2.39,0.00,15.22,-8.36,15.37,-8.26,0.00,0.68,-0.30,-1.33,1100,1100,1100,1100,1034,1500,1510,11141,998
142741,9,-0.20,0.18,0.31,0.015,-0.071,0.988,-4.32,2.58,0.00,0.00,4.32,-2.58,0.00,15.12,-9.02,15.32,-9.21,0.00,0.70,-0.48,-4.40,1100,1100,1100,1100,1034,1500,1510,11137,906
142752,9,0.07,0.19,-0.35,0.019,-0.051,0.995,-4.23,2.82,0.00,0.00,4.23,-2.82,0.00,14.79,-9.88,14.72,-10.06,0.00,0.54,-0.52,7.95,1100,1100,1100,1100,1034,1500,1510,11145,906
142764,9,-0.18,-0.25,-0.13,-0.020,-0.082,1.006,-4.36,2.74,0.00,0.00,4.36,-2.74,0.00,15.25,-9.57,15.43,-9.33,0.00,0.72,-0.26,1.25,1100,1100,1100,1100,1034,1500,1510,11141,906
142776,9,0.78,-0.43,0.41,-0.037,-0.115,1.013,-4.61,1.98,0.00,0.00,4.61,-1.98,0.00,16.13,-6.92,15.34,-6.49,0.00,0.24,0.03,-7.79,1100,1100,1100,1100,1034,1500,1510,11129,906
142789,9,0.13,-0.30,0.19,-0.014,-0.058,1.024,-4.47,1.84,0.00,0.00,4.47,-1.84,0.00,15.66,-6.43,15.52,-6.13,0.00,0.51,-0.03,-1.20,1100,1100,1100,1100,1034,1500,1510,11100,906
142801,9,-1.25,-0.83,0.11,0.039,-0.106,1.000,-4.78,2.59,0.00,0.00,4.78,-2.59,0.00,16.74,-9.08,17.99,-8.26,0.00,1.28,-0.06,-2.16,1100,1100,1100,1100,1033,1500,1511,11091,906
142812,9,0.77,0.63,0.31,0.006,-0.109,0.989,-5.11,2.47,0.00,0.00,5.11,-2.47,0.00,17.90,-8.66,17.13,-9.29,0.00,0.35,-0.70,-5.50,1100,1100,1100,1100,1033,1500,1511,11083,906
142824,9,1.33,0.60,0.24,-0.003,-0.061,0.984,-4.95,1.94,0.00,0.00,4.95,-1.94,0.00,17.31,-6.80,15.98,-7.40,0.00,-0.04,-0.45,-3.33,1100,1100,1100,1100,1035,1497,1510,11083,906
142836,9,-0.37,-0.96,-0.71,0.008,-0.032,1.029,-4.14,2.38,0.00,0.00,4.14,-2.38,0.00,14.50,-8.33,14.87,-7.37,0.00,0.70,0.31,13.08,1100,1100,1100,1100,1035,1497,1510,11075,906
142849,9,0.59,2.11,-0.57,-0.125,-0.073,1.035,-4.41,0.36,0.00,0.00,4.41,-0.36,0.00,15.44,-1.26,14.85,-3.37,0.00,0.40,-0.74,9.94,1100,1100,1100,1100,1035,1497,1509,11075,808
142861,9,0.29,-1.19,0.02,-0.053,-0.047,1.035,-4.03,0.24,0.00,3.15,4.03,2.91,0.00,14.09,10.18,13.80,11.38,0.00,0.44,1.13,-1.60,1100,1100,1100,1100,1009,1497,1535,11058,808
142872,9,0.37,-3.75,-0.44,0.081,-0.038,0.996,-3.87,0.44,0.00,3.15,3.87,2.71,0.00,13.53,9.50,13.15,13.25,0.00,0.31,2.22,9.34,1100,1100,1100,1100,1009,1497,1535,11066,808
142884,9,-0.84,-1.79,0.29,0.219,-0.151,0.844,-5.38,6.96,0.00,0.00,5.38,-6.96,0.00,18.84,-24.37,19.68,-22.59,0.00,1.22,-0.50,-5.67,1100,1100,1100,1100,1034,1500,1510,11054,808
142896,9,-0.22,-1.72,0.20,-0.019,-0.105,1.030,-5.15,5.64,0.00,0.00,5.15,-5.64,0.00,18.01,-19.73,18.23,-18.01,0.00,0.81,-0.85,-1.19,1100,1100,1100,1100,1034,1500,1510,11050,808
142909,9,0.70,0.38,0.20,0.086,-0.105,0.972,-4.86,6.42,0.00,0.00,4.86,-6.42,0.00,17.00,-22.48,16.30,-22.87,0.00,0.44,-1.64,-1.20,1100,1100,1100,1100,1034,1500,1510,11021,808
142921,9,-1.63,-0.07,-0.71,0.015,-0.058,1.017,-4.84,4.80,0.00,0.00,4.84,-4.80,0.00,16.94,-16.80,18.57,-16.73,0.00,1.48,-0.92,11.90,1100,1100,1100,1100,1034,1500,1510,11021,808
142932,9,-0.48,2.22,0.08,-0.021,-0.142,1.011,-4.95,1.97,0.00,0.00,4.95,-1.97,0.00,17.33,-6.89,17.81,-9.10,0.00,0.92,-1.61,-2.92,1100,1100,1100,1100,1034,1500,1510,11025,808
142945,9,1.56,2.64,0.60,-0.028,-0.040,1.084,-3.90,0.87,0.00,0.00,3.90,-0.87,0.00,13.65,-3.04,12.09,-5.67,0.00,-0.19,-1.25,-10.34,1100,1100,1100,1100,1034,1500,1510,11025,808
142956,9,-0.81,-1.11,-0.07,0.065,-0.040,0.952,-3.93,3.62,0.00,0.00,3.93,-3.62,0.00,13.75,-12.68,14.56,-11.57,0.00,0.86,0.11,7.46,1100,1100,1100,1100,1034,1500,1510,11021,808
142969,9,0.49,-0.59,-1.38,-0.068,-0.073,0.896,-2.89,3.13,0.00,0.00,2.89,-3.13,0.00,10.13,-10.94,9.64,-10.35,0.00,0.16,-0.46,24.24,1100,1100,1100,1100,1027,1500,1518,11029,808
142981,9,1.27,2.39,-0.05,-0.131,-0.077,1.111,-3.82,0.27,0.00,0.00,3.82,-0.27,0.00,13.38,-0.93,12.11,-3.32,0.00,0.15,-0.94,-9.19,1100,1100,1100,1100,1035,1500,1509,11037,808
142992,9,-2.57,1.39,2.40,0.022,-0.003,1.096,-3.92,1.92,0.00,0.00,3.92,-1.92,0.00,13.73,-6.73,16.29,-8.12,0.00,1.72,-0.45,-42.96,1100,1100,1100,1100,1035,1500,1509,11045,808
143004,9,0.98,-1.24,-0.44,-0.024,-0.125,0.917,-2.80,2.53,0.00,0.00,2.80,-2.53,0.00,9.79,-8.86,8.81,-7.62,0.00,-0.30,0.18,20.17,1100,1100,1100,1100,1034,1500,1510,11058,808
143016,9,1.41,4.42,-2.45,-0.170,-0.080,1.080,-2.84,-1.50,0.00,0.00,2.84,1.50,0.00,9.96,5.25,8.55,0.83,0.00,0.05,-1.60,38.94,1100,1100,1100,1100,1034,1500,1510,11066,808
143029,9,-3.70,-0.35,1.96,0.084,-0.123,1.091,-6.37,2.08,0.00,0.00,6.37,-2.08,0.00,22.30,-7.29,26.00,-6.94,0.00,2.68,0.53,-48.83,1100,1100,1100,1100,1035,1500,1509,11054,808
143041,9,0.16,-1.47,1.76,-0.087,0.055,0.883,-0.84,2.50,0.00,0.00,0.84,-2.50,0.00,2.94,-8.76,2.78,-7.29,0.00,-0.25,0.18,-21.38,1100,1100,1100,1100,1034,1500,1510,11054,808
143053,9,2.42,5.07,-2.32,-0.019,-0.324,1.052,-4.87,-0.07,0.00,0.00,4.87,0.07,0.00,17.06,0.25,14.64,-4.82,0.00,-0.23,-1.99,48.73,1100,1100,1100,1100,1034,1500,1510,11050,808
143064,9,-1.07,-6.81,0.45,0.109,-0.020,0.938,-5.41,7.12,0.00,2.43,5.41,-4.69,0.00,18.94,-16.41,20.01,-9.60,0.00,1.35,2.57,-19.73,1100,1100,1100,1100,1017,1500,1527,11058,808
143076,9,-1.91,3.12,0.97,-0.150,-0.027,0.962,-3.24,4.03,0.00,2.43,3.24,-1.60,0.00,11.34,-5.60,13.25,-8.71,0.00,1.04,-2.14,-18.25,1100,1100,1100,1100,1017,1500,1527,11062,808
143089,9,0.34,-1.46,0.31,0.166,-0.179,1.083,-5.51,4.08,0.00,0.00,5.51,-4.08,0.00,19.30,-14.28,18.96,-12.82,0.00,0.80,0.45,0.52,1100,1100,1100,1100,1031,1500,1513,11062,808
143101,9,0.95,2.01,-1.28,-0.036,-0.052,0.941,-4.45,3.05,0.00,0.00,4.45,-3.05,0.00,15.58,-10.69,14.64,-12.70,0.00,0.26,-1.59,26.74,1100,1100,1100,1100,1035,1500,1509,11058,808
143112,9,-0.75,-4.32,0.21,0.163,0.057,1.026,-3.59,2.35,0.00,0.00,3.59,-2.35,0.00,12.56,-8.22,13.31,-3.90,0.00,0.78,1.94,-9.11,1100,1100,1100,1100,1035,1500,1509,11058,808
143124,9,2.69,-2.26,1.56,0.057,-0.074,0.773,-2.21,5.09,0.00,0.00,2.21,-5.09,0.00,7.75,-17.80,5.06,-15.54,0.00,-1.02,-0.46,-24.02,1100,1100,1100,1100,1035,1500,1509,11066,808
143136,9,1.72,-3.51,-1.31,0.253,-0.045,1.010,-6.04,6.41,0.00,0.00,6.04,-6.41,0.00,21.16,-22.44,19.44,-18.94,0.00,0.17,0.67,28.11,1100,1100,1100,1100,1035,1500,1509,11070,808
143149,9,-0.23,0.81,0.39,-0.175,0.012,0.915,-2.79,2.95,0.00,0.00,2.79,-2.95,0.00,9.78,-10.32,10.01,-11.13,0.00,0.30,-1.48,-10.23,1100,1100,1100,1100,1035,1500,1509,11070,808
143161,9,3.02,-1.73,-0.05,0.046,-0.011,1.127,-4.84,1.29,0.00,0.00,4.84,-1.29,0.00,16.94,-4.52,13.92,-2.79,0.00,-0.72,0.88,-1.33,1100,1100,1100,1100,1035,1500,1509,11066,808
143172,9,0.44,-0.75,1.66,-0.075,-0.078,0.996,-3.71,2.25,0.00,0.00,3.71,-2.25,0.00,12.99,-7.87,12.55,-7.12,0.00,0.15,-0.42,-27.09,1100,1100,1100,1100,1035,1500,1509,11070,808
143184,9,1.62,-2.74,-0.69,0.077,-0.058,1.035,-6.13,1.76,0.00,0.00,6.13,-1.76,0.00,21.47,-6.17,19.85,-3.42,0.00,0.11,1.39,17.90,1100,1100,1100,1100,1035,1500,1509,11066,808
143196,9,1.15,1.91,0.71,-0.109,-0.110,0.954,-3.00,0.72,0.00,0.00,3.00,-0.72,0.00,10.51,-2.52,9.37,-4.43,0.00,-0.39,-0.94,-13.99,1100,1100,1100,1100,1035,1500,1509,11058,808
143209,9,0.82,-2.22,-0.72,0.020,-0.051,1.166,-5.78,1.59,0.00,0.00,5.78,-1.59,0.00,20.21,-5.57,19.39,-3.34,0.00,0.62,1.52,13.64,1100,1100,1100,1100,1035,1500,1509,11066,808
143221,9,-0.55,1.65,0.54,-0.104,-0.224,0.949,-4.60,2.13,0.00,0.00,4.60,-2.13,0.00,16.10,-7.47,16.64,-9.12,0.00,0.49,-1.06,-11.08,1100,1100,1100,1100,1035,1500,1509,11066,808
143232,9,-2.01,-2.72,-0.70,0.041,0.100,1.073,-5.38,3.72,0.00,0.00,5.38,-3.72,0.00,18.82,-13.03,20.83,-10.31,0.00,1.85,0.74,10.66,1100,1100,1100,1100,1035,1500,1509,11066,808
143245,9,3.33,4.99,1.20,-0.045,-0.299,0.995,-5.70,1.84,0.00,0.00,5.70,-1.84,0.00,19.97,-6.45,16.64,-11.44,0.00,-1.05,-2.58,-27.08,1100,1100,1100,1100,1035,1500,1509,11066,808
143257,9,-1.76,-2.46,0.08,-0.019,0.037,0.908,-5.00,6.15,0.00,0.00,5.00,-6.15,0.00,17.51,-21.53,19.27,-19.07,0.00,1.86,0.16,-2.21,1100,1100,1100,1100,1035,1500,1509,11070,808
143269,9,3.57,0.79,0.77,0.026,-0.241,0.954,-4.82,4.38,0.00,2.61,4.82,-1.77,0.00,16.86,-6.20,13.29,-6.99,0.00,-1.31,-0.00,-17.46,1100,1100,1100,1100,1016,1500,1529,11079,808
143281,9,-1.51,-0.16,-1.20,-0.281,0.023,1.134,-2.85,-0.54,0.00,0.00,2.85,0.54,0.00,9.97,1.90,11.48,2.07,0.00,1.34,0.39,24.13,1100,1100,1100,1100,1032,1500,1512,11066,808
143292,9,2.64,6.14,0.35,-0.135,-0.400,1.190,-6.24,-3.01,0.00,0.00,6.24,3.01,0.00,21.84,10.53,19.20,4.39,0.00,-0.37,-0.99,-7.44,1100,1100,1100,1100,1032,1500,1512,11070,808
143304,9,-5.12,-4.70,-0.85,0.048,0.174,0.930,-1.73,1.90,0.00,0.00,1.73,-1.90,0.00,6.04,-6.66,11.16,-1.97,0.00,2.52,1.92,20.36,1100,1100,1100,1100,1036,1500,1508,11075,808
143316,9,7.28,-1.65,0.52,0.011,-0.115,1.067,-4.76,1.68,0.00,0.00,4.76,-1.68,0.00,16.67,-5.88,9.39,-4.23,0.00,-2.72,0.96,-5.15,1100,1100,1100,1100,1036,1500,1508,11066,808
143329,9,-3.42,6.01,-1.24,-0.051,-0.209,0.929,-5.44,1.93,0.00,0.00,5.44,-1.93,0.00,19.04,-6.76,22.46,-12.78,0.00,2.09,-3.11,22.73,1100,1100,1100,1100,1035,1500,1509,11062,808
143341,9,3.97,-5.45,2.15,-0.131,0.209,1.185,-3.21,1.25,0.00,0.00,3.21,-1.25,0.00,11.23,-4.38,7.26,1.08,0.00,-1.23,2.80,-37.41,1100,1100,1100,1100,1036,1500,1508,11058,808
143352,9,2.60,-1.33,0.34,-0.043,-0.032,0.942,-2.30,-0.64,0.00,0.00,2.30,0.64,0.00,8.06,2.25,5.46,3.57,0.00,-1.18,1.26,-13.07,1100,1100,1100,1100,1036,1500,1508,11066,808
143364,9,-4.31,-3.29,-1.35,0.104,-0.244,0.999,-4.87,4.07,0.00,2.61,4.87,-1.46,0.00,17.05,-5.12,21.37,-1.83,0.00,2.97,0.49,28.06,1100,1100,1100,1100,1015,1500,1529,11054,808
143376,9,3.53,1.86,2.39,-0.024,-0.122,1.063,-4.81,3.28,0.00,2.61,4.81,-0.67,0.00,16.84,-2.34,13.31,-4.20,0.00,-1.12,-1.32,-51.12,1100,1100,1100,1100,1015,1500,1529,11050,808
143389,9,-2.42,4.37,-2.13,-0.105,0.147,1.015,-1.51,1.95,0.00,0.00,1.51,-1.95,0.00,5.29,-6.84,7.72,-11.21,0.00,1.33,-2.41,49.44,1100,1100,1100,1100,1035,1500,1509,11054,808
143401,9,1.28,-4.05,1.63,0.264,-0.022,0.960,-4.43,2.90,0.00,0.00,4.43,-2.90,0.00,15.50,-10.15,14.22,-6.10,0.00,0.17,1.78,-27.46,1100,1100,1100,1100,1036,1500,1508,11062,808
143412,9,1.40,-3.52,-1.47,-0.000,-0.075,0.985,-5.04,2.84,0.00,0.00,5.04,-2.84,0.00,17.63,-9.94,16.22,-6.42,0.00,-0.27,1.06,21.57,1100,1100,1100,1100,1036,1500,1508,11058,808
143424,9,6.74,-10.71,0.76,0.192,0.188,0.944,-1.37,5.91,0.00,0.00,1.37,-5.91,0.00,4.80,-20.67,-1.94,-9.96,0.00,-2.79,3.65,-12.83,1100,1100,1100,1100,1035,1500,1509,11050,808
143436,9,-2.06,0.93,-0.64,0.008,-0.197,0.987,-4.60,5.20,0.00,0.00,4.60,-5.20,0.00,16.09,-18.20,18.15,-19.13,0.00,1.71,-1.67,10.33,1100,1100,1100,1100,1035,1500,1509,11058,808
143449,9,-7.43,1.64,-1.50,0.233,-0.031,0.924,-3.92,8.64,0.00,0.00,3.92,-8.64,0.00,13.72,-30.25,21.16,-31.89,0.00,4.07,-2.60,33.56,1100,1100,1100,1100,1035,1500,1509,11062,808
143461,9,2.94,4.35,1.30,-0.068,0.070,0.856,-2.91,2.45,0.00,2.79,2.91,0.34,0.00,10.19,1.21,7.25,-3.14,0.00,-1.02,-1.88,-31.53,1100,1100,1100,1100,1012,1501,1531,11050,808
143472,9,0.54,5.34,-1.91,-0.243,-0.476,1.198,-5.46,0.43,0.00,2.79,5.46,2.36,0.00,19.13,8.24,18.58,2.90,0.00,0.38,-1.66,30.81,1100,1100,1100,1100,1012,1501,1531,11050,808
143484,9,-0.89,0.18,3.59,-0.096,-0.166,0.923,-5.19,3.61,0.00,0.00,5.19,-3.61,0.00,18.15,-12.62,19.04,-12.80,0.00,1.06,-1.11,-67.32,1100,1100,1100,1100,1035,1500,1509,11054,808
143496,9,0.94,-1.58,-0.76,-0.234,0.009,1.289,-5.38,2.24,0.00,0.00,5.38,-2.24,0.00,18.83,-7.83,17.89,-6.24,0.00,0.29,0.13,14.04,1100,1100,1100,1100,1035,1500,1509,11054,808
143509,9,-0.35,3.39,-2.02,0.079,-0.066,1.039,-4.76,-2.04,0.00,0.00,4.76,2.04,0.00,16.67,7.13,17.03,3.74,0.00,0.55,-0.35,45.11,1100,1100,1100,1100,1036,1500,1508,11058,808
143521,9,1.61,-9.79,1.84,0.425,0.010,0.695,-4.64,7.72,0.00,0.00,4.64,-7.72,0.00,16.23,-27.00,14.62,-17.21,0.00,0.10,3.79,-47.99,1100,1100,1100,1100,1036,1500,1508,11058,808
143532,9,3.53,-1.01,-0.70,0.150,0.039,1.124,-4.73,6.66,0.00,0.00,4.73,-6.66,0.00,16.56,-23.31,13.03,-22.31,0.00,-1.25,-0.44,16.95,1100,1100,1100,1100,1036,1500,1508,11058,808
143545,9,-2.34,2.49,4.01,-0.331,0.069,0.999,-0.73,-0.39,0.00,0.00,0.73,0.39,0.00,2.56,1.36,4.90,-1.13,0.00,1.19,-1.94,-74.31,1100,1100,1100,1100,1036,1500,1508,11066,808
143556,9,1.58,-4.62,-1.30,0.186,-0.305,1.075,-6.40,0.93,0.00,0.00,6.40,-0.93,0.00,22.39,-3.27,20.81,1.35,0.00,0.40,2.07,25.67,1100,1100,1100,1100,1036,1500,1508,11066,808
143569,9,-7.25,7.16,-0.93,0.169,-0.167,0.674,-6.19,8.44,0.00,0.00,6.19,-8.44,0.00,21.67,-29.53,28.92,-36.69,0.00,4.00,-5.70,18.31,1100,1100,1100,1100,1037,1500,1508,11070,808
143581,9,-0.04,-5.00,-0.62,-0.057,0.361,1.037,-1.55,5.38,0.00,0.00,1.55,-5.38,0.00,5.41,-18.84,5.45,-13.84,0.00,0.38,1.15,4.55,1100,1100,1100,1100,1033,1500,1511,11079,808
143592,9,9.59,2.09,-0.00,-0.088,-0.346,1.200,-4.07,1.94,0.00,0.00,4.07,-1.94,0.00,14.24,-6.80,4.65,-8.88,0.00,-4.16,-1.17,4.20,1100,1100,1100,1100,1033,1500,1511,11075,808
143604,9,-0.65,-3.60,1.63,0.035,0.111,1.023,1.03,3.65,0.00,0.00,-1.03,-3.65,0.00,-3.61,-12.78,-2.96,-9.18,0.00,0.22,0.84,-28.31,1100,1100,1100,1100,1037,1500,1507,11066,808
143617,9,11.43,-15.48,0.79,0.425,0.124,0.857,-1.83,5.94,0.00,0.00,1.83,-5.94,0.00,6.42,-20.80,-5.02,-5.32,0.00,-4.68,7.19,-15.16,1100,1100,1100,1100,1037,1500,1507,11058,808
143629,9,-2.62,3.67,-1.12,0.045,-0.403,0.806,-3.79,7.65,0.00,0.00,3.79,-7.65,0.00,13.25,-26.77,15.87,-30.45,0.00,1.43,-3.11,16.20,1100,1100,1100,1100,1032,1500,1512,11058,808
143641,9,-10.38,-0.17,-1.68,0.162,0.047,0.891,-3.64,10.24,0.00,0.00,3.64,-10.24,0.00,12.73,-35.85,23.11,-35.68,0.00,5.97,-2.56,31.53,1100,1100,1100,1100,1034,1500,1510,11058,808
143652,9,4.29,5.43,1.04,0.218,0.007,0.885,-4.31,9.30,0.00,0.00,4.31,-9.30,0.00,15.09,-32.56,10.80,-37.99,0.00,-1.70,-4.45,-21.75,1100,1100,1100,1100,1034,1500,1510,11050,808
143665,9,-4.48,2.02,-0.02,0.049,0.146,0.854,-0.21,7.24,0.00,0.00,0.21,-7.24,0.00,0.72,-25.35,5.20,-27.37,0.00,2.07,-2.62,1.39,1100,1100,1100,1100,1036,1500,1508,11054,808
143676,9,10.46,-12.28,0.63,0.056,-0.154,1.108,-4.17,2.98,0.00,0.00,4.17,-2.98,0.00,14.60,-10.42,4.14,1.85,0.00,-4.10,5.81,-10.36,1100,1100,1100,1100,1036,1500,1508,11050,808
143689,9,-5.02,4.70,-1.02,-0.008,-0.293,1.108,-4.59,4.52,0.00,0.00,4.59,-4.52,0.00,16.07,-15.83,21.10,-20.53,0.00,2.70,-3.29,12.91,1100,1100,1100,1100,1036,1500,1508,11041,808
143701,9,-1.58,-10.47,0.00,0.448,-0.068,0.654,-4.43,13.94,0.00,0.00,4.43,-13.94,0.00,15.51,-48.77,17.08,-38.30,0.00,2.00,1.27,0.02,1100,1100,1100,1100,1036,1500,1508,11041,808
143712,9,7.36,6.14,2.83,-0.070,-0.042,1.088,-2.68,10.13,0.00,0.00,2.68,-10.13,0.00,9.39,-35.47,2.03,-41.60,0.00,-3.14,-4.82,-62.17,1100,1100,1100,1100,1036,1500,1508,11045,808
143724,9,-9.79,-0.29,-1.80,0.071,0.107,0.951,-0.35,8.13,0.00,0.00,0.35,-8.13,0.00,1.23,-28.47,11.02,-28.18,0.00,4.72,-1.79,42.65,1100,1100,1100,1100,1036,1500,1508,11054,808
143736,9,1.21,-0.26,2.82,0.146,-0.039,0.908,-4.87,9.27,0.00,0.00,4.87,-9.27,0.00,17.04,-32.44,15.84,-32.17,0.00,0.27,-1.93,-47.67,1100,1100,1100,1100,1036,1500,1508,11050,808
143749,9,6.95,4.89,-3.11,0.030,-0.054,0.960,-4.80,5.42,0.00,0.00,4.80,-5.42,0.00,16.80,-18.97,9.85,-23.86,0.00,-3.07,-2.59,53.90,1100,1100,1100,1100,1036,1500,1508,11050,808
143761,9,1.78,-3.20,0.85,-0.201,0.152,1.267,-2.91,0.39,0.00,2.25,2.91,1.86,0.00,10.18,6.51,8.40,9.71,0.00,-0.34,2.62,-13.97,1100,1100,1100,1100,1019,1500,1525,11054,808
143772,9,-0.85,-7.11,2.41,-0.025,-0.302,0.905,-5.08,0.14,0.00,2.25,5.08,2.11,0.00,17.77,7.38,18.62,14.49,0.00,1.34,4.00,-60.68,1100,1100,1100,1100,1019,1500,1525,11058,808
143784,9,-0.91,7.61,-1.60,-0.173,-0.381,1.312,-4.88,-3.19,0.00,3.06,4.88,6.25,0.00,17.07,21.86,17.98,14.25,0.00,1.08,-2.46,33.47,1100,1100,1100,1100,1010,1500,1534,11058,808
143796,9,-2.34,5.73,1.66,0.069,0.121,0.703,-1.14,2.00,0.00,3.06,1.14,1.06,0.00,3.98,3.71,6.32,-2.02,0.00,1.34,-2.73,-32.77,1100,1100,1100,1100,1010,1500,1534,11054,808
143809,9,2.91,0.48,-1.25,-0.103,0.114,1.192,-3.03,1.30,0.00,0.00,3.03,-1.30,0.00,10.59,-4.54,7.68,-5.02,0.00,-1.03,-0.12,23.41,1100,1100,1100,1100,1036,1500,1508,11054,808
143821,9,-5.43,2.53,0.21,0.029,-0.141,0.911,-4.22,3.27,0.00,0.00,4.22,-3.27,0.00,14.78,-11.43,20.22,-13.96,0.00,3.04,-1.66,0.63,1100,1100,1100,1100,1035,1500,1509,11050,808
143832,9,2.17,-7.08,-0.80,0.097,0.336,0.791,-0.93,4.37,0.00,0.00,0.93,-4.37,0.00,3.25,-15.30,1.08,-8.22,0.00,-0.76,3.03,15.37,1100,1100,1100,1100,1035,1500,1509,11041,808
143845,9,10.95,-6.00,-0.75,0.135,-0.093,1.106,-6.08,4.12,0.00,0.00,6.08,-4.12,0.00,21.29,-14.41,10.34,-8.41,0.00,-4.79,2.43,10.32,1100,1100,1100,1100,1030,1500,1515,11050,808
143856,9,-2.62,0.28,-0.44,-0.179,-0.180,0.799,-1.87,2.53,0.00,0.00,1.87,-2.53,0.00,6.54,-8.86,9.15,-9.14,0.00,1.42,-0.80,-8.00,1100,1100,1100,1100,1030,1500,1515,11045,808
143869,9,-1.60,-3.92,-1.52,-0.144,-0.419,1.244,-4.70,3.81,0.00,0.00,4.70,-3.81,0.00,16.44,-13.34,18.04,-9.42,0.00,2.13,1.40,14.02,1100,1100,1100,1100,1035,1500,1510,11037,808
143881,9,-7.38,19.27,0.49,0.006,-0.341,1.021,-3.31,6.40,0.00,2.79,3.31,-3.61,0.00,11.60,-12.64,18.98,-31.91,0.00,3.98,-10.52,-12.82,1100,1100,1100,1100,1014,1500,1531,11041,808
143892,9,-0.54,-4.46,1.76,0.089,0.298,0.779,-0.58,6.49,0.00,2.79,0.58,-3.70,0.00,2.02,-12.94,2.56,-8.48,0.00,0.73,0.72,-30.54,1100,1100,1100,1100,1014,1500,1531,11050,808
143904,9,12.14,-1.11,-3.56,-0.077,0.014,1.101,-4.06,-0.23,0.00,0.00,4.06,0.23,0.00,14.22,0.81,2.09,1.92,0.00,-5.33,1.20,70.22,1100,1100,1100,1100,1036,1500,1508,11054,808
143916,9,-9.57,-3.16,-0.42,0.152,0.073,0.737,-1.84,4.86,0.00,0.00,1.84,-4.86,0.00,6.43,-17.02,15.99,-13.86,0.00,4.72,0.02,2.99,1100,1100,1100,1100,1036,1500,1508,11054,808
143929,9,5.08,-14.72,3.39,0.262,0.082,1.111,-2.74,4.87,0.00,0.00,2.74,-4.87,0.00,9.60,-17.04,4.51,-2.32,0.00,-1.41,6.23,-70.48,1100,1100,1100,1100,1036,1500,1508,11050,808
143941,9,5.74,1.97,1.35,-0.083,-0.296,0.807,-4.85,3.80,0.00,0.00,4.85,-3.80,0.00,16.97,-13.31,11.22,-15.28,0.00,-2.67,-1.87,-20.03,1100,1100,1100,1100,1036,1500,1508,11054,808
143952,9,-2.75,1.18,0.18,-0.106,-0.256,1.128,-4.22,6.24,0.00,0.00,4.22,-6.24,0.00,14.77,-21.86,17.52,-23.04,0.00,2.43,-3.27,2.81,1100,1100,1100,1100,1036,1500,1508,11058,808
143964,9,6.23,-1.26,-0.66,-0.048,-0.230,0.926,-8.00,1.04,0.00,0.00,8.00,-1.04,0.00,27.99,-3.63,21.75,-2.36,0.00,-2.06,0.12,8.96,1100,1100,1100,1100,1034,1500,1510,11058,808
143977,9,-13.04,-0.56,-1.71,0.297,0.275,0.779,4.17,9.35,0.00,0.00,-4.17,-9.35,0.00,-14.58,-32.72,-1.55,-32.16,0.00,5.79,-3.05,31.04,1100,1100,1100,1100,1034,1500,1510,11050,808
143989,9,10.98,-12.86,0.31,0.068,0.009,1.065,-2.64,4.75,0.00,0.00,2.64,-4.75,0.00,9.25,-16.62,-1.73,-3.75,0.00,-4.24,4.28,-1.27,1100,1100,1100,1100,1031,1500,1513,11058,808
144001,9,14.72,-4.41,1.55,0.014,-0.027,0.888,0.22,3.00,0.00,0.00,-0.22,-3.00,0.00,-0.78,-10.51,-15.50,-6.10,0.00,-7.28,1.20,-33.01,1100,1100,1100,1100,1035,1500,1509,11058,808
144012,9,-2.54,-7.13,-0.41,-0.001,0.039,1.140,-0.28,2.74,0.00,0.00,0.28,-2.74,0.00,0.99,-9.58,3.54,-2.45,0.00,1.77,1.71,12.04,1100,1100,1100,1100,1035,1500,1509,11062,808
144024,9,1.01,-10.38,3.98,-0.044,-0.426,1.103,-6.42,-0.85,0.00,0.00,6.42,0.85,0.00,22.45,2.98,21.44,13.36,0.00,0.72,4.90,-79.68,1100,1100,1100,1100,1035,1500,1509,11062,808
144036,9,-3.36,8.95,-2.32,-0.119,0.053,0.960,-1.87,-1.20,0.00,0.00,1.87,1.20,0.00,6.55,4.21,9.91,-4.74,0.00,1.55,-4.59,47.94,1100,1100,1100,1100,1035,1500,1509,11054,808
144049,9,3.17,2.77,1.20,-0.082,-0.171,1.176,-3.71,-1.58,0.00,0.00,3.71,1.58,0.00,12.97,5.54,9.80,2.77,0.00,-0.35,-1.69,-13.43,1100,1100,1100,1100,1036,1500,1509,11050,808
144061,9,-4.93,10.33,-0.17,-0.147,-0.240,1.134,-3.36,-3.24,0.00,0.00,3.36,3.24,0.00,11.77,11.36,16.70,1.02,0.00,2.45,-3.69,-0.51,1100,1100,1100,1100,1025,1500,1520,11050,808
144073,9,-9.99,-1.32,-1.73,0.225,0.330,0.929,-0.30,1.68,0.00,0.00,0.30,-1.68,0.00,1.03,-5.88,11.03,-4.56,0.00,5.06,0.50,44.14,1100,1100,1100,1100,1025,1500,1520,11050,808
144084,9,9.00,-5.24,1.32,0.095,0.247,0.801,0.42,1.33,0.00,6.75,-0.42,5.42,0.00,-1.46,18.97,-10.46,24.21,0.00,-4.49,4.00,-24.32,1100,1100,1100,1100,1000,1500,1575,11045,808
144096,9,7.05,-2.87,-1.90,0.093,-0.372,0.966,-4.65,4.62,0.00,6.75,4.65,2.13,0.00,16.27,7.44,9.22,10.31,0.00,-2.88,1.80,36.51,1100,1100,1100,1100,1000,1500,1575,11050,808
144109,9,0.18,-2.14,1.82,0.076,-0.314,0.994,-4.83,6.88,0.00,0.00,4.83,-6.88,0.00,16.89,-24.08,16.71,-21.94,0.00,0.59,0.11,-35.92,1100,1100,1100,1100,1034,1500,1510,11041,808
144121,9,0.27,-1.91,-0.49,-0.203,-0.017,1.156,-3.67,4.12,0.00,0.00,3.67,-4.12,0.00,12.85,-14.44,12.58,-12.53,0.00,0.52,0.17,-0.22,1100,1100,1100,1100,1035,1500,1509,11041,808
144132,9,0.60,3.73,-2.88,-0.140,-0.259,1.043,-5.38,0.76,0.00,0.00,5.38,-0.76,0.00,18.81,-2.65,18.21,-6.38,0.00,0.18,-1.16,61.53,1100,1100,1100,1100,1035,1500,1509,11037,808
144145,9,-6.72,1.65,1.19,0.075,-0.042,0.775,-4.43,1.53,0.00,0.00,4.43,-1.53,0.00,15.50,-5.36,22.22,-7.01,0.00,3.89,-1.32,-27.22,1100,1100,1100,1100,1032,1500,1512,11041,808
144156,9,1.01,2.29,-1.09,-0.034,0.218,1.177,-2.81,-0.73,0.00,0.00,2.81,0.73,0.00,9.82,2.55,8.82,0.26,0.00,-0.20,-0.40,22.32,1100,1100,1100,1100,1032,1500,1512,11045,808
144169,9,-0.27,-2.74,3.14,0.120,0.344,0.665,2.99,2.74,0.00,0.00,-2.99,-2.74,0.00,-10.47,-9.58,-10.20,-6.83,0.00,-0.60,0.53,-57.20,1100,1100,1100,1100,1036,1500,1508,11050,808
144181,9,0.35,-10.06,0.68,0.335,-0.071,0.812,-1.36,9.57,0.00,0.00,1.36,-9.57,0.00,4.75,-33.49,4.40,-23.42,0.00,0.56,2.83,-11.82,1100,1100,1100,1100,1025,1500,1519,11050,808
144192,9,0.45,11.70,-1.45,-0.009,-0.663,1.135,-3.17,12.63,0.00,0.00,3.17,-12.63,0.00,11.09,-44.19,10.64,-55.89,0.00,0.62,-8.63,35.02,1100,1100,1100,1100,1025,1500,1519,11054,808
144204,9,-14.87,14.97,2.24,-0.363,0.040,1.063,-1.24,8.29,0.00,0.00,1.24,-8.29,0.00,4.33,-29.01,19.19,-43.98,0.00,7.13,-9.24,-40.44,1100,1100,1100,1100,1035,1500,1509,11058,808
144216,9,0.23,0.38,-1.10,0.467,0.182,1.060,-2.15,6.03,0.00,0.00,2.15,-6.03,0.00,7.53,-21.09,7.29,-21.48,0.00,0.15,0.12,24.02,1100,1100,1100,1100,1035,1500,1509,11062,808
144229,9,-6.33,11.88,-2.55,-0.065,-0.054,0.870,-0.70,-0.32,0.00,0.00,0.70,0.32,0.00,2.45,1.12,8.79,-10.76,0.00,2.57,-4.07,45.75,1100,1100,1100,1100,1034,1500,1510,11050,808
144241,9,-2.39,-4.32,0.01,0.318,0.419,0.736,0.97,2.62,0.00,0.00,-0.97,-2.62,0.00,-3.39,-9.17,-1.00,-4.84,0.00,1.49,2.97,-5.87,1100,1100,1100,1100,1034,1500,1510,11050,813
144252,9,9.69,4.42,2.29,0.092,-0.172,1.168,-3.38,-0.18,0.00,0.00,3.38,0.18,0.00,11.82,0.64,2.13,-3.77,0.00,-4.72,-0.51,-48.77,1100,1100,1100,1100,1034,1500,1510,11054,813
144264,9,-2.50,-1.83,0.66,-0.232,0.116,1.108,-1.83,-3.33,0.00,0.00,1.83,3.33,0.00,6.42,11.65,8.92,13.48,0.00,1.73,2.49,-8.53,1100,1100,1100,1100,1034,1500,1510,11058,813
144277,9,8.64,-8.19,-0.49,-0.151,0.028,1.304,-5.93,-4.70,0.00,0.00,5.93,4.70,0.00,20.75,16.45,12.12,24.64,0.00,-3.07,6.45,9.34,1100,1100,1100,1100,1034,1500,1510,11054,813
144289,9,-7.46,19.04,-2.86,-0.275,-0.243,1.141,-3.13,-6.01,0.00,2.52,3.13,8.53,0.00,10.95,29.86,18.42,10.82,0.00,3.49,-5.57,54.78,1100,1100,1100,1100,1016,1500,1528,11041,813
144301,9,-1.65,3.36,2.36,0.050,0.078,1.078,-3.72,-3.67,0.00,0.00,3.72,3.67,0.00,13.01,12.85,14.66,9.49,0.00,1.76,0.92,-38.55,1100,1100,1100,1100,1034,1500,1510,11037,813
144312,9,8.90,-4.32,1.50,0.011,-0.099,0.887,-5.16,-2.82,0.00,0.00,5.16,2.82,0.00,18.05,9.86,9.14,14.19,0.00,-4.14,4.13,-24.09,1100,1100,1100,1100,1034,1500,1510,11045,813
144324,9,-7.90,0.26,-2.18,-0.014,0.285,0.931,-0.11,3.38,0.00,0.00,0.11,-3.38,0.00,0.39,-11.84,8.29,-12.10,0.00,3.71,-0.93,48.94,1100,1100,1100,1100,1034,1500,1510,11050,813
144336,9,4.95,-7.34,0.49,0.102,-0.171,0.876,-4.79,2.67,0.00,0.00,4.79,-2.67,0.00,16.75,-9.36,11.81,-2.02,0.00,-1.34,3.34,-12.60,1100,1100,1100,1100,1034,1500,1510,11050,813
144349,9,0.07,3.22,1.39,-0.159,-0.468,1.130,-5.18,5.09,0.00,0.00,5.18,-5.09,0.00,18.13,-17.83,18.06,-21.05,0.00,0.30,-3.23,-29.47,1100,1100,1100,1100,1034,1500,1510,11050,808
144361,9,3.00,-3.09,0.77,-0.077,-0.172,1.037,-4.17,7.33,0.00,2.79,4.17,-4.54,0.00,14.61,-15.91,11.61,-12.81,0.00,-0.53,-0.03,-3.14,1100,1100,1100,1100,1013,1500,1531,11054,808
144372,9,-1.18,-2.31,-1.64,0.068,0.002,0.929,-3.61,7.98,0.00,2.79,3.61,-5.19,0.00,12.64,-18.17,13.83,-15.86,0.00,1.07,0.03,30.14,1100,1100,1100,1100,1013,1500,1531,11050,808
144385,9,-5.81,6.46,-2.15,0.312,-0.042,1.063,-3.44,13.17,0.00,0.00,3.44,-13.17,0.00,12.05,-46.09,17.86,-52.56,0.00,3.38,-5.58,39.37,1100,1100,1100,1100,1035,1500,1509,11050,808
144396,9,2.17,-0.59,3.76,0.094,0.036,0.715,-1.68,6.69,0.00,0.00,1.68,-6.69,0.00,5.86,-23.43,3.69,-22.84,0.00,-0.75,0.06,-85.52,1100,1100,1100,1100,1035,1500,1509,11045,808
144409,9,3.44,3.48,-3.40,0.000,0.093,0.974,-3.24,2.47,0.00,0.00,3.24,-2.47,0.00,11.33,-8.64,7.90,-12.12,0.00,-1.41,-1.06,61.21,1100,1100,1100,1100,1033,1500,1511,11041,808
144421,9,-2.18,0.91,1.89,-0.289,0.084,1.218,-2.52,1.00,0.00,0.00,2.52,-1.00,0.00,8.83,-3.51,11.01,-4.41,0.00,1.37,-0.46,-25.74,1100,1100,1100,1100,1033,1500,1511,11045,808
144432,9,-2.11,-11.66,2.28,0.033,-0.051,1.014,-3.38,2.54,0.00,0.00,3.38,-2.54,0.00,11.81,-8.89,13.93,2.78,0.00,1.49,5.37,-47.47,1100,1100,1100,1100,1033,1500,1511,11045,808
144445,9,2.83,-1.09,-1.82,0.036,-0.508,1.016,-7.50,0.64,0.00,0.00,7.50,-0.64,0.00,26.24,-2.24,23.41,-1.15,0.00,-0.49,0.67,45.72,1100,1100,1100,1100,1033,1500,1511,11045,808
144456,9,-4.22,2.71,0.67,-0.129,-0.062,0.832,-3.39,1.88,0.00,0.00,3.39,-1.88,0.00,11.86,-6.57,16.08,-9.28,0.00,2.60,-2.62,-11.20,1100,1100,1100,1100,1033,1500,1511,11041,808
144469,9,-1.35,4.06,-1.01,-0.053,-0.218,1.316,-6.38,0.55,0.00,0.00,6.38,-0.55,0.00,22.34,-1.94,23.69,-5.99,0.00,1.72,-2.02,17.83,1100,1100,1100,1100,1030,1500,1514,11045,808
144481,9,-5.41,10.37,1.40,0.084,-0.002,0.823,-2.48,0.43,0.00,0.00,2.48,-0.43,0.00,8.68,-1.50,14.09,-11.88,0.00,2.59,-4.72,-27.12,1100,1100,1100,1100,1036,1500,1509,11050,808
144492,9,2.44,-2.52,-1.44,-0.141,0.386,0.943,-1.99,-1.14,0.00,0.00,1.99,1.14,0.00,6.96,3.98,4.53,6.50,0.00,-0.80,2.49,29.48,1100,1100,1100,1100,1036,1500,1509,11050,808
144505,9,10.70,0.16,-0.20,-0.020,-0.559,1.254,-5.35,1.86,0.00,0.00,5.35,-1.86,0.00,18.72,-6.53,8.03,-6.68,0.00,-4.36,0.34,7.33,1100,1100,1100,1100,1035,1500,1510,11050,808
144516,9,-6.62,-7.39,1.01,-0.181,-0.198,0.826,-2.54,1.59,0.00,0.00,2.54,-1.59,0.00,8.88,-5.58,15.50,1.81,0.00,3.27,2.63,-16.65,1100,1100,1100,1100,1035,1500,1510,11041,808
144529,9,-1.01,-6.97,1.14,-0.016,-0.215,1.255,-5.28,0.55,0.00,0.00,5.28,-0.55,0.00,18.49,-1.94,19.50,5.03,0.00,1.63,3.14,-20.41,1100,1100,1100,1100,1037,1500,1508,11050,808
144541,9,-1.90,8.57,-0.90,-0.011,-0.312,0.840,-3.34,2.34,0.00,0.00,3.34,-2.34,0.00,11.68,-8.19,13.58,-16.76,0.00,0.77,-4.74,14.41,1100,1100,1100,1100,1035,1500,1510,11045,808
144552,9,-8.52,4.49,-0.87,0.164,-0.181,0.870,-5.51,6.54,0.00,0.00,5.51,-6.54,0.00,19.29,-22.89,27.81,-27.38,0.00,5.21,-3.65,21.41,1100,1100,1100,1100,1035,1500,1510,11050,808
144564,9,5.33,9.94,0.63,-0.011,0.061,1.128,-4.55,4.52,0.00,0.00,4.55,-4.52,0.00,15.94,-15.83,10.61,-25.77,0.00,-2.25,-5.13,-11.21,1100,1100,1100,1100,1035,1500,1510,11054,808
144576,9,-9.85,-0.93,0.36,-0.250,0.310,0.990,-1.99,3.90,0.00,0.00,1.99,-3.90,0.00,6.95,-13.64,16.80,-12.70,0.00,4.78,-0.54,-0.66,1100,1100,1100,1100,1035,1500,1510,11058,808
144589,9,9.61,-15.60,-0.65,0.234,0.034,0.870,-2.27,2.35,0.00,0.00,2.27,-2.35,0.00,7.95,-8.22,-1.66,7.38,0.00,-3.83,7.66,16.14,1100,1100,1100,1100,1029,1500,1516,11062,808
144601,9,-0.88,7.70,-2.63,-0.199,-0.538,1.159,-4.93,-0.08,0.00,0.00,4.93,0.08,0.00,17.26,0.28,18.14,-7.41,0.00,0.77,-3.75,51.04,1100,1100,1100,1100,1026,1500,1519,11058,808
144612,9,-2.18,-5.05,2.92,0.047,-0.180,1.121,-2.95,3.48,0.00,0.00,2.95,-3.48,0.00,10.32,-12.19,12.51,-7.14,0.00,1.82,1.27,-60.94,1100,1100,1100,1100,1026,1500,1519,11066,808
144624,9,4.99,3.46,1.37,-0.178,-0.143,0.953,-5.98,1.79,0.00,0.00,5.98,-1.79,0.00,20.93,-6.25,15.94,-9.71,0.00,-1.70,-1.92,-35.16,1100,1100,1100,1100,1035,1500,1510,11054,808
144636,9,-11.27,14.60,-4.50,-0.285,-0.163,1.159,-2.77,1.05,0.00,0.00,2.77,-1.05,0.00,9.71,-3.67,20.97,-18.26,0.00,5.74,-7.55,89.62,1100,1100,1100,1100,1035,1500,1510,11041,808
144649,9,-0.67,1.64,-0.59,0.124,-0.226,0.929,-7.35,1.89,0.00,0.00,7.35,-1.89,0.00,25.73,-6.61,26.40,-8.25,0.00,1.60,-1.36,16.42,1100,1100,1100,1100,1035,1500,1510,11050,808
144661,9,-0.68,-0.55,-3.70,0.143,0.224,0.941,-0.14,5.73,0.00,2.70,0.14,-3.03,0.00,0.49,-10.62,1.17,-10.07,0.00,-0.00,-0.25,62.03,1100,1100,1100,1100,1016,1500,1530,11054,808
144673,9,-8.06,-6.14,-1.62,0.348,0.394,0.764,1.90,6.44,0.00,2.70,-1.90,-3.74,0.00,-6.66,-13.08,1.40,-6.94,0.00,3.64,2.13,35.32,1100,1100,1100,1100,1016,1500,1530,11054,808
144684,9,5.96,-9.02,1.62,0.248,-0.088,0.618,-0.18,8.06,0.00,0.00,0.18,-8.06,0.00,0.63,-28.22,-5.33,-19.21,0.00,-2.94,3.63,-42.68,1100,1100,1100,1100,1038,1500,1508,11050,808
144697,9,0.37,7.34,-1.70,-0.079,-0.525,1.146,-3.70,5.56,0.00,0.00,3.70,-5.56,0.00,12.95,-19.45,12.58,-26.78,0.00,0.21,-3.87,27.07,1100,1100,1100,1100,1038,1500,1508,11050,808
144709,9,-3.58,8.52,2.54,-0.176,-0.325,0.764,-4.68,8.24,0.00,3.33,4.68,-4.91,0.00,16.38,-17.19,19.95,-25.71,0.00,2.36,-5.13,-49.90,1100,1100,1100,1100,1009,1500,1537,11033,808
144721,9,2.33,-2.63,-0.99,-0.232,-0.232,1.164,-7.96,7.86,0.00,0.00,7.96,-7.86,0.00,27.87,-27.49,25.54,-24.86,0.00,0.13,-0.25,11.32,1100,1100,1100,1100,1036,1500,1510,11033,808
144732,9,-2.95,12.41,-2.73,-0.332,-0.344,1.394,-5.89,1.22,0.00,0.00,5.89,-1.22,0.00,20.63,-4.25,23.58,-16.67,0.00,2.03,-5.94,58.72,1100,1100,1100,1100,1036,1500,1510,11033,808
144745,9,-8.58,-3.36,1.51,0.050,0.231,0.904,-2.51,1.94,0.00,0.00,2.51,-1.94,0.00,8.80,-6.78,17.38,-3.42,0.00,4.60,0.91,-26.23,1100,1100,1100,1100,1038,1500,1510,11045,808
144756,9,6.61,-4.22,0.05,0.306,0.270,1.106,-2.39,2.71,0.00,0.00,2.39,-2.71,0.00,8.37,-9.49,1.75,-5.27,0.00,-2.80,1.78,3.25,1100,1100,1100,1100,1038,1500,1510,11050,808
144769,9,4.41,-11.74,4.23,0.096,-0.137,0.737,-1.51,5.03,0.00,0.00,1.51,-5.03,0.00,5.28,-17.60,0.87,-5.86,0.00,-2.21,4.09,-80.44,1100,1100,1100,1100,1041,1500,1508,11045,808
144781,9,-1.24,-8.92,-1.75,0.196,-0.013,0.923,-2.33,6.18,0.00,0.00,2.33,-6.18,0.00,8.17,-21.63,9.41,-12.72,0.00,1.31,2.96,35.70,1100,1100,1100,1100,1042,1500,1509,11054,808
144793,9,5.77,14.83,0.61,-0.367,-0.355,1.161,-3.61,1.49,0.00,0.00,3.61,-1.49,0.00,12.62,-5.21,6.85,-20.04,0.00,-2.63,-6.84,-7.50,1100,1100,1100,1100,1042,1500,1509,11066,808
144804,9,-4.46,0.88,1.38,-0.145,0.159,0.999,-0.00,5.79,0.00,1.89,0.00,-3.90,0.00,0.01,-13.64,4.47,-14.51,0.00,2.19,-1.28,-33.29,1100,1100,1100,1100,1030,1500,1521,11058,808
144816,9,7.08,-10.81,-1.73,0.217,-0.186,0.960,-6.59,9.97,0.00,1.89,6.59,-8.08,0.00,23.07,-28.28,15.99,-17.47,0.00,-2.35,4.06,34.19,1100,1100,1100,1100,1030,1500,1521,11054,808
144829,9,-14.21,14.76,-1.88,-0.303,-0.245,1.102,-3.01,4.77,0.00,0.00,3.01,-4.77,0.00,10.54,-16.69,24.75,-31.44,0.00,6.74,-7.79,34.95,1100,1100,1100,1100,1043,1500,1508,11062,808
144841,9,-5.70,-2.91,-0.95,0.184,0.355,1.036,-1.46,1.05,0.00,0.00,1.46,-1.05,0.00,5.12,-3.67,10.83,-0.77,0.00,3.46,1.98,26.32,1100,1100,1100,1100,1044,1500,1509,11062,807
144852,9,9.78,5.08,2.36,0.112,0.127,0.916,-0.15,-0.51,0.00,0.00,0.15,0.51,0.00,0.51,1.80,-9.27,-3.28,0.00,-5.26,-0.43,-46.23,1100,1100,1100,1100,1044,1500,1509,11054,807
144864,9,-1.82,1.65,-1.37,-0.174,-0.054,1.022,1.86,-1.22,0.00,0.00,-1.86,1.22,0.00,-6.52,4.26,-4.70,2.62,0.00,0.88,0.58,26.54,1100,1100,1100,1100,1045,1500,1508,11054,807
144876,9,9.76,-1.10,2.12,-0.102,-0.506,1.229,-4.06,0.40,0.00,0.00,4.06,-0.40,0.00,14.19,-1.42,4.43,-0.32,0.00,-3.59,1.97,-44.88,1100,1100,1100,1100,1045,1500,1508,11050,807
144889,9,-9.67,16.74,-1.38,-0.126,-0.223,1.041,-3.17,7.73,0.00,0.00,3.17,-7.73,0.00,11.10,-27.06,20.76,-43.80,0.00,4.71,-8.98,22.46,1100,1100,1100,1100,1044,1500,1509,11062,807
144901,9,-1.22,-8.31,-0.23,0.320,0.257,0.814,-0.22,10.21,0.00,0.00,0.22,-10.21,0.00,0.76,-35.73,1.98,-27.42,0.00,1.21,2.89,14.37,1100,1100,1100,1100,1045,1500,1511,11058,807
144912,9,2.86,2.13,-0.21,-0.108,0.026,0.860,-2.03,7.94,0.00,0.00,2.03,-7.94,0.00,7.12,-27.78,4.26,-29.91,0.00,-1.65,-2.14,9.98,1100,1100,1100,1100,1045,1500,1511,11054,807
144924,9,-12.48,-1.40,-2.88,0.182,0.150,0.954,-2.16,9.08,0.00,0.00,2.16,-9.08,0.00,7.58,-31.77,20.05,-30.36,0.00,6.32,-1.72,61.89,1100,1100,1100,1100,1047,1500,1509,11058,807
144937,9,5.76,-10.00,1.58,0.335,0.046,0.762,-4.11,8.55,0.00,0.00,4.11,-8.55,0.00,14.39,-29.93,8.63,-19.92,0.00,-2.04,3.84,-43.63,1100,1100,1100,1100,1047,1500,1509,11058,807
144949,9,1.78,6.94,-0.44,-0.123,-0.167,1.066,-5.16,3.19,0.00,0.00,5.16,-3.19,0.00,18.07,-11.15,16.29,-18.09,0.00,-0.62,-3.18,2.63,1100,1100,1100,1100,1048,1500,1508,11050,831
144961,9,8.90,-7.88,3.74,-0.021,-0.229,1.122,-2.96,3.85,0.00,0.00,2.96,-3.85,0.00,10.38,-13.46,1.47,-5.58,0.00,-3.57,2.91,-63.52,1100,1100,1100,1100,1050,1500,1509,11054,831
144972,9,0.55,1.56,-0.55,-0.376,-0.365,0.990,-8.10,4.03,0.00,0.00,8.10,-4.03,0.00,28.35,-14.09,27.80,-15.65,0.00,0.67,-1.52,9.44,1100,1100,1100,1100,1050,1500,1509,11045,831
144984,9,-10.43,13.68,-3.60,-0.184,-0.111,1.329,-4.72,1.29,0.00,0.00,4.72,-1.29,0.00,16.53,-4.50,26.96,-18.19,0.00,5.98,-6.85,73.74,1100,1100,1100,1100,1047,1500,1512,11050,831
144997,9,-1.27,-3.08,2.27,0.005,0.079,0.679,-4.42,-1.66,0.00,0.00,4.42,1.66,0.00,15.48,5.80,16.75,8.88,0.00,0.93,2.20,-50.07,1100,1100,1100,1100,1047,1500,1512,11050,831
145009,9,7.33,2.21,-1.86,0.038,0.169,1.095,-1.30,-0.11,0.00,0.00,1.30,0.11,0.00,4.56,0.37,-2.77,-1.84,0.00,-3.30,-0.59,34.70,1100,1100,1100,1100,1052,1500,1515,11054,831
145021,9,5.95,-17.67,1.93,0.495,0.033,0.685,-3.69,15.08,0.00,0.00,3.69,-15.08,0.00,12.93,-52.78,6.98,-35.12,0.00,-2.43,5.77,-26.73,1100,1100,1100,1100,1058,1500,1512,11066,831
145033,9,-3.62,-10.22,2.57,0.392,-0.092,0.807,-3.86,17.48,0.00,0.00,3.86,-17.48,0.00,13.51,-61.19,17.14,-50.97,0.00,2.39,1.21,-50.62,1100,1100,1100,1100,1058,1500,1512,11062,831
145045,9,3.32,6.97,-1.18,-0.072,-0.293,1.203,-6.02,10.23,0.00,0.00,6.02,-10.23,0.00,21.06,-35.81,17.74,-42.78,0.00,-0.76,-6.22,25.32,1100,1100,1100,1100,1074,1500,1512,11058,815
145056,9,-0.55,10.90,0.07,-0.387,-0.389,0.913,-3.74,0.66,0.00,0.00,3.74,-0.66,0.00,13.09,-2.32,13.65,-13.22,0.00,0.72,-5.20,-1.42,1100,1100,1100,1100,1074,1500,1512,11062,815
145069,9,-5.21,14.14,-1.20,-0.330,-0.336,1.478,-4.99,-2.72,0.00,0.00,4.99,2.72,0.00,17.45,9.50,22.66,-4.64,0.00,3.69,-4.95,26.11,1100,1100,1100,1100,1079,1500,1511,11054,815
145081,9,-7.58,8.97,0.26,-0.054,0.004,1.016,-2.77,-1.57,0.00,2.43,2.77,4.00,0.00,9.70,13.99,17.28,5.02,0.00,3.66,-2.52,-0.85,1100,1100,1100,1100,1066,1500,1527,11045,815
145093,9,-3.54,-7.73,-1.23,0.386,0.589,0.664,4.28,2.83,0.00,2.43,-4.28,-0.40,0.00,-15.00,-1.40,-11.46,6.34,0.00,1.15,4.61,17.51,1100,1100,1100,1100,1066,1500,1527,11041,815
145105,9,15.47,-6.37,-1.88,0.036,-0.055,1.144,-2.00,-0.87,0.00,1.98,2.00,2.85,0.00,6.98,9.96,-8.49,16.33,0.00,-7.07,4.31,33.41,1100,1100,1100,1100,1074,1500,1522,11037,815
145116,9,0.29,-5.57,1.52,-0.327,-0.130,0.976,0.03,-1.84,0.00,1.98,-0.03,3.82,0.00,-0.10,13.39,-0.39,18.96,0.00,-0.41,3.16,-31.35,1100,1100,1100,1100,1074,1500,1522,11045,815
145129,9,0.43,-8.09,2.28,0.091,-0.173,1.108,-5.29,0.17,0.00,0.00,5.29,-0.17,0.00,18.53,-0.60,18.10,7.49,0.00,1.31,3.40,-48.48,1100,1100,1100,1100,1094,1500,1511,11050,815
145141,9,1.83,7.34,-0.39,-0.103,-0.324,0.826,-6.20,1.14,0.00,1.89,6.20,0.75,0.00,21.70,2.61,19.88,-4.73,0.00,-0.83,-3.27,5.54,1100,1100,1100,1100,1088,1500,1521,11050,823
145152,9,-3.85,-4.03,-1.59,0.307,0.088,0.722,-3.59,10.70,0.00,1.89,3.59,-8.81,0.00,12.55,-30.85,16.40,-26.81,0.00,2.74,-0.84,29.53,1100,1100,1100,1100,1088,1500,1521,11037,823
145165,9,8.59,-3.22,-1.47,0.144,-0.190,0.959,-4.31,10.44,0.00,0.00,4.31,-10.44,0.00,15.09,-36.55,6.50,-33.33,0.00,-3.46,-0.37,26.80,1100,1100,1100,1100,1104,1500,1511,11050,823
145176,9,-13.06,6.52,-0.79,0.241,0.347,0.784,5.24,16.80,0.00,0.00,-5.24,-16.80,0.00,-18.34,-58.78,-5.28,-65.31,0.00,5.30,-6.81,10.36,1100,1100,1100,1100,1104,1500,1511,11050,823
145190,9,-11.98,3.67,0.02,0.243,0.140,0.871,-4.23,18.15,0.00,0.00,4.23,-18.15,0.00,14.81,-63.53,26.79,-67.21,0.00,6.09,-5.07,-11.55,1100,1100,1100,1100,1104,1500,1511,11050,823
145201,9,3.33,0.80,-1.97,0.015,-0.612,0.831,-7.10,11.47,0.00,0.00,7.10,-11.47,0.00,24.83,-40.13,21.51,-40.93,0.00,-2.22,-1.56,21.57,1100,1100,1100,1100,1113,1500,1508,11037,823
145212,9,-8.82,3.25,-0.70,-0.269,-0.441,1.041,-7.13,9.44,0.00,0.00,7.13,-9.44,0.00,24.94,-33.03,33.76,-36.28,0.00,5.15,-4.23,10.36,1100,1100,1100,1100,1113,1500,1508,11037,823
145225,9,2.05,3.80,2.55,-0.073,-0.323,1.137,-7.27,6.10,0.00,0.00,7.27,-6.10,0.00,25.45,-21.34,23.40,-25.15,0.00,-0.04,-3.32,-57.66,1100,1100,1100,1100,1116,1500,1511,11037,823
145236,9,-6.89,12.48,-1.96,-0.214,0.215,1.153,-1.85,1.91,0.00,0.00,1.85,-1.91,0.00,6.49,-6.70,13.38,-19.18,0.00,3.02,-7.19,37.62,1100,1100,1100,1100,1116,1500,1511,11041,823
145249,9,-2.40,-4.62,-0.48,0.188,0.123,0.950,-4.03,2.20,0.00,3.69,4.03,1.49,0.00,14.11,5.22,16.52,9.84,0.00,1.79,2.33,12.80,1100,1100,1100,1100,1086,1500,1541,11037,888
145261,9,-1.24,11.00,-0.66,-0.042,-0.164,0.987,-2.39,1.24,0.00,2.88,2.39,1.64,0.00,8.35,5.74,9.59,-5.26,0.00,0.15,-4.36,10.61,1100,1100,1100,1100,1095,1500,1532,11033,888
145273,9,-4.76,-4.34,1.16,0.400,0.305,0.811,0.44,6.76,0.00,2.88,-0.44,-3.88,0.00,-1.53,-13.59,3.24,-9.25,0.00,2.31,1.35,-12.96,1100,1100,1100,1100,1095,1500,1532,11037,888
145285,9,10.41,-0.63,4.41,-0.107,0.225,1.056,-0.46,1.32,0.00,0.00,0.46,-1.32,0.00,1.61,-4.63,-8.80,-4.00,0.00,-4.85,0.74,-85.37,1100,1100,1100,1100,1128,1500,1510,11029,888
145296,9,6.23,-3.02,-0.35,0.043,-0.082,0.938,-4.14,4.31,0.00,0.00,4.14,-4.31,0.00,14.51,-15.09,8.28,-12.08,0.00,-3.14,1.59,1.02,1100,1100,1100,1100,1128,1500,1510,11033,888
145309,9,6.18,-3.06,0.67,-0.024,-0.496,1.019,-6.07,4.16,0.00,0.00,6.07,-4.16,0.00,21.24,-14.55,15.07,-11.49,0.00,-1.98,1.09,-11.27,1100,1100,1100,1100,1128,1500,1510,11033,888
145321,9,-3.23,6.42,0.81,-0.362,-0.092,1.250,-4.51,3.88,0.00,0.00,4.51,-3.88,0.00,15.77,-13.59,18.99,-20.01,0.00,2.03,-3.83,-17.81,1100,1100,1100,1100,1132,1500,1511,11033,888
145332,9,-8.01,2.28,-0.58,0.155,-0.068,1.095,-3.07,6.75,0.00,0.00,3.07,-6.75,0.00,10.74,-23.62,18.75,-25.89,0.00,4.34,-2.26,22.40,1100,1100,1100,1100,1132,1500,1511,11045,888
145345,9,-1.81,-0.45,1.23,0.038,-0.010,0.611,-2.99,5.27,0.00,3.69,2.99,-1.58,0.00,10.45,-5.52,12.26,-5.07,0.00,0.94,-0.05,-22.11,1100,1100,1100,1100,1107,1500,1541,11050,815
145356,9,3.05,-0.67,-2.33,0.008,0.228,0.957,-2.87,2.38,0.00,3.69,2.87,1.31,0.00,10.04,4.59,6.99,5.26,0.00,-1.29,0.15,38.00,1100,1100,1100,1100,1107,1500,1541,11050,815
145369,9,-1.58,0.96,2.53,-0.014,0.083,1.038,-2.73,1.44,0.00,3.60,2.73,2.16,0.00,9.56,7.55,11.14,6.60,0.00,0.90,-0.83,-53.32,1100,1100,1100,1100,1108,1500,1540,11045,815
145381,9,8.11,-18.39,5.37,0.163,0.020,0.851,-3.18,3.89,0.00,3.60,3.18,-0.29,0.00,11.14,-1.01,3.02,17.37,0.00,-3.31,8.12,-106.52,1100,1100,1100,1100,1118,1500,1540,11050,815
145392,9,10.04,-1.93,-0.38,-0.085,-0.321,1.166,-5.48,5.90,0.00,3.60,5.48,-2.30,0.00,19.18,-8.04,9.15,-6.11,0.00,-4.37,0.04,23.08,1100,1100,1100,1100,1118,1500,1540,11041,815
145405,9,-4.23,5.26,-0.86,-0.527,-0.194,1.061,-2.04,1.11,0.00,3.60,2.04,2.49,0.00,7.15,8.70,11.38,3.45,0.00,2.59,-3.48,25.69,1100,1100,1100,1100,1118,1500,1540,11029,815
145416,9,-2.65,8.77,-1.65,-0.238,-0.146,1.330,-4.93,-4.42,0.00,3.60,4.93,8.02,0.00,17.25,28.07,19.90,19.30,0.00,2.31,-2.10,27.57,1100,1100,1100,1100,1118,1500,1540,11033,815
145429,9,-11.55,19.89,0.23,0.021,-0.245,0.974,-4.61,-3.42,0.00,3.60,4.61,7.02,0.00,16.15,24.57,27.69,4.68,0.00,5.86,-7.83,-3.79,1100,1100,1100,1100,1126,1500,1540,11045,815
145441,9,-3.08,-6.42,0.45,0.032,0.375,0.850,-1.60,-1.21,0.00,3.60,1.60,4.81,0.00,5.62,16.82,8.70,23.24,0.00,1.66,4.52,-7.37,1100,1100,1100,1100,1126,1500,1540,11037,820
145452,9,15.85,-4.12,-0.48,-0.064,-0.165,1.158,-5.28,-0.42,0.00,3.60,5.28,4.02,0.00,18.47,14.08,2.62,18.20,0.00,-7.13,3.61,16.04,1100,1100,1100,1100,1126,1500,1540,11050,820
145465,9,-4.32,-3.28,1.70,-0.193,-0.213,1.042,-3.17,-0.71,0.00,3.60,3.17,4.31,0.00,11.10,15.07,15.42,18.34,0.00,2.32,1.77,-28.14,1100,1100,1100,1100,1133,1500,1540,11041,820
145476,9,3.29,-14.35,0.12,0.272,0.107,1.004,-3.09,1.53,0.00,3.60,3.09,2.07,0.00,10.82,7.24,7.53,21.60,0.00,-0.54,6.92,-6.21,1100,1100,1100,1100,1133,1500,1540,11050,820
145489,9,1.75,13.62,0.56,-0.306,-0.273,0.994,-3.08,-2.99,0.00,3.60,3.08,6.59,0.00,10.78,23.07,9.02,9.44,0.00,-1.10,-5.25,-11.19,1100,1100,1100,1100,1133,1500,1540,11058,820
145501,9,-8.06,6.36,-1.25,-0.113,-0.051,0.957,-2.37,-2.25,0.00,3.60,2.37,5.85,0.00,8.28,20.49,16.34,14.13,0.00,4.71,-2.45,22.19,1100,1100,1100,1100,1146,1500,1540,11050,820
145512,9,8.80,3.55,-1.21,0.072,-0.072,1.023,-5.11,0.16,0.00,3.60,5.11,3.44,0.00,17.87,12.04,9.07,8.48,0.00,-3.44,-0.87,25.34,1100,1100,1100,1100,1146,1500,1540,11050,820
145525,9,-15.40,-0.21,-2.31,0.282,0.255,0.822,2.40,6.09,0.00,2.79,-2.40,-3.30,0.00,-8.40,-11.56,7.01,-11.35,0.00,6.80,-0.58,39.00,1100,1100,1100,1100,1155,1500,1531,11045,820
145536,9,6.13,-20.64,-1.33,0.605,0.545,0.637,3.69,12.40,0.00,2.79,-3.69,-9.61,0.00,-12.92,-33.63,-19.05,-12.99,0.00,-2.90,7.84,17.29,1100,1100,1100,1100,1155,1500,1531,11050,820
145549,9,9.45,0.75,2.57,-0.225,-0.750,1.133,-3.97,7.30,0.00,0.00,3.97,-7.30,0.00,13.90,-25.53,4.45,-26.28,0.00,-4.69,-1.63,-66.46,1155,1195,1187,1171,1177,1500,1509,11029,815
145561,9,0.02,3.66,0.20,-0.267,-0.492,1.128,-3.75,2.08,0.00,3.42,3.75,1.34,0.00,13.12,4.69,13.09,1.03,0.00,1.14,-1.80,-7.33,1155,1195,1187,1171,1161,1500,1538,11012,815
145572,9,5.61,7.32,1.77,-0.527,-0.428,1.548,-6.12,-1.06,0.00,3.42,6.12,4.48,0.00,21.42,15.67,15.81,8.35,0.00,-1.81,-1.76,-33.27,1155,1195,1187,1171,1161,1500,1538,10996,815
145585,9,-11.00,1.71,-2.92,0.133,0.018,0.813,-1.85,5.86,0.00,0.00,1.85,-5.86,0.00,6.49,-20.51,17.49,-22.22,0.00,5.10,-2.11,52.50,1155,1195,1187,1171,1190,1500,1509,10979,815
145596,9,-2.04,-3.25,-1.32,0.007,0.058,0.953,-2.31,5.94,0.00,0.00,2.31,-5.94,0.00,8.07,-20.77,10.11,-17.53,0.00,1.90,0.20,24.75,1155,1195,1187,1171,1190,1500,1509,10971,815
145609,9,2.99,7.57,2.18,0.040,-0.044,0.758,-5.54,7.56,0.00,3.60,5.54,-3.96,0.00,19.38,-13.86,16.40,-21.44,0.00,-0.76,-4.22,-50.35,1155,1195,1187,1171,1163,1500,1540,10929,815
145621,9,-2.78,23.33,-3.84,-0.283,-0.212,1.248,-4.21,1.07,0.00,2.07,4.21,1.00,0.00,14.73,3.51,17.51,-19.82,0.00,1.67,-10.97,81.93,1155,1195,1187,1171,1180,1500,1523,10925,815
145632,9,9.96,-2.50,-0.62,-0.072,-0.013,1.209,-4.29,2.96,0.00,2.07,4.29,-0.89,0.00,15.03,-3.10,5.07,-0.60,0.00,-3.64,1.23,25.33,1155,1195,1187,1171,1180,1500,1523,10937,815
145645,9,-2.84,15.67,2.15,-0.616,-0.359,1.486,-4.11,-1.46,0.00,3.60,4.11,5.06,0.00,14.37,17.70,17.21,2.02,0.00,2.23,-5.53,-41.57,1182,1180,1158,1180,1175,1500,1540,10946,816
145656,9,9.40,9.68,-2.60,-0.002,-0.747,1.287,-5.67,1.70,0.00,3.60,5.67,1.90,0.00,19.84,6.66,10.44,-3.03,0.00,-3.47,-4.43,48.80,1182,1180,1158,1180,1175,1500,1540,10954,816
145669,1,17.66,0.11,2.74,-0.898,0.328,1.655,0.49,8.38,0.00,0.00,-0.49,-8.38,0.00,-1.72,-29.33,-19.37,-29.44,0.00,-8.12,-0.46,-55.73,1182,1180,1158,1180,1209,1500,1509,10950,816
145681,1,1.91,-28.51,6.54,0.091,-0.023,0.535,6.45,13.02,0.00,0.00,-6.45,-13.02,0.00,-22.57,-45.59,-24.48,-17.08,0.00,-2.06,12.06,-130.48,1182,1180,1158,1180,1209,1500,1509,10946,816
145692,1,20.64,-6.97,3.58,0.031,0.474,0.654,11.14,16.65,0.00,0.00,-11.14,-16.65,0.00,-39.00,-58.30,-59.64,-51.34,0.00,-11.81,0.10,-74.97,1182,1180,1158,1180,1209,1500,1509,10946,816
145705,1,-5.59,-16.56,-4.32,0.492,1.095,0.352,14.76,9.07,0.00,0.00,-14.76,-9.07,0.00,-51.69,-31.79,-46.10,-15.23,0.00,0.72,6.26,82.35,1182,1180,1158,1180,1209,1500,1509,10937,816
145716,1,1.75,-1.71,-1.19,-0.030,-0.447,0.945,-2.70,0.56,0.00,0.00,2.70,-0.56,0.00,9.42,-2.02,7.66,-0.31,0.00,-0.37,0.26,12.25,1182,1180,1158,1180,1209,1500,1509,10941,816
145729,1,-17.68,18.86,0.42,-0.160,-0.266,1.342,0.29,-1.68,0.00,0.00,-0.29,1.68,0.00,-1.03,5.84,16.65,-13.02,0.00,8.94,-10.03,-18.08,1182,1180,1158,1180,1210,1500,1508,10933,816
145741,1,9.38,-14.71,-1.47,0.185,-0.117,0.917,0.46,2.60,0.00,0.00,-0.46,-2.60,0.00,-1.63,-9.15,-11.02,5.55,0.00,-4.16,4.97,28.86,1189,1237,1237,1173,1209,1500,1510,10929,811
145752,1,5.16,6.45,-6.27,-0.342,-0.058,1.144,-4.81,-6.53,0.00,0.00,4.81,6.53,0.00,16.80,22.79,11.64,16.34,0.00,-1.44,-3.11,147.61,1189,1237,1237,1173,1209,1500,1510,10921,811
145765,1,6.00,-8.01,6.21,-1.175,-1.032,1.893,2.65,-2.33,0.00,0.00,-2.65,2.33,0.00,-9.32,8.12,-15.32,16.13,0.00,-3.20,1.00,-113.85,1189,1237,1237,1173,1210,1500,1510,10916,811
145776,1,-13.71,-6.82,2.66,0.117,-0.231,0.345,7.59,9.95,0.00,0.00,-7.59,-9.95,0.00,-26.60,-34.87,-12.89,-28.05,0.00,5.82,0.91,-77.90,1189,1237,1237,1173,1210,1500,1510,10900,811
145789,1,-24.06,47.86,-4.28,-0.329,0.926,1.329,6.48,-2.79,0.00,0.00,-6.48,2.79,0.00,-22.74,9.73,1.32,-38.14,0.00,11.92,-21.71,76.04,1189,1237,1237,1173,1218,1500,1510,10891,811
145801,1,28.46,-7.02,4.02,0.970,0.975,1.045,-0.27,1.06,0.00,0.00,0.27,-1.06,0.00,0.92,-3.76,-27.54,3.26,0.00,-11.89,3.41,-90.17,1189,1237,1237,1173,1223,1500,1509,10875,811
145813,1,36.72,-20.24,2.98,0.579,0.034,0.833,-4.98,1.60,0.00,0.00,4.98,-1.60,0.00,17.40,-5.66,-19.33,14.57,0.00,-16.84,10.44,-72.15,1189,1237,1237,1173,1223,1500,1509,10871,811
145825,1,12.65,-9.93,-6.16,-0.326,-0.483,1.230,-7.38,-6.04,0.00,2.52,7.38,8.56,0.00,25.78,29.92,13.13,39.85,0.00,-6.04,8.10,121.79,1189,1237,1237,1173,1213,1500,1528,10891,811
145836,1,-18.82,-9.09,-5.88,-0.639,-0.544,0.684,0.47,1.12,0.00,2.52,-0.47,1.40,0.00,-1.67,4.86,17.15,13.95,0.00,8.08,6.14,113.89,1189,1237,1237,1173,1213,1500,1528,10879,811
145849,1,-30.03,18.08,0.55,-1.491,-0.373,1.944,0.95,-0.00,0.00,0.00,-0.95,0.00,0.00,-3.37,-0.05,26.66,-18.12,0.00,14.29,-5.61,-24.52,1254,1258,1246,1194,1238,1500,1510,10904,815
145861,1,-38.15,-0.15,-5.25,-0.132,0.807,0.477,16.96,5.28,0.00,0.00,-16.96,-5.28,0.00,-59.39,-18.55,-21.24,-18.41,0.00,16.65,2.28,71.03,1254,1258,1246,1194,1241,1500,1509,10908,815
145872,1,11.17,20.22,0.03,0.259,1.398,1.173,12.15,9.18,0.00,0.00,-12.15,-9.18,0.00,-42.56,-32.18,-53.73,-52.40,0.00,-5.21,-11.78,-46.33,1254,1258,1246,1194,1241,1500,1509,10900,815
145885,1,42.73,-7.40,3.42,1.693,0.680,0.594,5.83,10.58,0.00,0.00,-5.83,-10.58,0.00,-20.46,-37.09,-63.19,-29.70,0.00,-20.70,2.72,-92.72,1254,1258,1246,1194,1240,1500,1510,10875,815
145896,1,49.72,-46.60,1.23,0.863,-0.170,0.152,-7.03,25.30,0.00,0.00,7.03,-25.30,0.00,24.54,-88.63,-25.18,-42.03,0.00,-24.15,16.85,-53.96,1254,1258,1246,1194,1240,1500,1510,10871,815
145909,1,8.60,17.44,-0.56,-1.652,-0.868,2.561,-5.87,-1.56,0.00,0.00,5.87,1.56,0.00,20.50,5.35,11.90,-12.10,0.00,-5.95,-5.89,7.71,1254,1258,1246,1194,1246,1500,1510,10858,815
145921,1,-10.32,-10.54,-2.54,0.016,-1.597,0.673,-6.42,15.34,0.00,0.00,6.42,-15.34,0.00,22.43,-53.81,32.75,-43.27,0.00,6.41,3.63,39.17,1254,1258,1246,1194,1246,1499,1513,10850,815
145932,1,-74.58,26.45,-11.32,-2.259,0.050,2.106,-7.09,6.32,0.00,0.00,7.09,-6.32,0.00,24.79,-22.25,99.37,-48.70,0.00,40.00,-12.90,187.74,1254,1258,1246,1194,1246,1499,1513,10858,815
145945,1,-57.83,37.00,-10.81,-1.441,1.227,1.980,0.64,-4.21,0.00,0.00,-0.64,4.21,0.00,-2.26,14.59,55.57,-22.41,0.00,30.75,-11.31,132.87,1202,1362,1266,1190,1255,1500,1509,10858,806
145956,1,-14.55,14.09,-6.96,-0.676,1.782,1.149,-7.61,3.86,0.00,0.00,7.61,-3.86,0.00,26.62,-13.67,41.17,-27.76,0.00,10.50,-4.49,49.11,1202,1362,1266,1190,1255,1500,1509,10842,806
145969,1,46.96,55.04,-7.30,0.239,2.067,1.776,-5.44,3.47,0.00,0.00,5.44,-3.47,0.00,19.03,-12.29,-27.93,-67.33,0.00,-19.64,-22.75,61.67,1202,1362,1266,1190,1261,1500,1509,10837,806
145981,1,54.22,18.53,-4.83,1.682,0.848,0.368,-1.98,16.48,0.00,0.00,1.98,-16.48,0.00,6.94,-57.84,-47.28,-76.36,0.00,-24.52,-7.28,5.54,1202,1362,1266,1190,1263,1500,1509,10825,806
145992,1,56.15,18.27,-2.70,0.121,0.111,1.610,-6.83,9.91,0.00,0.00,6.83,-9.91,0.00,23.92,-34.86,-32.23,-53.14,0.00,-27.25,-9.60,-33.32,1202,1362,1266,1190,1263,1500,1509,10812,806
146005,1,40.08,24.89,-0.16,0.303,-0.467,1.197,-10.08,-0.01,0.00,0.00,10.08,0.01,0.00,35.32,-0.13,-4.76,-25.02,0.00,-19.88,-7.51,-78.43,1202,1362,1266,1190,1273,1500,1509,10812,806
146017,1,15.53,-44.30,3.61,1.416,-1.214,0.030,-16.20,7.01,0.00,0.00,16.20,-7.01,0.00,56.74,-24.69,41.21,19.61,0.00,-6.10,20.80,-150.27,1202,1362,1266,1190,1273,1501,1509,10808,806
146029,1,-3.12,-31.98,1.92,-0.601,-1.083,0.991,-8.00,1.76,0.00,0.00,8.00,-1.76,0.00,28.03,-6.35,31.14,25.63,0.00,2.83,13.82,-111.93,1202,1362,1266,1190,1272,1501,1510,10817,806
146041,1,-3.91,-6.67,-1.90,-0.464,-0.526,0.560,-11.53,-6.89,0.00,0.00,11.53,6.89,0.00,40.38,23.94,44.29,30.61,0.00,3.73,5.37,-29.98,1308,1240,1256,1304,1277,1500,1509,10812,813
146052,1,8.17,-3.17,0.17,-1.035,-0.681,1.247,-6.44,-4.55,0.00,0.00,6.44,4.55,0.00,22.60,15.76,14.43,18.93,0.00,-2.66,2.09,-64.54,1308,1240,1256,1304,1277,1500,1509,10796,813
146065,1,-3.53,14.54,-5.50,-0.138,-1.146,1.211,-4.77,5.33,0.00,0.00,4.77,-5.33,0.00,16.76,-18.82,20.29,-33.36,0.00,2.51,-8.36,54.66,1308,1240,1256,1304,1277,1500,1509,10787,813
146076,1,-12.95,12.46,-11.04,-0.066,-1.067,0.986,-6.25,3.52,0.00,0.00,6.25,-3.52,0.00,21.93,-12.49,34.88,-24.95,0.00,6.58,-5.54,170.61,1308,1240,1256,1304,1277,1500,1509,10787,813
146089,1,-23.71,-1.24,-13.94,-0.608,-0.779,1.256,-1.70,0.46,0.00,0.00,1.70,-0.46,0.00,6.00,-1.82,29.71,-0.57,0.00,10.40,1.09,220.37,1308,1240,1256,1304,1282,1500,1509,10787,813
146101,1,-35.07,15.29,-11.11,-1.067,-1.005,1.839,0.97,-6.53,0.00,0.00,-0.97,6.53,0.00,-3.36,22.66,31.71,7.37,0.00,14.96,-4.69,145.50,1308,1240,1256,1304,1282,1500,1509,10783,813
146112,1,-58.87,19.66,-10.21,-1.202,-0.945,1.676,-0.12,0.75,0.00,0.00,0.12,-0.75,0.00,0.44,-2.82,59.31,-22.48,0.00,27.00,-8.31,118.17,1308,1240,1256,1304,1282,1500,1509,10771,813
146125,1,-77.54,7.82,-7.17,-0.997,-0.114,1.574,-1.09,5.67,0.00,0.00,1.09,-5.67,0.00,3.88,-20.04,81.42,-27.86,0.00,37.67,-7.06,68.68,1308,1240,1256,1304,1285,1500,1508,10762,813
146136,1,-91.64,-8.16,-8.13,-1.656,0.548,1.419,-0.44,-0.25,0.00,0.00,0.44,0.25,0.00,1.60,0.68,93.24,8.84,0.00,45.05,-1.96,100.12,1308,1240,1256,1304,1285,1500,1508,10762,813
146149,1,-62.97,45.88,-7.04,-1.620,1.827,1.910,2.30,-7.88,0.00,0.00,-2.30,7.88,0.00,-7.97,27.37,55.00,-18.51,0.00,32.36,-21.66,87.81,1412,1178,1200,1358,1287,1500,1508,10746,815
146161,1,-58.79,46.49,-8.94,-1.634,2.235,2.191,2.73,-10.87,0.00,3.69,-2.73,14.56,0.00,-9.47,50.78,49.32,4.29,0.00,31.21,-14.95,127.36,1412,1178,1200,1358,1255,1500,1541,10746,815
146172,1,-23.97,17.46,-8.28,-0.247,2.015,1.303,-14.97,6.24,0.00,3.69,14.97,-2.55,0.00,52.50,-9.12,76.47,-26.57,0.00,15.79,-8.19,125.14,1412,1178,1200,1358,1255,1500,1541,10750,815
146184,1,-18.60,8.23,-10.72,-0.127,1.583,0.694,-17.47,10.49,0.00,0.00,17.47,-10.49,0.00,61.29,-36.92,79.89,-45.14,0.00,13.02,-6.59,184.95,1412,1178,1200,1358,1297,1500,1508,10767,815
146196,1,-14.29,44.45,-14.15,-0.593,1.754,1.696,-12.06,3.50,0.00,0.00,12.06,-3.50,0.00,42.35,-12.47,56.65,-56.93,0.00,8.94,-22.99,253.25,1412,1178,1200,1358,1297,1500,1508,10783,815
146209,1,-1.02,42.65,-13.71,0.288,1.928,1.764,-1.58,3.16,0.00,0.00,1.58,-3.16,0.00,5.69,-11.28,6.71,-53.93,0.00,0.60,-18.61,232.06,1412,1178,1200,1358,1298,1500,1508,10771,815
146221,1,-1.94,14.41,-12.64,-0.563,0.449,1.330,-9.68,12.05,0.00,3.78,9.68,-8.27,0.00,34.03,-29.16,35.97,-43.57,0.00,0.92,-5.91,202.36,1412,1178,1200,1358,1272,1500,1542,10771,815
146233,1,-11.68,-0.61,-8.32,-0.018,-0.814,0.755,-19.36,12.43,0.00,3.78,19.36,-8.65,0.00,67.94,-30.51,79.63,-29.90,0.00,6.36,0.82,125.94,1412,1178,1200,1358,1272,1500,1542,10771,815
146245,1,-25.00,4.19,-9.80,-1.083,-1.544,1.392,-21.85,7.33,0.00,3.69,21.85,-3.64,0.00,76.68,-12.98,101.69,-17.17,0.00,12.99,-1.11,159.44,1237,1283,1271,1301,1273,1500,1541,10754,811
146256,1,-38.18,5.61,-9.50,-1.503,-2.156,1.799,-12.79,8.16,0.00,3.69,12.79,-4.47,0.00,45.00,-15.90,83.19,-21.51,0.00,19.18,-3.28,139.23,1237,1283,1271,1301,1273,1500,1541,10746,811
146269,1,-41.66,11.18,-1.01,-1.241,-1.166,1.693,-2.04,5.84,0.00,3.69,2.04,-2.15,0.00,7.36,-7.80,49.03,-18.98,0.00,20.85,-4.80,-27.72,1237,1283,1271,1301,1275,1500,1541,10742,811
146281,1,-60.85,10.39,-0.24,-0.881,-1.470,1.588,-5.62,4.21,0.00,0.00,5.62,-4.21,0.00,19.89,-15.01,80.73,-25.40,0.00,31.26,-1.63,-23.61,1237,1283,1271,1301,1319,1500,1508,10733,811
146292,1,-71.10,6.86,-0.54,-0.904,-0.754,1.535,-4.16,7.93,0.00,0.00,4.16,-7.93,0.00,14.80,-28.07,85.91,-34.93,0.00,36.26,-0.90,-8.54,1237,1283,1271,1301,1319,1500,1508,10729,811
146305,1,-73.68,-13.78,-1.19,-1.063,-0.640,1.737,-0.60,6.81,0.00,3.69,0.60,-3.12,0.00,2.35,-11.23,76.02,2.55,0.00,36.64,8.86,19.21,1237,1283,1271,1301,1286,1500,1541,10733,811
146316,1,-70.37,-16.62,-0.49,-1.527,-0.172,1.969,2.91,8.37,0.00,3.69,-2.91,-4.68,0.00,-9.92,-16.71,60.45,-0.09,0.00,34.31,5.95,3.08,1237,1283,1271,1301,1286,1500,1541,10737,811
146329,1,-57.40,-13.51,1.58,-1.868,0.247,2.427,3.88,6.79,0.00,3.69,-3.88,-3.10,0.00,-13.32,-11.20,44.08,2.31,0.00,28.54,0.61,-45.67,1237,1283,1271,1301,1296,1500,1541,10737,811
146341,1,-39.59,0.32,4.47,-2.076,0.816,2.429,7.27,3.40,0.00,2.16,-7.27,-1.24,0.00,-25.18,-4.69,14.42,-5.01,0.00,19.58,-5.00,-115.96,1404,1184,1212,1452,1313,1500,1524,10737,828
146352,1,-40.30,49.83,1.97,-2.504,0.307,2.575,4.86,-3.52,0.00,2.16,-4.86,5.68,0.00,-16.77,19.52,23.53,-30.30,0.00,20.19,-22.12,-72.73,1404,1184,1212,1452,1313,1500,1524,10746,828
146364,1,-9.48,37.18,7.60,-1.350,0.659,2.207,2.91,-6.54,0.00,3.69,-2.91,10.23,0.00,-9.92,35.45,-0.44,-1.73,0.00,4.85,-11.65,-173.39,1404,1184,1212,1452,1297,1500,1541,10746,828
146376,1,20.15,4.05,10.01,-0.114,0.472,0.940,4.01,3.54,0.00,3.69,-4.01,0.15,0.00,-13.78,0.18,-33.93,-3.87,0.00,-9.59,3.22,-209.46,1404,1184,1212,1452,1297,1500,1541,10725,828
146389,1,39.85,-30.27,13.75,1.154,0.236,-0.139,8.45,35.11,0.00,3.69,-8.45,-31.42,0.00,-29.31,-110.35,-69.16,-80.07,0.00,-19.87,10.41,-272.17,1404,1184,1212,1452,1298,1500,1541,10717,828
146401,1,51.19,-30.83,13.80,1.796,0.412,-0.409,22.14,35.40,0.00,3.69,-22.14,-31.71,0.00,-77.24,-111.39,-128.43,-80.56,0.00,-27.00,8.72,-253.94,1404,1184,1212,1452,1300,1500,1541,10721,828
146412,1,48.78,-7.61,10.26,1.650,0.321,0.292,15.25,30.69,0.00,3.69,-15.25,-27.00,0.00,-53.13,-94.94,-101.92,-87.32,0.00,-25.05,-1.70,-165.96,1404,1184,1212,1452,1300,1500,1541,10721,828
146424,1,61.48,-17.73,8.18,1.835,0.644,0.378,14.60,25.09,0.00,3.69,-14.60,-21.40,0.00,-50.87,-75.36,-112.35,-57.63,0.00,-32.02,3.14,-134.62,1404,1184,1212,1452,1309,1500,1541,10729,828
146436,1,63.33,7.19,6.49,0.897,0.328,1.424,7.24,11.10,0.00,3.69,-7.24,-7.41,0.00,-25.14,-26.40,-88.46,-33.59,0.00,-32.06,-6.91,-102.47,1404,1184,1212,1452,1309,1500,1541,10721,828
146449,1,78.09,8.12,5.34,0.997,0.730,1.188,7.02,3.68,0.00,0.00,-7.02,-3.68,0.00,-24.38,-13.34,-102.47,-21.46,0.00,-37.71,-3.16,-81.65,1220,1412,1388,1300,1330,1500,1520,10737,826
146461,1,79.04,7.96,0.92,0.288,0.762,1.419,6.44,-0.80,0.00,2.16,-6.44,2.96,0.00,-22.34,9.92,-101.38,1.96,0.00,-36.00,-5.69,-12.59,1220,1412,1388,1300,1328,1500,1524,10729,826
146472,1,80.74,9.89,-0.50,0.587,1.197,1.263,4.40,1.52,0.00,2.16,-4.40,0.64,0.00,-15.20,1.81,-95.94,-8.08,0.00,-37.00,-6.78,7.55,1220,1412,1388,1300,1328,1500,1524,10754,826
146484,1,60.67,23.99,0.00,0.252,1.395,1.231,0.81,6.29,0.00,0.00,-0.81,-6.29,0.00,-2.64,-22.46,-63.31,-46.46,0.00,-27.97,-15.39,-9.69,1220,1412,1388,1300,1344,1500,1507,10729,826
146496,1,46.30,0.17,-3.33,0.571,1.715,0.026,-0.79,12.70,0.00,0.00,0.79,-12.70,0.00,2.96,-44.91,-43.34,-45.09,0.00,-21.47,-6.46,48.68,1220,1412,1388,1300,1344,1500,1507,10729,826
146509,1,37.18,2.57,-5.44,0.991,1.725,-0.318,6.55,19.02,0.00,3.69,-6.55,-15.33,0.00,-22.73,-54.13,-59.90,-56.70,0.00,-17.64,-10.55,77.73,1220,1412,1388,1300,1311,1500,1541,10683,826
146521,1,21.05,-16.23,-6.45,1.728,1.647,-0.933,11.03,27.19,0.00,3.69,-11.03,-23.50,0.00,-38.38,-82.74,-59.44,-66.51,0.00,-10.34,-6.37,87.88,1220,1412,1388,1300,1312,1500,1541,10671,826
146533,1,-9.05,-8.91,-7.90,1.043,0.985,-0.290,24.75,25.32,0.00,3.69,-24.75,-21.63,0.00,-86.43,-76.20,-77.38,-67.28,0.00,1.82,-7.96,103.65,1220,1412,1388,1300,1312,1500,1541,10683,826
146544,1,-16.64,-11.03,-3.85,0.902,0.426,-0.743,36.57,31.74,0.00,0.00,-36.57,-31.74,0.00,-127.82,-111.62,-111.19,-100.59,0.00,4.34,-8.62,34.20,1318,1422,1356,1284,1345,1500,1508,10679,842
146556,1,-24.40,27.12,3.51,-1.057,-0.545,1.567,6.68,7.50,0.00,0.00,-6.68,-7.50,0.00,-23.21,-26.80,1.19,-53.92,0.00,11.78,-20.35,-86.27,1318,1422,1356,1284,1345,1500,1508,10700,842
146569,1,-8.96,-32.05,5.96,0.599,-0.650,0.295,-12.42,20.16,0.00,3.60,12.42,-16.56,0.00,43.65,-58.51,52.61,-26.46,0.00,5.62,5.64,-119.08,1318,1422,1356,1284,1313,1500,1540,10713,842
146581,1,7.07,14.50,9.96,-1.828,0.721,1.702,-5.37,6.39,0.00,0.00,5.37,-6.39,0.00,18.97,-22.95,11.91,-37.45,0.00,-2.99,-13.48,-215.77,1318,1422,1356,1284,1343,1500,1510,10700,842
146592,1,16.81,19.65,8.35,-2.462,0.852,1.633,1.13,-18.29,0.00,0.00,-1.13,18.29,0.00,-3.75,63.43,-20.56,43.78,0.00,-8.18,-5.88,-206.59,1318,1422,1356,1284,1343,1500,1510,10671,842
146604,1,23.39,-0.09,4.56,-1.633,0.963,1.564,2.56,-29.84,0.00,3.60,-2.56,33.44,0.00,-8.76,116.49,-32.15,116.59,0.00,-11.63,1.22,-135.09,1318,1422,1356,1284,1319,1500,1540,10679,842
146616,1,23.61,4.96,0.66,-1.188,1.625,2.061,-6.22,-18.55,0.00,3.60,6.22,22.15,0.00,21.95,77.01,-1.66,72.06,0.00,-10.27,-14.40,-67.30,1318,1422,1356,1284,1319,1500,1540,10654,842
146629,1,15.23,-17.76,-4.29,-0.679,2.398,1.124,-18.77,-1.73,0.00,3.60,18.77,5.33,0.00,65.92,18.15,50.68,35.91,0.00,-4.46,-10.83,21.61,1318,1422,1356,1284,1323,1500,1540,10667,842
146641,1,-2.94,-17.42,-6.78,-0.548,2.662,0.542,-14.98,5.20,0.00,0.00,14.98,-5.20,0.00,52.69,-18.68,55.63,-1.27,0.00,4.35,-10.57,45.49,1294,1404,1392,1322,1353,1500,1510,10683,833
146652,1,-18.78,14.41,-8.52,-1.007,2.252,1.338,-10.92,6.99,0.00,0.00,10.92,-6.99,0.00,38.51,-24.98,57.28,-39.40,0.00,12.50,-23.84,56.73,1294,1404,1392,1322,1353,1500,1510,10704,833
146665,1,-30.10,25.51,-7.10,-2.614,1.681,2.504,-12.50,-2.12,0.00,3.60,12.50,5.72,0.00,44.06,19.52,74.16,-6.00,0.00,18.99,-24.71,19.08,1294,1404,1392,1322,1325,1500,1540,10708,833
146676,1,-22.27,-34.23,-2.57,-1.890,1.492,1.463,-6.99,-11.62,0.00,3.60,6.99,15.22,0.00,24.79,52.79,47.07,87.01,0.00,14.22,6.91,-78.62,1294,1404,1392,1322,1325,1500,1540,10717,833
146689,1,-9.71,-70.92,3.18,0.251,2.051,0.409,-4.23,0.02,0.00,3.60,4.23,3.58,0.00,15.15,12.05,24.86,82.97,0.00,7.75,17.34,-194.14,1294,1404,1392,1322,1325,1500,1540,10700,833
146701,1,2.11,-90.80,4.63,2.190,2.342,-0.958,2.23,19.16,0.00,3.60,-2.23,-15.56,0.00,-7.46,-54.95,-9.57,35.85,0.00,1.67,19.80,-240.16,1294,1404,1392,1322,1325,1500,1540,10688,833
146712,1,17.69,-43.98,4.21,0.638,2.833,-0.050,5.42,15.58,0.00,3.60,-5.42,-11.98,0.00,-18.61,-42.43,-36.30,1.55,0.00,-5.87,0.27,-239.20,1294,1404,1392,1322,1325,1500,1540,10700,833
146724,1,25.13,-16.75,2.96,-0.519,2.727,0.755,8.80,-0.38,0.00,3.60,-8.80,3.98,0.00,-30.45,13.42,-55.58,30.17,0.00,-9.87,-3.90,-217.44,1294,1404,1392,1322,1326,1500,1540,10717,833
146737,1,25.66,-23.33,0.11,-0.343,2.482,0.898,9.39,-10.65,0.00,3.60,-9.39,14.25,0.00,-32.51,49.39,-58.16,72.72,0.00,-9.88,3.06,-149.49,1294,1404,1392,1322,1326,1500,1540,10733,833
146749,1,23.43,-32.44,-3.29,0.664,1.527,0.002,12.92,-5.44,0.00,3.69,-12.92,9.13,0.00,-44.87,31.47,-68.30,63.91,0.00,-8.81,5.01,-67.62,1100,1500,1500,1100,1325,1500,1541,10729,837
146761,1,27.45,-5.16,-6.54,0.668,1.542,0.454,12.09,-2.00,0.00,0.00,-12.09,2.00,0.00,-41.95,6.52,-69.40,11.68,0.00,-10.24,-12.29,11.15,1100,1500,1500,1100,1360,1500,1509,10704,837
146772,1,32.72,0.11,-8.39,0.398,1.753,1.027,-3.92,7.88,0.00,0.00,3.92,-7.88,0.00,14.08,-28.05,-18.64,-28.17,0.00,-10.75,-22.52,51.12,1100,1500,1500,1100,1360,1500,1509,10683,837
146784,1,46.66,-2.80,-9.85,0.684,2.460,0.987,-13.60,13.97,0.00,3.60,13.60,-10.37,0.00,47.99,-36.77,1.33,-33.97,0.00,-16.86,-23.65,75.47,1100,1500,1500,1100,1329,1500,1540,10679,837
146796,1,36.22,-13.88,-9.96,0.169,2.848,1.090,-19.26,13.84,0.00,3.60,19.26,-10.24,0.00,67.83,-36.35,31.61,-22.47,0.00,-11.77,-19.16,66.01,1100,1500,1500,1100,1329,1500,1540,10683,837
146809,1,24.54,-11.67,-12.73,0.728,3.107,0.542,-15.48,15.52,0.00,3.60,15.48,-11.92,0.00,54.63,-42.20,30.09,-30.53,0.00,-7.52,-17.74,106.90,1100,1500,1500,1100,1330,1500,1540,10692,837
146821,1,2.65,-23.72,-9.42,0.629,2.687,0.465,-14.66,17.41,0.00,3.60,14.66,-13.81,0.00,51.78,-48.84,49.12,-25.12,0.00,1.42,-14.12,42.55,1100,1500,1500,1100,1331,1500,1540,10704,837
146832,1,-3.27,-6.40,-7.85,0.642,1.984,0.461,-13.18,22.29,0.00,3.60,13.18,-18.69,0.00,46.65,-65.95,49.93,-59.55,0.00,2.74,-20.78,27.52,1100,1500,1500,1100,1331,1500,1540,10696,837
146845,1,6.99,16.28,-4.43,-0.675,0.784,0.909,-9.93,16.45,0.00,0.00,9.93,-16.45,0.00,35.29,-58.14,28.30,-74.42,0.00,-3.70,-24.89,-32.00,1100,1500,1500,1105,1351,1500,1519,10675,822
146856,1,21.87,31.27,0.06,-2.346,0.269,2.050,-5.00,-7.69,0.00,0.00,5.00,7.69,0.00,18.02,26.36,-3.85,-4.91,0.00,-11.79,-20.25,-113.80,1100,1500,1500,1105,1351,1500,1519,10683,822
146869,1,39.88,-12.41,4.09,-1.579,-0.118,1.907,-1.89,-18.53,0.00,3.51,1.89,22.04,0.00,7.16,76.60,-32.72,89.01,0.00,-21.42,2.32,-180.52,1100,1500,1500,1105,1331,1500,1539,10671,822
146881,1,37.73,-46.69,9.85,-0.233,0.391,1.703,-2.02,-4.46,0.00,3.51,2.02,7.97,0.00,7.59,27.37,-30.14,74.06,0.00,-20.62,10.95,-281.35,1100,1500,1500,1105,1332,1500,1539,10654,822
146892,1,36.29,-52.35,9.15,0.296,1.281,1.410,-1.69,4.31,0.00,3.51,1.69,-0.80,0.00,6.44,-3.31,-29.86,49.04,0.00,-19.82,10.40,-287.05,1100,1500,1500,1105,1332,1500,1539,10638,822
146904,1,26.45,-47.40,6.14,0.254,2.301,1.165,1.83,0.26,0.00,3.51,-1.83,3.25,0.00,-5.87,10.84,-32.32,58.25,0.00,-14.92,9.69,-262.90,1100,1500,1500,1105,1332,1500,1539,10650,822
146916,1,-5.22,-42.04,-2.62,0.382,2.906,0.596,7.22,-5.63,0.00,3.51,-7.22,9.14,0.00,-24.74,31.49,-19.51,73.53,0.00,0.24,9.39,-115.25,1100,1500,1500,1105,1332,1500,1539,10658,822
146929,1,-42.44,-40.83,-9.64,0.624,2.545,-0.299,9.79,-1.48,0.00,3.51,-9.79,4.99,0.00,-33.72,16.97,8.71,57.80,0.00,18.48,5.87,20.63,1100,1500,1500,1105,1331,1500,1539,10671,822
146941,1,-70.80,-44.24,-18.30,0.836,1.319,-1.015,22.45,6.02,0.00,3.51,-22.45,-2.51,0.00,-78.05,-9.29,-7.25,34.95,0.00,30.61,4.86,205.54,1101,1500,1500,1153,1332,1500,1539,10679,1145
146953,1,-77.23,-16.01,-24.07,0.507,0.381,-0.464,35.63,15.75,0.00,3.51,-35.63,-12.24,0.00,-124.20,-43.32,-46.97,-27.31,0.00,31.96,-10.22,326.75,1101,1500,1500,1153,1332,1500,1539,10679,1145
146964,1,-81.06,-0.12,-23.16,-0.934,0.018,0.731,14.92,5.26,0.00,3.51,-14.92,-1.75,0.00,-51.73,-6.65,29.33,-6.53,0.00,36.79,-14.98,296.38,1101,1500,1500,1153,1332,1500,1539,10679,1145
146976,1,-77.12,6.12,-17.69,-1.580,-0.188,1.260,2.63,-5.27,0.00,3.51,-2.63,8.78,0.00,-8.72,30.22,68.40,24.09,0.00,36.59,-11.58,176.34,1101,1500,1500,1153,1332,1500,1539,10667,1145
146989,1,-77.87,-30.28,-7.83,-1.789,-0.714,1.675,-6.68,-8.64,0.00,3.51,6.68,12.15,0.00,23.87,42.00,101.74,72.29,0.00,36.38,3.64,-7.51,1101,1500,1500,1153,1332,1500,1539,10671,1145
147001,1,-73.33,-65.78,-2.59,0.168,-0.909,0.856,-10.56,6.59,0.00,3.51,10.56,-3.08,0.00,37.48,-11.27,110.81,54.50,0.00,33.06,12.64,-101.04,1101,1500,1500,1153,1332,1500,1539,10658,1145
147012,1,-62.46,-77.98,3.14,0.882,-0.631,0.130,-17.95,25.24,0.00,3.51,17.95,-21.73,0.00,63.36,-76.56,125.82,1.41,0.00,27.77,15.83,-227.46,1101,1500,1500,1153,1332,1500,1539,10650,1145
147024,1,-49.25,-37.39,4.72,-0.303,0.270,0.445,-2.94,7.11,0.00,3.51,2.94,-3.60,0.00,10.84,-13.14,60.09,24.25,0.00,17.72,5.18,-259.17,1101,1500,1500,1153,1332,1500,1539,10642,1145
147036,1,-33.91,-41.14,4.22,-0.280,0.607,0.424,8.87,-9.08,0.00,3.51,-8.87,12.59,0.00,-30.48,43.54,3.44,84.68,0.00,7.52,11.19,-236.93,1101,1500,1500,1153,1332,1500,1539,10638,1145
147049,1,-27.79,-63.33,1.04,1.164,0.555,-0.077,16.65,22.60,0.00,3.51,-16.65,-19.09,0.00,-57.72,-67.37,-29.93,-4.04,0.00,3.48,7.61,-148.73,1142,1500,1500,1100,1332,1500,1539,10679,912
147061,1,-15.21,-60.48,-1.84,2.163,1.144,-0.510,-8.44,42.89,0.00,3.69,8.44,-39.20,0.00,30.12,-137.78,45.33,-77.29,0.00,0.93,-3.38,-83.29,1142,1500,1500,1100,1330,1500,1541,10692,912
147072,5,-7.72,-15.58,-4.54,1.325,2.172,0.483,-27.13,46.67,0.00,3.69,27.13,-42.98,0.00,95.56,-375.00,103.28,-359.42,0.00,-0.30,-33.73,-38.22,1142,1500,1500,1100,1330,1500,1541,10721,912
147084,1,-11.79,26.00,-7.53,-0.551,2.947,1.912,-34.71,36.36,0.00,2.52,34.71,-33.84,0.00,122.15,-119.12,133.94,-145.11,0.00,3.11,-37.14,6.62,1142,1500,1500,1100,1343,1500,1528,10725,912
