time_ms,flags,gyro_x,gyro_y,gyro_z,accel_x,accel_y,accel_z,roll,pitch,angle_sp_roll,angle_sp_pitch,angle_err_roll,angle_err_pitch,angle_i_roll,rate_sp_roll,rate_sp_pitch,rate_err_roll,rate_err_pitch,rate_i_roll,pid_roll,pid_pitch,pid_yaw,m1,m2,m3,m4,rc_thr,rc_roll,rc_pitch,battery_mv,loop_us
112989,9,0.08,0.02,-0.00,-0.000,-0.066,0.996,-4.16,2.33,0.00,0.00,4.16,-2.33,0.00,14.58,-8.15,14.50,-8.18,0.00,0.54,-0.34,-0.34,1000,1000,1000,1000,1050,1500,1508,11183,809
113001,9,-0.04,0.08,-0.00,0.003,-0.069,1.001,-4.13,2.37,0.00,1.98,4.13,-0.39,0.00,14.45,-1.38,14.49,-1.46,0.00,0.59,-0.09,-0.33,1000,1000,1000,1000,1019,1500,1522,11183,809
113012,9,-0.04,0.09,0.00,0.003,-0.070,1.000,-4.17,2.37,0.00,1.98,4.17,-0.39,0.00,14.61,-1.35,14.65,-1.44,0.00,0.60,-0.08,-0.50,1000,1000,1000,1000,1019,1500,1522,11183,809
113024,9,0.08,-0.03,-0.06,0.003,-0.072,0.998,-4.21,2.40,0.00,1.98,4.21,-0.42,0.00,14.72,-1.47,14.64,-1.44,0.00,0.55,-0.03,0.67,1000,1000,1000,1000,1020,1500,1522,11183,809
113036,9,-0.04,-0.09,0.00,0.003,-0.072,1.000,-4.23,2.42,0.00,1.98,4.23,-0.44,0.00,14.82,-1.52,14.86,-1.43,0.00,0.61,-0.01,-0.48,1000,1000,1000,1000,1020,1500,1522,11183,809
113049,9,-0.04,0.03,-0.06,0.004,-0.067,0.999,-4.18,2.39,0.00,1.89,4.18,-0.50,0.00,14.63,-1.75,14.67,-1.78,0.00,0.60,-0.08,0.70,1100,1100,1100,1100,1021,1500,1521,11183,809
113061,9,-0.04,0.03,0.06,-0.000,-0.067,0.993,-4.16,2.37,0.00,3.51,4.16,1.14,0.00,14.55,4.00,14.58,3.98,0.00,0.60,0.15,-1.42,1100,1100,1100,1100,1003,1500,1539,11183,809
113072,9,-0.04,0.08,-0.06,-0.006,-0.071,1.003,-4.21,2.28,0.00,3.51,4.21,1.23,0.00,14.72,4.31,14.76,4.22,0.00,0.60,0.14,1.01,1100,1100,1100,1100,1003,1500,1539,11183,809
113084,9,0.19,-0.42,-0.00,0.004,-0.073,0.995,-4.19,2.38,0.00,3.78,4.19,1.40,0.00,14.67,4.90,14.49,5.32,0.00,0.49,0.41,-0.27,1100,1100,1100,1100,1000,1500,1542,11179,809
113096,9,0.13,-0.14,-0.06,0.001,-0.069,1.004,-4.27,2.41,0.00,3.78,4.27,1.37,0.00,14.93,4.79,14.80,4.92,0.00,0.54,0.25,1.04,1100,1100,1100,1100,1000,1500,1542,11170,809
113109,9,0.03,0.03,-0.06,0.004,-0.068,0.995,-4.22,2.38,0.00,1.89,4.22,-0.49,0.00,14.79,-1.71,14.76,-1.74,0.00,0.59,-0.08,0.55,1100,1100,1100,1100,1021,1500,1521,11170,809
113121,9,0.19,-0.27,0.00,-0.001,-0.063,0.997,-4.10,2.37,0.00,1.89,4.10,-0.48,0.00,14.35,-1.68,14.16,-1.41,0.00,0.48,0.06,-0.34,1100,1100,1100,1100,1021,1500,1521,11170,809
113132,9,0.07,-0.20,-0.06,0.003,-0.069,0.999,-4.16,2.35,0.00,1.89,4.16,-0.46,0.00,14.57,-1.61,14.50,-1.41,0.00,0.55,0.03,1.07,1100,1100,1100,1100,1021,1500,1521,11170,809
113144,9,-0.04,-0.20,-0.12,-0.000,-0.066,0.993,-4.23,2.31,0.00,1.89,4.23,-0.42,0.00,14.80,-1.47,14.83,-1.27,0.00,0.62,0.04,1.23,1100,1100,1100,1100,1020,1500,1521,11170,809
113156,9,-0.03,-0.14,-0.00,-0.002,-0.066,1.003,-4.19,2.25,0.00,1.89,4.19,-0.36,0.00,14.65,-1.28,14.68,-1.13,0.00,0.60,0.02,-1.22,1100,1100,1100,1100,1020,1500,1521,11162,809
113169,9,0.13,0.03,0.25,0.001,-0.070,0.994,-4.14,2.27,0.00,2.43,4.14,0.16,0.00,14.51,0.57,14.37,0.54,0.00,0.50,0.02,-3.65,1100,1100,1100,1100,1015,1500,1527,11170,809
113181,9,-0.33,-0.04,-0.11,0.001,-0.076,0.994,-4.25,2.23,0.00,1.89,4.25,-0.34,0.00,14.88,-1.19,15.21,-1.14,0.00,0.73,-0.04,3.53,1100,1100,1100,1100,1021,1500,1521,11175,809
113192,9,0.53,-0.92,-0.12,0.018,-0.058,1.002,-3.94,2.74,0.00,1.89,3.94,-0.85,0.00,13.79,-2.96,13.26,-2.04,0.00,0.32,0.24,2.42,1100,1100,1100,1100,1021,1500,1521,11170,809
113204,9,0.13,-0.16,-0.66,0.017,-0.031,1.004,-3.65,2.80,0.00,1.89,3.65,-0.91,0.00,12.78,-3.18,12.65,-3.02,0.00,0.49,-0.15,8.66,1100,1100,1100,1100,1021,1500,1521,11154,809
113216,9,0.31,-0.97,0.47,0.023,-0.067,0.985,-3.88,3.04,0.00,1.89,3.88,-1.15,0.00,13.59,-4.02,13.27,-3.05,0.00,0.40,0.11,-12.52,1100,1100,1100,1100,1021,1500,1521,11154,809
113229,9,0.31,-1.42,0.86,0.052,-0.047,0.975,-4.07,3.68,0.00,1.89,4.07,-1.79,0.00,14.24,-6.28,13.93,-4.87,0.00,0.39,0.19,-11.81,1100,1100,1100,1100,1021,1500,1521,11137,809
113241,9,-0.14,0.48,-0.47,0.068,-0.041,0.970,-4.03,2.94,0.00,1.89,4.03,-1.05,0.00,14.10,-3.66,14.23,-4.15,0.00,0.65,-0.34,13.68,1100,1100,1100,1100,1021,1500,1521,11154,809
113253,9,-0.51,-1.29,-0.11,0.064,-0.115,0.971,-5.59,3.12,0.00,1.89,5.59,-1.23,0.00,19.56,-4.31,20.08,-3.01,0.00,1.08,0.46,-1.28,1100,1100,1100,1100,1021,1500,1521,11133,809
113264,9,0.56,-1.92,0.39,0.110,0.024,0.908,-3.88,3.50,0.00,3.06,3.88,-0.44,0.00,13.57,-1.55,13.01,0.37,0.00,0.26,0.87,-11.47,1100,1100,1100,1100,1008,1500,1534,11120,809
113276,9,-0.80,-0.55,-0.24,0.127,-0.002,0.928,-2.67,6.74,0.00,3.06,2.67,-3.68,0.00,9.35,-12.90,10.15,-12.35,0.00,0.74,-0.72,3.95,1100,1100,1100,1100,1008,1500,1534,11112,809
113289,9,-0.56,2.75,-0.49,0.014,-0.061,1.010,-2.62,4.72,0.00,3.24,2.62,-1.48,0.00,9.16,-5.18,9.72,-7.92,0.00,0.70,-1.70,5.77,1100,1100,1100,1100,1005,1500,1536,11095,809
113301,9,-0.18,1.16,-0.48,-0.007,-0.044,1.043,-3.13,3.50,0.00,0.00,3.13,-3.50,0.00,10.96,-12.23,11.13,-13.40,0.00,0.54,-0.95,2.78,1100,1100,1100,1100,1022,1500,1520,11100,809
113312,9,0.90,0.39,0.28,-0.059,-0.097,1.018,-3.56,2.17,0.00,0.00,3.56,-2.17,0.00,12.44,-7.59,11.54,-7.97,0.00,0.07,-0.35,-11.02,1100,1100,1100,1100,1022,1500,1520,11075,809
113324,9,0.88,-0.31,0.25,0.025,-0.060,1.000,-4.06,2.65,0.00,0.00,4.06,-2.65,0.00,14.22,-9.28,13.35,-8.97,0.00,0.15,-0.27,-5.79,1100,1100,1100,1100,1021,1500,1520,11058,809
113336,9,0.18,-1.65,0.16,-0.023,-0.042,0.996,-4.07,2.59,0.00,0.00,4.07,-2.59,0.00,14.23,-9.07,14.05,-7.42,0.00,0.51,0.40,-4.50,1100,1100,1100,1100,1021,1500,1520,11029,809
113349,9,0.58,1.47,0.59,-0.087,-0.070,1.021,-3.48,0.85,0.00,2.88,3.48,2.03,0.00,12.17,7.09,11.59,5.62,0.00,0.18,-0.01,-14.78,1100,1100,1100,1100,1011,1500,1532,11021,809
113361,9,0.04,1.95,0.11,-0.010,-0.050,1.003,-3.30,1.00,0.00,0.00,3.30,-1.00,0.00,11.54,-3.51,11.51,-5.46,0.00,0.43,-0.68,-1.51,1100,1100,1100,1100,1032,1500,1510,11012,809
113372,9,-0.46,0.19,-0.20,-0.044,-0.044,0.971,-3.56,1.50,0.00,0.00,3.56,-1.50,0.00,12.44,-5.27,12.91,-5.45,0.00,0.77,0.01,2.31,1100,1100,1100,1100,1032,1500,1510,11016,809
113384,9,-0.09,0.53,-0.61,-0.058,-0.145,0.982,-4.66,1.56,0.00,0.00,4.66,-1.56,0.00,16.32,-5.45,16.41,-5.98,0.00,0.62,-0.52,6.70,1100,1100,1100,1100,1021,1500,1520,11025,809
113396,9,0.21,1.36,-0.38,-0.046,-0.067,1.059,-4.36,1.77,0.00,0.00,4.36,-1.77,0.00,15.26,-6.21,15.05,-7.58,0.00,0.45,-0.99,-0.49,1100,1100,1100,1100,1021,1500,1520,11041,809
113409,9,2.16,-4.63,1.01,0.088,-0.046,0.965,-4.22,3.18,0.00,0.00,4.22,-3.18,0.00,14.76,-11.13,12.60,-6.50,0.00,-0.47,1.54,-21.59,1100,1100,1100,1100,1033,1500,1508,11050,809
113421,9,0.25,-0.69,1.35,-0.032,-0.083,1.037,-3.88,2.62,0.00,0.00,3.88,-2.62,0.00,13.59,-9.18,13.34,-8.50,0.00,0.54,-0.34,-16.86,1100,1100,1100,1100,1022,1500,1520,11058,809
113432,9,0.55,-0.71,-2.14,0.004,-0.180,1.021,-6.75,3.48,0.00,0.00,6.75,-3.48,0.00,23.61,-12.17,23.06,-11.46,0.00,0.80,-0.35,43.33,1100,1100,1100,1100,1022,1500,1520,11058,809
113445,9,-1.53,-1.76,-1.41,0.024,-0.053,0.935,-6.30,3.48,0.00,0.00,6.30,-3.48,0.00,22.03,-12.18,23.57,-10.42,0.00,1.59,-0.09,14.86,1100,1100,1100,1100,1022,1500,1520,11054,809
113457,9,1.55,2.24,2.21,-0.029,0.008,0.996,-1.87,0.51,0.00,0.00,1.87,-0.51,0.00,6.53,-1.78,4.98,-4.03,0.00,-0.49,-1.13,-45.78,1100,1100,1100,1100,1022,1500,1520,11058,809
113469,9,2.27,0.18,-0.29,0.055,-0.118,1.116,-4.26,2.09,0.00,2.25,4.26,0.16,0.00,14.90,0.57,12.63,0.39,0.00,-0.10,0.27,15.21,1100,1100,1100,1100,1017,1500,1525,11066,809
113481,9,-2.72,-5.49,-1.08,0.051,-0.009,0.793,-3.99,3.80,0.00,0.00,3.99,-3.80,0.00,13.97,-13.32,16.68,-7.83,0.00,1.92,1.63,19.72,1100,1100,1100,1100,1023,1500,1519,11066,809
113492,9,-0.12,0.64,-0.47,-0.053,-0.144,1.051,-1.93,2.07,0.00,0.00,1.93,-2.07,0.00,6.75,-7.26,6.88,-7.90,0.00,0.15,-1.33,1.99,1100,1100,1100,1100,1023,1500,1519,11075,809
113504,9,2.86,2.15,0.90,0.101,-0.052,1.086,-4.02,3.16,0.00,0.00,4.02,-3.16,0.00,14.09,-11.06,11.23,-13.21,0.00,-0.29,-1.52,-20.45,1100,1100,1100,1100,1022,1500,1519,11066,809
113516,9,-2.38,1.07,1.31,-0.074,0.036,0.915,-2.48,3.07,0.00,0.00,2.48,-3.07,0.00,8.68,-10.73,11.07,-11.80,0.00,1.42,-0.88,-16.80,1100,1100,1100,1100,1022,1500,1519,11062,809
113529,9,0.45,-3.11,-0.74,0.073,-0.264,1.067,-4.60,2.07,0.00,0.00,4.60,-2.07,0.00,16.11,-7.25,15.66,-4.14,0.00,0.30,1.36,22.78,1100,1100,1100,1100,1022,1500,1519,11054,809
113541,9,1.50,0.71,-0.16,-0.010,0.068,0.786,-1.45,3.63,0.00,0.00,1.45,-3.63,0.00,5.07,-12.70,3.57,-13.40,0.00,-0.50,-1.22,-0.09,1100,1100,1100,1100,1022,1500,1519,11050,809
113552,9,3.42,-2.37,0.58,0.020,0.011,1.031,-2.52,0.21,0.00,0.00,2.52,-0.21,0.00,8.80,-0.74,5.38,1.63,0.00,-1.07,1.50,-14.08,1100,1100,1100,1100,1022,1500,1519,11050,809
113564,9,-10.87,-1.86,0.73,0.182,0.096,0.837,-1.06,7.12,0.00,0.00,1.06,-7.12,0.00,3.70,-24.92,14.57,-23.06,0.00,5.35,-1.18,-11.34,1100,1100,1100,1100,1033,1500,1509,11050,809
113576,9,8.27,-1.51,0.56,0.225,0.003,0.765,-3.58,4.48,0.00,0.00,3.58,-4.48,0.00,12.54,-15.68,4.27,-14.17,0.00,-3.88,-0.19,-9.85,1100,1100,1100,1100,1033,1500,1509,11058,809
113589,9,-5.08,-4.71,-1.01,0.210,0.394,0.976,-0.63,6.45,0.00,3.33,0.63,-3.12,0.00,2.22,-10.91,7.30,-6.20,0.00,2.39,1.03,18.58,1100,1100,1100,1100,1005,1500,1537,11062,809
113601,9,2.27,-1.74,-0.76,0.080,-0.109,0.954,-4.22,3.03,0.00,0.00,4.22,-3.03,0.00,14.75,-10.60,12.49,-8.86,0.00,-0.77,0.48,7.45,1100,1100,1100,1100,1022,1500,1519,11062,809
113612,9,-2.39,-2.29,0.61,-0.051,0.252,0.999,-0.92,0.61,0.00,0.00,0.92,-0.61,0.00,3.21,-2.12,5.60,0.17,0.00,1.36,0.46,-11.08,1100,1100,1100,1100,1022,1500,1519,11062,809
113624,9,2.89,4.01,-0.57,0.048,-0.125,1.018,-4.57,1.21,0.00,0.00,4.57,-1.21,0.00,15.99,-4.25,13.10,-8.26,0.00,-0.71,-1.86,14.47,1100,1100,1100,1100,1022,1500,1519,11066,809
113636,9,-4.13,-3.11,-0.71,0.042,0.131,0.943,-1.79,3.70,0.00,0.00,1.79,-3.70,0.00,6.25,-12.96,10.39,-9.86,0.00,2.43,0.59,16.36,1100,1100,1100,1100,1022,1500,1519,11070,809
113649,9,2.74,2.42,-1.67,-0.086,-0.272,0.985,-6.46,0.44,0.00,0.00,6.46,-0.44,0.00,22.62,-1.55,19.88,-3.97,0.00,-0.54,-0.81,26.61,1100,1100,1100,1100,1023,1500,1518,11075,809
113661,9,-2.75,-3.17,-0.39,0.079,0.225,0.944,-0.29,2.99,0.00,0.00,0.29,-2.99,0.00,1.01,-10.46,3.75,-7.28,0.00,1.26,0.76,-0.62,1100,1100,1100,1100,1023,1500,1519,11083,809
113672,9,8.91,-1.70,1.96,-0.202,-0.198,1.173,-4.13,-1.02,0.00,0.00,4.13,1.02,0.00,14.44,3.56,5.53,5.26,0.00,-3.20,1.31,-42.25,1100,1100,1100,1100,1023,1500,1519,11079,809
113684,9,-12.05,3.03,-0.74,-0.020,-0.138,0.956,-3.31,4.28,0.00,0.00,3.31,-4.28,0.00,11.58,-14.97,23.63,-18.00,0.00,6.30,-3.15,20.67,1100,1100,1100,1100,1024,1500,1518,11075,809
113696,9,6.85,-8.07,-1.26,0.185,0.121,0.990,-1.96,3.08,0.00,0.00,1.96,-3.08,0.00,6.85,-10.78,-0.00,-2.71,0.00,-2.82,3.33,23.31,1100,1100,1100,1100,1024,1500,1518,11075,809
113709,9,-4.96,9.94,-1.45,-0.195,-0.228,1.064,-2.22,0.90,0.00,0.00,2.22,-0.90,0.00,7.76,-3.16,12.72,-13.10,0.00,2.42,-4.84,28.43,1100,1100,1100,1100,1024,1500,1518,11083,809
113721,9,-0.68,-7.57,-0.27,0.265,0.064,0.981,-2.69,4.09,0.00,0.00,2.69,-4.09,0.00,9.40,-14.33,10.08,-6.76,0.00,0.91,3.52,4.90,1100,1100,1100,1100,1025,1500,1518,11087,809
113732,9,4.14,3.27,0.79,-0.291,-0.223,1.191,-3.31,0.77,0.00,0.00,3.31,-0.77,0.00,11.60,-2.69,7.46,-5.96,0.00,-2.12,-1.67,-24.00,1100,1100,1100,1100,1025,1500,1518,11091,809
113744,9,-0.34,-1.06,1.16,0.052,-0.221,1.066,-4.16,0.88,0.00,0.00,4.16,-0.88,0.00,14.55,-3.06,14.89,-2.00,0.00,1.17,0.30,-19.18,1100,1100,1100,1100,1025,1500,1518,11091,809
113757,9,2.78,-2.54,-0.54,0.043,0.019,0.815,-4.14,1.57,0.00,0.00,4.14,-1.57,0.00,14.48,-5.51,11.70,-2.97,0.00,-0.93,1.36,13.39,1100,1100,1100,1100,1025,1500,1518,11083,809
113769,9,1.21,-3.15,-0.77,0.044,0.244,1.068,-2.12,4.01,0.00,0.00,2.12,-4.01,0.00,7.42,-14.05,6.21,-10.90,0.00,0.04,0.42,19.01,1100,1100,1100,1100,1034,1500,1507,11083,809
113781,9,6.44,-12.58,3.62,0.373,-0.186,0.651,-6.11,9.02,0.00,0.00,6.11,-9.02,0.00,21.40,-31.57,14.96,-18.99,0.00,-2.10,4.14,-77.22,1100,1100,1100,1100,1023,1500,1518,11087,809
113792,9,-4.52,-4.09,-2.15,0.021,-0.051,1.011,-2.88,9.45,0.00,0.00,2.88,-9.45,0.00,10.07,-33.07,14.58,-28.99,0.00,2.59,-0.98,46.24,1100,1100,1100,1100,1023,1500,1518,11083,809
113804,9,1.05,1.91,0.42,-0.106,-0.103,1.117,-4.98,2.89,0.00,0.00,4.98,-2.89,0.00,17.43,-10.13,16.39,-12.04,0.00,0.43,-1.74,-1.14,1100,1100,1100,1100,1024,1500,1518,11083,809
113816,9,-2.47,7.23,-1.16,0.226,-0.050,0.990,-4.25,4.38,0.00,0.00,4.25,-4.38,0.00,14.86,-15.34,17.33,-22.57,0.00,1.19,-3.90,21.57,1100,1100,1100,1100,1024,1500,1518,11083,809
113829,9,1.41,-8.80,-0.21,0.063,-0.076,0.845,-4.65,3.72,0.00,0.00,4.65,-3.72,0.00,16.27,-13.01,14.87,-4.21,0.00,0.21,3.52,10.32,1100,1100,1100,1100,1024,1500,1518,11087,809
113841,9,4.36,8.16,-0.66,-0.468,-0.164,1.174,-5.31,-1.99,0.00,2.70,5.31,4.69,0.00,18.60,16.43,14.24,8.27,0.00,-1.47,-2.78,3.83,1100,1100,1100,1100,1011,1500,1530,11083,809
113852,9,-4.03,5.97,0.72,-0.058,0.128,1.279,-4.20,-0.29,0.00,2.70,4.20,2.99,0.00,14.69,10.48,18.72,4.51,0.00,2.73,-1.74,-9.04,1100,1100,1100,1100,1011,1500,1530,11083,809
113865,9,8.96,-13.35,3.49,0.312,0.172,0.714,-1.15,3.01,0.00,0.00,1.15,-3.01,0.00,4.01,-10.53,-4.95,2.82,0.00,-4.16,7.02,-66.91,1100,1100,1100,1100,1024,1500,1518,11083,809
113876,9,-0.62,-6.09,-2.67,-0.020,-0.113,1.100,-2.71,7.41,0.00,0.00,2.71,-7.41,0.00,9.48,-25.94,10.10,-19.85,0.00,0.68,1.30,58.80,1100,1100,1100,1100,1024,1500,1518,11083,809
113889,9,-2.30,1.76,2.23,0.059,-0.184,0.838,-5.13,10.56,0.00,0.00,5.13,-10.56,0.00,17.96,-36.97,20.26,-38.73,0.00,1.95,-3.09,-38.96,1100,1100,1100,1100,1024,1500,1517,11083,809
113901,9,5.13,-11.95,-3.01,0.550,0.248,0.625,0.10,16.21,0.00,0.00,-0.10,-16.21,0.00,-0.33,-56.75,-5.46,-44.80,0.00,-2.53,2.44,47.93,1100,1100,1100,1100,1023,1500,1518,11083,809
113912,9,8.13,-9.95,1.17,-0.056,0.137,1.101,-0.39,7.71,0.00,0.00,0.39,-7.71,0.00,1.37,-26.97,-6.76,-17.02,0.00,-3.74,3.02,-20.84,1100,1100,1100,1100,1023,1500,1518,11083,809
113924,9,-2.40,-4.53,1.51,0.180,-0.240,0.793,-4.15,8.59,0.00,0.00,4.15,-8.59,0.00,14.52,-30.06,16.92,-25.53,0.00,1.90,0.25,-39.12,1100,1100,1100,1100,1023,1500,1518,11091,809
113936,9,-7.37,5.33,-3.39,0.002,-0.268,1.001,-5.50,5.21,0.00,0.00,5.50,-5.21,0.00,19.24,-18.24,26.61,-23.58,0.00,4.19,-3.77,75.23,1100,1100,1100,1100,1023,1500,1518,11083,809
113949,9,-0.13,8.15,1.13,-0.194,0.069,0.868,-1.68,1.94,0.00,0.00,1.68,-1.94,0.00,5.89,-6.80,6.02,-14.94,0.00,0.05,-4.28,-25.34,1100,1100,1100,1100,1024,1500,1517,11075,809
113961,9,11.88,-4.36,-1.76,-0.119,0.242,1.185,-1.50,0.50,0.00,0.00,1.50,-0.50,0.00,5.27,-1.77,-6.61,2.59,0.00,-5.13,2.15,30.23,1100,1100,1100,1100,1024,1500,1517,11087,809
113973,9,-3.44,-4.38,3.28,0.080,0.134,0.947,-1.27,5.98,0.00,0.00,1.27,-5.98,0.00,4.46,-20.95,7.90,-16.57,0.00,1.72,0.79,-62.70,1100,1100,1100,1100,1024,1500,1517,11075,809
113985,9,0.37,-13.10,-0.02,0.403,-0.206,0.729,-5.69,12.85,0.00,0.00,5.69,-12.85,0.00,19.93,-44.99,19.56,-31.88,0.00,0.96,3.17,0.88,1100,1100,1100,1100,1033,1500,1509,11070,809
113996,9,5.23,3.35,-2.55,-0.096,-0.641,1.057,-5.78,8.24,0.00,0.00,5.78,-8.24,0.00,20.23,-28.85,15.00,-32.20,0.00,-2.04,-3.58,60.79,1100,1100,1100,1100,1033,1500,1509,11070,809
114009,9,-14.28,12.12,0.10,-0.240,-0.021,1.061,-4.36,5.17,0.00,2.25,4.36,-2.92,0.00,15.27,-10.21,29.54,-22.33,0.00,7.33,-7.34,-1.59,1100,1100,1100,1100,1016,1500,1525,11070,809
114021,9,6.73,-9.51,1.14,0.347,0.362,1.035,-0.45,6.86,0.00,2.25,0.45,-4.61,0.00,1.56,-16.12,-5.17,-6.61,0.00,-3.09,3.95,-24.08,1100,1100,1100,1100,1017,1500,1525,11083,809
114033,9,1.82,-13.03,3.64,0.416,0.191,0.377,4.59,15.99,0.00,2.25,-4.59,-13.74,0.00,-16.07,-48.08,-17.89,-35.05,0.00,-1.90,3.01,-68.92,1100,1100,1100,1100,1017,1500,1525,11075,809
114044,9,2.32,-1.81,-1.53,-0.211,-0.384,1.189,-1.19,11.72,0.00,2.25,1.19,-9.47,0.00,4.18,-33.15,1.86,-31.34,0.00,-0.30,-2.28,31.83,1100,1100,1100,1100,1017,1500,1525,11070,814
114056,9,-4.19,16.49,-1.87,-0.200,-0.432,1.092,1.21,5.00,0.00,2.25,-1.21,-2.75,0.00,-4.23,-9.63,-0.04,-26.12,0.00,1.59,-8.84,38.04,1100,1100,1100,1100,1017,1500,1525,11075,814
114069,9,-10.47,-3.22,1.33,0.519,0.362,0.528,5.11,16.98,0.00,0.00,-5.11,-16.98,0.00,-17.89,-59.44,-7.42,-56.22,0.00,4.42,-2.48,-33.24,1100,1100,1100,1100,1034,1500,1508,11070,814
114081,9,12.64,-12.60,-2.01,0.270,0.141,0.950,0.77,12.20,0.00,5.40,-0.77,-6.80,0.00,-2.71,-23.79,-15.35,-11.19,0.00,-6.11,4.24,33.99,1100,1100,1100,1100,1000,1500,1560,11070,814
114092,9,-2.62,-9.43,0.44,0.062,0.174,0.695,2.53,10.42,0.00,5.40,-2.53,-5.02,0.00,-8.86,-17.57,-6.24,-8.15,0.00,0.62,2.35,-6.67,1100,1100,1100,1100,1000,1500,1560,11083,814
114104,9,2.16,-21.38,0.71,0.651,-0.063,0.767,-3.00,18.15,0.00,2.25,3.00,-15.90,0.00,10.51,-55.67,8.35,-34.29,0.00,0.25,5.48,-14.24,1100,1100,1100,1100,1017,1500,1525,11083,814
114117,9,1.63,14.25,0.44,-0.274,-0.537,1.041,-5.10,10.17,0.00,2.25,5.10,-7.92,0.00,17.85,-27.71,16.22,-41.96,0.00,-0.73,-9.50,-8.25,1100,1100,1100,1100,1017,1500,1525,11083,814
114129,9,-6.04,6.75,-1.69,-0.067,-0.121,0.924,-0.53,11.20,0.00,2.43,0.53,-8.77,0.00,1.84,-30.70,7.89,-37.44,0.00,3.59,-6.23,36.50,1100,1100,1100,1100,1014,1500,1527,11083,814
114141,9,11.43,-1.07,-0.36,0.110,-0.295,1.101,-4.40,12.28,0.00,0.00,4.40,-12.28,0.00,15.39,-42.98,3.96,-41.92,0.00,-4.56,-2.35,4.89,1100,1100,1100,1100,1024,1500,1517,11075,809
114153,9,-13.36,2.55,-0.20,0.019,0.390,0.822,4.11,12.37,0.00,0.00,-4.11,-12.37,0.00,-14.40,-43.28,-1.04,-45.83,0.00,5.61,-4.37,-3.89,1100,1100,1100,1100,1024,1500,1517,11075,809
114165,9,7.11,-19.30,1.28,0.553,0.477,0.788,2.84,11.19,0.00,2.25,-2.84,-8.94,0.00,-9.95,-31.31,-17.06,-12.01,0.00,-3.05,6.74,-24.83,1100,1100,1100,1100,1016,1500,1525,11066,809
114177,9,6.47,2.54,-0.09,-0.359,-0.625,0.995,-9.58,3.65,0.00,2.25,9.58,-1.40,0.00,33.53,-4.89,27.06,-7.43,0.00,-2.82,-1.60,-6.37,1100,1100,1100,1100,1016,1500,1525,11075,809
114189,9,-6.35,3.10,-2.13,-0.179,-0.447,1.133,-5.55,5.62,0.00,2.43,5.55,-3.19,0.00,19.44,-11.15,25.79,-14.25,0.00,4.08,-2.83,32.01,1100,1100,1100,1100,1014,1500,1527,11070,809
114201,9,0.80,5.57,0.77,-0.153,-0.483,1.272,-8.33,2.88,0.00,2.25,8.33,-0.63,0.00,29.15,-2.19,28.35,-7.76,0.00,0.48,-2.99,-23.45,1100,1100,1100,1100,1016,1500,1525,11066,809
114212,9,-12.57,8.30,-1.15,-0.157,0.294,1.055,0.35,2.50,0.00,2.25,-0.35,-0.25,0.00,-1.22,-0.88,11.35,-9.18,0.00,5.34,-4.59,16.32,1100,1100,1100,1100,1016,1500,1525,11070,809
114224,9,7.67,-14.08,-0.05,0.219,0.057,0.891,-3.43,0.73,0.00,2.16,3.43,1.43,0.00,12.01,4.99,4.34,19.07,0.00,-2.91,7.39,4.05,1100,1100,1100,1100,1019,1501,1524,11075,809
114236,9,10.26,0.96,0.65,-0.020,0.098,0.961,0.21,1.30,0.00,2.16,-0.21,0.86,0.00,-0.74,3.00,-11.00,2.04,0.00,-5.30,-0.11,-18.34,1100,1100,1100,1100,1019,1500,1524,11070,809
114249,9,-6.68,-3.80,-0.52,0.026,-0.019,0.979,0.45,4.25,0.00,0.00,-0.45,-4.25,0.00,-1.57,-14.87,5.11,-11.07,0.00,3.39,0.71,9.69,1100,1100,1100,1100,1027,1500,1516,11062,813
114261,9,4.53,1.89,4.27,0.186,-0.166,0.940,-2.61,4.51,0.00,0.00,2.61,-4.51,0.00,9.14,-15.78,4.61,-17.67,0.00,-1.43,-0.76,-88.68,1100,1100,1100,1100,1026,1500,1516,11062,813
114272,9,-4.86,14.54,-2.96,-0.136,0.109,1.149,-0.25,4.59,0.00,0.00,0.25,-4.59,0.00,0.86,-16.06,5.73,-30.60,0.00,2.20,-7.90,57.92,1100,1100,1100,1100,1026,1500,1516,11066,813
114284,9,-2.35,-3.79,-0.60,0.318,0.055,0.787,-2.79,7.21,0.00,2.07,2.79,-5.14,0.00,9.76,-18.00,12.12,-14.21,0.00,1.97,1.65,15.43,1100,1100,1100,1100,1019,1500,1523,11075,813
114296,9,2.51,3.75,-1.06,0.016,-0.147,0.848,-3.65,3.03,0.00,2.07,3.65,-0.96,0.00,12.78,-3.37,10.27,-7.13,0.00,-0.89,-1.07,13.19,1100,1100,1100,1100,1019,1500,1523,11075,813
114309,9,-1.81,-6.26,0.31,0.253,0.349,0.977,-0.62,7.24,0.00,0.00,0.62,-7.24,0.00,2.19,-25.33,3.99,-19.07,0.00,1.19,1.88,1.38,1100,1100,1100,1100,1026,1500,1516,11070,813
114321,9,6.33,-3.05,5.51,-0.142,0.178,1.121,-1.62,-0.30,0.00,0.00,1.62,0.30,0.00,5.66,1.05,-0.67,4.09,0.00,-2.71,2.55,-111.08,1100,1100,1100,1100,1025,1500,1516,11070,813
114332,9,1.89,-0.70,-2.19,-0.133,-0.318,1.042,-4.32,-0.00,0.00,0.00,4.32,0.00,0.00,15.12,0.01,13.23,0.71,0.00,-0.54,1.06,45.29,1100,1100,1100,1100,1025,1500,1516,11075,813
114344,9,2.33,8.75,0.50,-0.372,-0.459,1.248,-5.72,-2.04,0.00,0.00,5.72,2.04,0.00,20.01,7.13,17.68,-1.62,0.00,-0.15,-2.65,1.54,1100,1100,1100,1100,1026,1500,1516,11075,809
114357,9,-3.11,8.26,-0.07,-0.254,-0.103,1.146,-5.24,-3.82,0.00,0.00,5.24,3.82,0.00,18.34,13.37,21.44,5.12,0.00,2.14,-2.18,0.87,1100,1100,1100,1100,1026,1500,1516,11079,809
114369,9,-5.36,0.82,-1.14,0.256,0.161,0.959,-0.58,-0.13,0.00,0.00,0.58,0.13,0.00,2.03,0.44,7.40,-0.38,0.00,2.68,0.55,31.69,1100,1100,1100,1100,1030,1500,1512,11066,809
114381,9,2.36,1.97,2.90,-0.071,0.318,0.933,0.45,-3.01,0.00,0.00,-0.45,3.01,0.00,-1.58,10.53,-3.93,8.56,0.00,-1.36,0.27,-55.62,1100,1100,1100,1100,1028,1500,1514,11075,809
114392,9,5.07,-9.56,-1.76,0.095,0.067,0.858,-1.72,0.00,0.00,0.00,1.72,-0.00,0.00,6.01,-0.02,0.94,9.54,0.00,-2.30,5.87,34.21,1100,1100,1100,1100,1028,1500,1514,11070,809
114404,9,0.69,3.10,1.86,-0.237,-0.281,1.185,-2.99,-1.93,0.00,0.00,2.99,1.93,0.00,10.48,6.77,9.79,3.67,0.00,-0.02,-0.23,-29.62,1100,1100,1100,1100,1025,1500,1517,11075,809
114416,9,-7.33,3.87,0.20,-0.165,-0.271,1.110,-3.89,0.28,0.00,0.00,3.89,-0.28,0.00,13.61,-0.96,20.94,-4.83,0.00,4.28,-1.53,-5.41,1100,1100,1100,1100,1025,1500,1517,11075,809
114429,9,-5.27,6.83,-2.62,0.033,-0.143,0.964,-4.25,-0.74,0.00,0.00,4.25,0.74,0.00,14.87,2.57,20.14,-4.26,0.00,2.81,-2.59,93.00,1100,1100,1100,1100,1026,1500,1516,11075,809
114441,9,-1.02,8.92,0.90,-0.201,0.172,0.851,0.22,-1.09,0.00,0.00,-0.22,1.09,0.00,-0.77,3.83,0.25,-5.09,0.00,0.22,-4.10,10.94,1100,1100,1100,1100,1026,1500,1516,11079,809
114452,9,9.75,-6.58,-1.80,0.101,0.081,1.149,-2.99,-0.43,0.00,0.00,2.99,0.43,0.00,10.48,1.52,0.73,8.10,0.00,-4.09,3.75,68.26,1100,1100,1100,1100,1026,1500,1516,11075,809
114464,9,-4.46,-6.56,3.29,0.151,0.111,0.929,-4.31,2.04,0.00,0.00,4.31,-2.04,0.00,15.08,-7.16,19.54,-0.60,0.00,2.22,2.85,-25.17,1100,1100,1100,1100,1030,1500,1513,11066,809
114477,9,-4.77,-8.82,-1.08,0.505,0.180,0.637,-0.19,9.66,0.00,0.00,0.19,-9.66,0.00,0.68,-33.80,5.45,-24.98,0.00,2.68,2.51,52.84,1100,1100,1100,1100,1030,1500,1513,11066,809
114489,9,13.58,7.19,-1.40,-0.309,-0.616,1.292,-7.30,2.26,0.00,0.00,7.30,-2.26,0.00,25.55,-7.92,11.96,-15.11,0.00,-5.75,-3.67,70.03,1100,1100,1100,1100,1028,1500,1515,11070,809
114501,9,-7.25,10.79,1.29,-0.544,-0.571,1.087,-3.58,2.41,0.00,2.16,3.58,-0.25,0.00,12.52,-0.87,19.77,-11.66,0.00,4.05,-5.39,2.47,1100,1100,1100,1100,1018,1500,1524,11070,809
114512,9,-3.53,7.59,-0.58,-0.145,0.170,1.443,-3.14,-1.39,0.00,2.16,3.14,3.55,0.00,10.98,12.42,14.51,4.82,0.00,2.58,-2.08,48.65,1100,1100,1100,1100,1018,1500,1524,11079,809
114524,9,-8.35,7.30,3.72,0.149,-0.055,0.885,-4.35,2.51,0.00,2.07,4.35,-0.44,0.00,15.23,-1.54,23.57,-8.84,0.00,4.11,-3.34,-22.59,1100,1100,1100,1100,1019,1500,1523,11079,809
114536,9,1.69,-12.61,-0.74,0.157,0.226,0.851,-2.53,0.15,0.00,2.07,2.53,1.92,0.00,8.85,6.73,7.16,19.34,0.00,-0.10,7.10,60.59,1100,1100,1100,1100,1019,1500,1523,11075,809
114549,9,15.90,-0.45,-1.32,-0.269,-0.337,1.326,-6.91,-2.99,0.00,0.00,6.91,2.99,0.00,24.18,10.47,8.28,10.92,0.00,-6.76,1.85,73.87,1100,1100,1100,1100,1027,1500,1515,11083,809
114561,9,-7.50,4.92,1.89,-0.224,-0.139,1.148,-3.53,-0.34,0.00,0.00,3.53,0.34,0.00,12.36,1.20,19.87,-3.72,0.00,3.68,-2.17,2.67,1100,1100,1100,1100,1027,1500,1515,11083,809
114572,9,-3.39,-6.44,0.79,0.034,-0.328,1.241,-7.69,0.12,0.00,0.00,7.69,-0.12,0.00,26.90,-0.41,30.29,6.03,0.00,3.16,3.77,28.47,1100,1100,1100,1100,1027,1500,1515,11075,809
114585,9,-5.74,15.93,-2.09,-0.131,-0.438,0.770,-6.61,-1.67,0.00,3.24,6.61,4.91,0.00,23.15,17.20,28.89,1.27,0.00,2.89,-5.94,81.30,1100,1100,1100,1100,1006,1500,1536,11079,809
114596,9,-2.03,5.75,-3.03,-0.106,0.227,1.098,-3.07,0.74,0.00,3.24,3.07,2.50,0.00,10.75,8.74,12.78,2.99,0.00,1.96,-3.02,92.87,1100,1100,1100,1100,1006,1500,1536,11066,809
114609,9,12.05,-2.30,1.06,-0.231,-0.158,1.209,-3.92,-1.55,0.00,0.00,3.92,1.55,0.00,13.72,5.41,1.67,7.71,0.00,-5.26,1.53,2.12,1100,1100,1100,1100,1029,1500,1515,11083,809
114621,9,-9.74,-1.47,0.56,-0.206,0.434,1.034,3.27,-4.03,0.00,0.00,-3.27,4.03,0.00,-11.46,14.10,-1.72,15.57,0.00,3.99,1.44,15.53,1100,1100,1100,1100,1028,1500,1515,11083,809
114632,9,12.33,-21.60,1.44,0.259,0.244,0.953,-0.73,-1.83,0.00,0.00,0.73,1.83,0.00,2.57,6.42,-9.76,28.03,0.00,-5.13,11.14,-4.18,1100,1100,1100,1100,1028,1500,1515,11083,809
114644,9,2.52,9.75,-2.96,-0.456,-0.593,1.029,-4.31,-3.68,0.00,0.00,4.31,3.68,0.00,15.09,12.87,12.57,3.12,0.00,-1.25,-3.73,75.75,1100,1100,1100,1100,1028,1500,1515,11083,814
114657,9,-13.87,3.71,-0.96,0.199,-0.396,0.841,-7.14,4.87,0.00,0.00,7.14,-4.87,0.00,24.98,-17.05,38.84,-20.76,0.00,8.27,-3.57,42.46,1100,1100,1100,1100,1028,1500,1515,11083,814
114669,9,2.86,8.12,2.01,-0.073,-0.313,1.266,-8.14,0.62,0.00,0.00,8.14,-0.62,0.00,28.50,-2.17,25.64,-10.29,0.00,-0.39,-3.96,-47.18,1100,1100,1100,1100,1026,1500,1517,11083,814
114681,9,-6.64,-1.38,-0.39,0.034,0.371,0.945,-0.54,1.49,0.00,0.00,0.54,-1.49,0.00,1.88,-5.23,8.52,-3.85,0.00,2.97,0.09,15.28,1100,1100,1100,1100,1028,1500,1515,11083,814
114692,9,11.27,-15.40,1.70,0.071,0.342,1.088,-3.10,-1.77,0.00,0.00,3.10,1.77,0.00,10.85,6.18,-0.42,21.57,0.00,-4.55,8.19,-20.32,1100,1100,1100,1100,1028,1500,1515,11079,814
114705,9,2.64,5.47,-2.92,-0.309,-0.796,1.094,-9.11,-2.49,0.00,2.70,9.11,5.19,0.00,31.88,18.18,29.24,12.71,0.00,-0.70,-1.07,54.72,1100,1100,1100,1100,1015,1500,1530,11079,814
114716,9,-8.15,5.25,1.55,-0.147,-0.364,1.245,-7.36,-1.85,0.00,2.70,7.36,4.55,0.00,25.76,15.93,33.92,10.68,0.00,5.16,-1.73,-27.68,1100,1100,1100,1100,1015,1500,1530,11070,814
114729,9,2.75,6.52,5.82,-0.311,-0.153,1.279,-7.99,-3.40,0.00,0.00,7.99,3.40,0.00,27.97,11.92,25.21,5.39,0.00,-0.62,-1.40,-110.00,1100,1100,1100,1100,1035,1500,1515,11066,814
114741,9,-8.12,8.07,-2.36,-0.007,0.016,0.899,-3.98,-2.71,0.00,0.00,3.98,2.71,0.00,13.92,9.49,22.03,1.42,0.00,3.75,-2.02,61.77,1100,1100,1100,1100,1045,1500,1515,11075,809
114752,9,4.11,-1.29,-1.39,-0.121,0.017,1.175,-6.86,-2.80,0.00,0.00,6.86,2.80,0.00,24.00,9.79,19.89,11.08,0.00,-0.86,1.68,41.05,1100,1100,1100,1100,1045,1500,1515,11070,809
114764,9,7.03,-3.93,-0.06,-0.154,-0.037,0.998,-4.37,-4.47,0.00,0.00,4.37,4.47,0.00,15.29,15.66,8.26,19.58,0.00,-3.18,3.57,-4.76,1100,1100,1100,1100,1045,1500,1515,11075,809
114776,9,-6.35,-8.73,3.59,0.251,0.236,1.122,-2.33,-0.24,0.00,0.00,2.33,0.24,0.00,8.14,0.84,14.49,9.57,0.00,3.68,4.09,-66.77,1100,1100,1100,1100,1045,1500,1515,11070,809
114789,9,8.89,-7.20,4.39,0.163,0.113,0.756,-2.98,2.86,0.00,0.00,2.98,-2.86,0.00,10.44,-9.99,1.55,-2.79,0.00,-3.81,3.09,-77.12,1100,1100,1100,1100,1047,1500,1515,11075,809
114801,9,2.84,5.16,-3.94,-0.146,-0.214,1.127,-2.49,2.33,0.00,2.70,2.49,0.37,0.00,8.70,1.30,5.86,-3.86,0.00,-0.98,-2.19,87.65,1100,1100,1100,1100,1032,1500,1530,11066,809
114812,9,3.37,7.81,-0.83,-0.434,-0.424,1.185,-4.32,-3.48,0.00,2.70,4.32,6.18,0.00,15.13,21.63,11.76,13.82,0.00,-0.68,-2.03,21.66,1100,1100,1100,1100,1032,1500,1530,11070,809
114824,9,-8.82,14.66,-0.27,-0.144,-0.179,1.168,-1.99,-3.31,0.00,0.00,1.99,3.31,0.00,6.95,11.59,15.77,-3.07,0.00,4.20,-4.55,-6.07,1100,1100,1100,1100,1065,1500,1514,11075,809
114836,9,-5.99,-0.76,1.28,0.037,0.177,1.019,-1.40,-1.50,0.00,0.00,1.40,1.50,0.00,4.91,5.26,10.90,6.02,0.00,2.85,2.34,-23.44,1100,1100,1100,1100,1065,1500,1514,11070,809
114849,9,6.60,-2.35,2.74,-0.075,0.064,0.783,-0.87,-1.26,0.00,0.00,0.87,1.26,0.00,3.04,4.39,-3.55,6.74,0.00,-3.39,2.53,-53.83,1100,1100,1100,1100,1061,1500,1518,11066,809
114861,9,8.51,2.71,-3.41,-0.398,-0.367,1.373,-2.68,-3.29,0.00,0.00,2.68,3.29,0.00,9.37,11.53,0.86,8.82,0.00,-3.78,-0.40,73.95,1100,1100,1100,1100,1080,1500,1514,11075,809
114872,9,-3.73,0.41,1.49,-0.124,-0.091,1.124,-1.55,1.25,0.00,0.00,1.55,-1.25,0.00,5.42,-4.37,9.15,-4.77,0.00,1.99,0.18,-25.87,1100,1100,1100,1100,1080,1500,1514,11070,809
114884,9,-5.55,-4.39,0.85,0.210,-0.112,0.890,-3.32,0.74,0.00,0.00,3.32,-0.74,0.00,11.62,-2.58,17.17,1.82,0.00,3.34,3.01,-25.48,1100,1100,1100,1100,1080,1500,1514,11070,809
114896,9,6.94,6.04,-1.33,-0.021,-0.090,1.098,-3.43,2.43,0.00,0.00,3.43,-2.43,0.00,12.00,-8.49,5.06,-14.53,0.00,-3.02,-2.72,26.38,1100,1100,1100,1100,1080,1500,1514,11062,809
114909,9,-2.79,3.60,1.57,-0.057,-0.184,0.831,-2.08,4.74,0.00,3.60,2.08,-1.14,0.00,7.29,-4.01,10.08,-7.61,0.00,1.71,-1.94,-35.40,1100,1100,1100,1100,1057,1500,1540,11062,809
114921,9,-1.42,-9.92,-3.57,0.265,-0.149,1.005,-3.88,7.67,0.00,0.00,3.88,-7.67,0.00,13.60,-26.85,15.02,-16.93,0.00,1.75,3.18,68.57,1100,1100,1100,1100,1090,1500,1514,11058,809
114932,9,-10.74,6.08,-0.56,0.302,0.188,0.862,-0.69,13.95,0.00,0.00,0.69,-13.95,0.00,2.43,-48.82,13.17,-54.90,0.00,4.96,-6.86,12.82,1100,1100,1100,1100,1090,1500,1514,11058,809
114945,9,-2.83,-7.35,-0.05,0.336,0.166,0.713,0.49,12.58,0.00,1.98,-0.49,-10.60,0.00,-1.72,-37.10,1.11,-29.76,0.00,1.83,0.78,-13.36,1100,1100,1100,1100,1084,1500,1522,11058,809
114956,9,14.45,-1.26,-0.13,-0.136,-0.351,1.258,-6.30,4.24,0.00,1.98,6.30,-2.26,0.00,22.03,-7.92,7.58,-6.66,0.00,-6.14,0.49,0.23,1100,1100,1100,1100,1084,1500,1522,11066,809
114969,9,-4.48,9.79,0.88,-0.557,-0.176,1.053,-3.28,0.48,0.00,0.00,3.28,-0.48,0.00,11.47,-1.69,15.95,-11.48,0.00,2.61,-5.07,-9.45,1100,1100,1100,1100,1093,1500,1513,11054,809
114981,9,-5.46,10.67,0.17,-0.123,-0.310,1.534,-6.51,0.63,0.00,1.98,6.51,1.35,0.00,22.80,4.71,28.25,-5.96,0.00,4.08,-4.76,5.82,1100,1100,1100,1100,1090,1500,1522,11050,809
114993,9,-10.02,19.17,-0.27,-0.083,-0.103,1.027,-3.40,-4.85,0.00,1.98,3.40,6.83,0.00,11.90,23.91,21.92,4.74,0.00,4.84,-6.95,12.28,1100,1100,1100,1100,1090,1500,1522,11054,809
115004,9,0.57,-5.18,-0.69,-0.323,0.456,1.113,-0.38,-8.23,0.00,2.88,0.38,11.11,0.00,1.31,38.88,0.74,44.05,0.00,-0.03,6.09,12.15,1100,1100,1100,1100,1089,1500,1532,11066,809
115016,9,16.36,3.76,-1.32,-0.384,-0.137,1.512,-4.19,-8.65,0.00,2.88,4.19,11.53,0.00,14.66,40.35,-1.70,36.59,0.00,-7.65,3.08,25.63,1100,1100,1100,1100,1089,1500,1532,11066,809
115029,9,-11.80,6.96,2.83,-0.149,-0.186,1.104,-2.44,-5.68,0.00,0.00,2.44,5.68,0.00,8.54,19.88,20.34,12.92,0.00,5.67,-0.69,-51.42,1100,1100,1100,1100,1110,1500,1514,11075,809
115041,9,7.52,-15.74,1.38,0.320,-0.240,0.932,-6.97,0.73,0.00,0.00,6.97,-0.73,0.00,24.40,-2.56,16.89,13.18,0.00,-2.19,8.52,-28.74,1100,1100,1100,1100,1120,1500,1514,11075,809
115052,9,2.82,8.81,-2.34,-0.451,-0.087,1.146,-1.83,-2.51,0.00,0.00,1.83,2.51,0.00,6.42,8.78,3.60,-0.03,0.00,-1.89,-2.75,39.75,1100,1100,1100,1100,1120,1500,1514,11075,809
115064,9,-8.35,5.75,-1.27,-0.108,0.212,1.088,0.64,-1.54,0.00,0.00,-0.64,1.54,0.00,-2.25,5.39,6.10,-0.36,0.00,4.71,-2.39,16.75,1100,1100,1100,1100,1120,1500,1514,11075,809
115076,9,2.69,1.83,-0.21,0.255,-0.412,0.983,-6.58,0.23,0.00,0.00,6.58,-0.23,0.00,23.03,-0.82,20.34,-2.64,0.00,-0.38,-0.08,-1.27,1100,1100,1100,1100,1120,1500,1514,11070,809
115089,9,-8.88,-0.84,-0.79,0.155,0.216,0.783,1.76,3.50,0.00,0.00,-1.76,-3.50,0.00,-6.16,-12.26,2.72,-11.42,0.00,3.82,-0.52,10.79,1100,1100,1100,1100,1129,1500,1508,11062,809
115101,9,10.81,-15.50,-0.17,-0.135,0.222,1.080,-2.35,-1.78,0.00,2.97,2.35,4.75,0.00,8.23,16.63,-2.58,32.13,0.00,-4.38,8.31,2.02,1100,1100,1100,1100,1104,1500,1533,11054,809
115112,9,5.73,10.12,0.22,-0.408,-0.516,1.262,-5.97,-2.35,0.00,2.97,5.97,5.32,0.00,20.88,18.62,15.15,8.50,0.00,-2.68,-3.85,-14.14,1100,1100,1100,1100,1104,1500,1533,11062,809
115124,9,-7.33,4.99,0.75,-0.094,-0.375,1.169,-5.91,-2.64,0.00,0.00,5.91,2.64,0.00,20.68,9.25,28.01,4.26,0.00,4.81,-1.65,-13.00,1100,1100,1100,1100,1132,1500,1513,11062,809
115136,9,3.93,2.10,4.66,-0.093,-0.297,1.135,-9.09,-3.30,0.00,0.00,9.09,3.30,0.00,31.80,11.54,27.87,9.45,0.00,-0.76,0.42,-83.28,1100,1100,1100,1100,1132,1500,1513,11062,809
115149,9,-7.66,2.12,-1.26,0.018,0.266,0.983,-3.93,3.14,0.00,0.00,3.93,-3.14,0.00,13.77,-11.00,21.42,-13.11,0.00,3.85,-2.30,37.48,1100,1100,1100,1100,1136,1500,1513,11062,809
115161,9,5.66,-3.25,-0.95,-0.191,0.210,1.239,-4.38,-2.24,0.00,0.00,4.38,2.24,0.00,15.31,7.83,9.66,11.07,0.00,-1.82,2.29,30.55,1100,1100,1100,1100,1149,1500,1513,11058,809
115172,9,2.36,-1.32,-0.75,0.004,-0.212,1.010,-5.00,-3.58,0.00,0.00,5.00,3.58,0.00,17.49,12.53,15.13,13.85,0.00,-0.93,2.21,10.76,1100,1100,1100,1100,1149,1500,1513,11058,809
115185,9,-6.93,-7.97,2.40,0.119,0.128,1.128,-2.69,1.75,0.00,0.00,2.69,-1.75,0.00,9.43,-6.12,16.36,1.84,0.00,3.88,3.35,-44.58,1100,1100,1100,1100,1152,1500,1513,11062,809
115197,9,10.74,-9.05,3.35,0.250,0.010,0.635,-3.30,8.70,0.00,0.00,3.30,-8.70,0.00,11.54,-30.44,0.79,-21.39,0.00,-4.86,2.90,-70.62,1100,1100,1100,1100,1152,1500,1513,11054,809
115209,9,0.94,9.48,-4.38,-0.330,-0.315,1.128,-0.99,8.14,0.00,0.00,0.99,-8.14,0.00,3.46,-28.50,2.53,-37.97,0.00,-0.17,-6.59,90.27,1100,1100,1100,1100,1158,1500,1509,11041,809
115221,9,-1.10,1.40,-1.55,-0.030,-0.354,0.988,-2.82,10.60,0.00,1.89,2.82,-8.71,0.00,9.88,-30.48,10.99,-31.87,0.00,1.31,-2.61,29.82,1100,1100,1100,1100,1146,1500,1521,11029,809
115232,9,-7.50,5.77,-0.77,-0.044,-0.101,1.060,-1.41,5.64,0.00,1.89,1.41,-3.75,0.00,4.94,-13.13,12.45,-18.90,0.00,3.56,-2.95,2.77,1100,1100,1100,1100,1146,1500,1521,11012,809
115245,9,-6.80,-4.97,-0.12,0.437,0.303,0.803,3.56,8.66,0.00,0.00,-3.56,-8.66,0.00,-12.44,-30.30,-5.64,-25.33,0.00,2.74,1.40,-4.38,1149,1195,1191,1153,1172,1500,1513,11012,816
115256,9,2.79,6.06,4.36,-0.225,0.228,0.868,1.78,-1.50,0.00,0.00,-1.78,1.50,0.00,-6.22,5.24,-9.01,-0.82,0.00,-1.78,-1.26,-92.45,1149,1195,1191,1153,1172,1500,1513,11012,816
115269,9,16.99,-2.77,-0.52,-0.118,0.682,0.979,4.81,-2.74,0.00,0.00,-4.81,2.74,0.00,-16.85,9.61,-33.84,12.37,0.00,-8.64,3.83,5.52,1149,1195,1191,1153,1177,1500,1508,11029,816
115281,9,0.06,-9.37,-2.19,0.096,0.486,0.936,2.23,0.02,0.00,2.25,-2.23,2.23,0.00,-7.81,7.82,-7.87,17.19,0.00,-0.39,5.80,46.83,1149,1195,1191,1153,1169,1500,1525,11012,816
115293,9,3.32,-10.29,1.62,0.336,0.130,0.293,4.50,11.13,0.00,2.25,-4.50,-8.88,0.00,-15.75,-31.08,-19.07,-20.79,0.00,-2.14,4.19,-38.48,1149,1195,1191,1153,1169,1500,1525,11008,816
115305,9,23.45,-19.89,-0.37,0.385,-0.178,0.816,-0.45,16.28,0.00,5.04,0.45,-11.24,0.00,1.57,-39.36,-21.88,-19.47,0.00,-11.14,8.05,-6.30,1149,1195,1191,1153,1138,1500,1556,11004,816
115316,9,5.94,2.92,-0.55,-0.091,-0.194,1.203,-0.00,3.88,0.00,5.04,0.00,1.16,0.00,0.02,4.08,-5.92,1.15,0.00,-2.91,-0.58,9.41,1149,1195,1191,1153,1138,1500,1556,10987,816
115329,9,-9.09,-2.08,1.82,-0.195,0.119,0.627,2.48,-4.75,0.00,0.00,-2.48,4.75,0.00,-8.68,16.62,0.41,18.70,0.00,4.63,3.18,-36.44,1149,1195,1191,1153,1191,1500,1513,11004,816
115341,9,6.41,-16.21,-1.21,0.524,-0.173,0.968,-1.22,-0.05,0.00,2.25,1.22,2.30,0.00,4.27,8.04,-2.14,24.25,0.00,-2.45,10.55,19.15,1182,1200,1216,1158,1189,1500,1525,11004,819
115352,9,0.48,3.67,-7.03,0.335,-0.657,0.645,-9.95,3.13,0.00,2.25,9.95,-0.88,0.00,34.81,-3.07,34.33,-6.74,0.00,0.19,-1.01,149.37,1182,1200,1216,1158,1189,1500,1525,11008,819
115365,9,-15.39,16.15,-2.11,-0.566,-0.118,1.017,-4.10,-4.02,0.00,1.89,4.10,5.91,0.00,14.36,20.69,29.75,4.54,0.00,8.12,-7.41,44.01,1182,1200,1216,1158,1196,1500,1521,11004,819
115376,9,6.34,-25.93,-1.38,0.086,0.091,1.420,-4.82,-0.71,0.00,1.89,4.82,2.60,0.00,16.88,9.10,10.53,35.03,0.00,-1.05,12.46,19.07,1182,1200,1216,1158,1196,1500,1521,11004,819
115389,1,22.86,8.17,-1.12,-0.461,-0.478,1.417,-9.42,-5.97,0.00,0.00,9.42,5.97,0.00,32.98,20.89,10.12,12.72,0.00,-10.55,-1.77,30.51,1182,1200,1216,1158,1204,1500,1513,10975,819
115401,1,-20.60,0.80,2.85,0.324,0.019,-0.013,22.19,9.36,0.00,0.00,-22.19,-9.36,0.00,-77.65,-32.76,-57.05,-33.56,0.00,5.74,-0.81,-37.71,1182,1200,1216,1158,1215,1500,1508,10958,819
115413,1,-16.58,-27.23,-0.39,0.513,1.286,-0.093,24.15,7.50,0.00,0.00,-24.15,-7.50,0.00,-84.54,-26.27,-67.95,0.97,0.00,5.75,13.49,23.44,1182,1200,1216,1158,1215,1500,1508,10946,819
115425,1,21.38,10.97,-2.41,0.712,-0.384,1.492,9.24,1.63,0.00,0.00,-9.24,-1.63,0.00,-32.37,-5.69,-53.75,-16.66,0.00,-11.06,-1.67,48.18,1182,1200,1216,1158,1207,1500,1516,10950,819
115436,1,12.48,52.45,-7.54,-0.653,-1.695,2.268,0.31,2.70,0.00,0.00,-0.31,-2.70,0.00,-1.15,-9.44,-13.63,-61.88,0.00,-7.11,-26.29,142.46,1182,1200,1216,1158,1207,1500,1516,10950,819
115449,1,-43.69,-30.34,2.53,-0.526,-0.543,0.727,14.50,8.76,0.00,0.00,-14.50,-8.76,0.00,-50.82,-30.68,-7.13,-0.33,0.00,19.36,8.29,-47.35,1279,1193,1173,1263,1227,1500,1516,10921,817
115461,1,8.07,-62.10,6.24,-0.013,1.374,0.145,18.46,11.83,0.00,0.00,-18.46,-11.83,0.00,-64.70,-41.43,-72.77,20.67,0.00,-4.90,28.54,-102.57,1279,1193,1173,1263,1232,1500,1517,10908,817
115473,1,13.37,49.70,4.55,0.579,-0.581,1.164,-0.84,4.29,0.00,0.00,0.84,-4.29,0.00,2.85,-15.06,-10.52,-64.76,0.00,-5.86,-21.06,-58.90,1279,1193,1173,1263,1232,1500,1517,10908,817
115485,1,21.90,62.36,3.16,-0.920,-1.027,2.374,4.88,-4.78,0.00,0.00,-4.88,4.78,0.00,-17.18,16.70,-39.08,-45.66,0.00,-13.31,-32.06,-23.30,1279,1193,1173,1263,1234,1500,1516,10912,817
115496,1,-55.64,-83.29,-0.95,0.791,-1.029,-0.761,-11.72,10.01,0.00,0.00,11.72,-10.01,0.00,40.92,-35.06,96.55,48.23,0.00,27.53,35.45,58.82,1279,1193,1173,1263,1234,1500,1516,10908,817
115509,1,-13.96,-16.16,-2.14,-0.839,1.628,2.049,1.40,-2.46,0.00,0.00,-1.40,2.46,0.00,-5.01,8.57,8.95,24.72,0.00,7.93,5.73,88.44,1279,1193,1173,1263,1236,1500,1516,10891,817
115521,1,50.48,17.44,3.10,-0.820,0.119,1.916,-29.83,8.30,0.00,0.00,29.83,-8.30,0.00,104.33,-29.11,53.85,-46.55,0.00,-18.68,-14.26,-25.43,1279,1193,1173,1263,1238,1500,1516,10896,817
115532,1,71.39,28.90,-10.16,1.319,-0.470,0.714,-24.36,17.33,0.00,0.00,24.36,-17.33,0.00,85.20,-60.73,13.82,-89.63,0.00,-30.55,-18.19,173.45,1279,1193,1173,1263,1238,1500,1516,10891,817
115545,1,15.09,11.50,2.62,-0.032,-0.369,0.768,-29.34,12.96,0.00,0.00,29.34,-12.96,0.00,102.69,-45.44,87.61,-56.94,0.00,-4.90,-12.48,-107.44,1233,1191,1303,1261,1247,1500,1517,10883,817
115557,1,-27.76,-10.81,-7.01,1.337,-0.952,-0.040,-26.19,11.70,0.00,0.00,26.19,-11.70,0.00,91.69,-41.05,119.45,-30.25,0.00,17.37,3.03,42.50,1233,1191,1303,1261,1247,1500,1517,10883,817
115569,1,-24.52,-30.52,-8.04,-1.041,0.086,1.315,-13.24,2.69,0.00,0.00,13.24,-2.69,0.00,46.36,-9.51,70.88,21.01,0.00,14.95,14.19,48.10,1233,1191,1303,1261,1262,1500,1507,10896,817
115581,1,13.98,20.51,-7.57,-1.072,0.197,2.041,-5.80,-6.05,0.00,1.89,5.80,7.94,0.00,20.36,27.69,6.38,7.18,0.00,-5.48,-3.52,25.09,1233,1191,1303,1261,1250,1500,1521,10875,817
115592,1,-7.92,-8.91,-10.40,0.046,-0.646,0.662,8.39,12.68,0.00,1.89,-8.39,-10.79,0.00,-29.35,-37.87,-21.43,-28.96,0.00,1.52,3.99,98.72,1233,1191,1303,1261,1250,1500,1521,10858,817
115605,1,-14.62,10.18,-5.88,-0.276,-0.721,1.393,1.39,5.72,0.00,0.00,-1.39,-5.72,0.00,-4.87,-20.15,9.76,-30.32,0.00,5.24,-4.20,49.98,1233,1191,1303,1261,1255,1500,1516,10854,817
115616,1,-29.55,1.87,-2.06,0.703,-0.092,0.473,12.37,23.10,0.00,0.00,-12.37,-23.10,0.00,-43.28,-80.99,-13.74,-82.86,0.00,12.11,-5.02,-19.50,1233,1191,1303,1261,1255,1500,1516,10854,817
115629,1,-17.12,1.58,2.29,0.911,0.541,0.087,22.03,31.81,0.00,2.88,-22.03,-28.93,0.00,-77.12,-101.42,-59.99,-103.01,0.00,6.03,-8.59,-102.43,1233,1191,1303,1261,1239,1500,1532,10854,817
115641,1,-0.84,15.68,1.26,0.388,1.232,0.910,10.70,21.36,0.00,0.00,-10.70,-21.36,0.00,-37.48,-74.94,-36.64,-90.62,0.00,0.94,-15.11,-60.83,1303,1213,1183,1333,1258,1500,1517,10850,817
115652,1,26.09,1.51,-1.67,1.259,0.904,0.955,8.06,11.47,0.00,0.00,-8.06,-11.47,0.00,-28.22,-40.35,-54.31,-41.86,0.00,-11.68,-3.48,-8.10,1303,1213,1183,1333,1258,1500,1517,10854,817
115665,1,32.41,-51.07,-1.69,2.051,-0.357,-0.089,-15.34,18.52,0.00,0.00,15.34,-18.52,0.00,53.68,-65.05,21.27,-13.98,0.00,-11.88,19.23,-24.14,1303,1213,1183,1333,1263,1500,1516,10846,817
115676,1,23.07,-39.38,-3.09,-0.776,-1.125,1.466,-11.18,0.26,0.00,0.00,11.18,-0.26,0.00,39.12,-1.12,16.05,38.26,0.00,-10.06,15.82,21.06,1303,1213,1183,1333,1263,1501,1516,10858,817
115689,1,8.14,7.18,-9.33,-1.763,-1.495,2.370,-6.15,-13.38,0.00,0.00,6.15,13.38,0.00,21.52,46.62,13.39,39.44,0.00,-4.88,4.85,139.90,1303,1213,1183,1333,1263,1501,1516,10871,817
115701,1,-14.78,-16.28,-9.77,-0.181,-2.200,0.750,1.76,5.86,0.00,0.00,-1.76,-5.86,0.00,-6.21,-20.72,8.58,-4.45,0.00,4.84,11.91,131.22,1303,1213,1183,1333,1275,1500,1515,10858,817
115713,1,-49.48,-0.51,-7.75,-1.825,-2.150,1.231,19.60,7.49,0.00,0.00,-19.60,-7.49,0.00,-68.68,-26.44,-19.20,-25.93,0.00,18.71,-0.87,92.10,1303,1213,1183,1333,1275,1500,1515,10842,817
115725,1,-70.06,52.31,-7.53,-2.650,-1.483,2.274,8.63,-5.08,0.00,0.00,-8.63,5.08,0.00,-30.30,17.55,39.76,-34.76,0.00,31.29,-22.28,83.71,1303,1213,1183,1333,1283,1500,1508,10842,817
115736,1,-70.63,52.52,-5.42,-0.117,1.145,1.046,15.49,3.05,0.00,0.00,-15.49,-3.05,0.00,-54.31,-10.92,16.32,-63.44,0.00,33.01,-20.47,44.29,1303,1213,1183,1333,1283,1500,1508,10842,817
115749,1,-25.90,14.80,-3.50,1.028,2.256,0.441,29.14,17.44,0.00,0.00,-29.14,-17.44,0.00,-102.09,-61.29,-76.19,-76.09,0.00,11.00,-7.97,11.97,1258,1306,1314,1230,1277,1500,1515,10808,817
115761,1,13.83,21.40,-1.76,0.056,2.107,0.766,-8.49,18.48,0.00,0.00,8.49,-18.48,0.00,29.63,-64.94,15.80,-86.35,0.00,-3.25,-19.32,-12.90,1258,1306,1314,1230,1277,1500,1515,10800,817
115772,1,61.38,61.88,0.05,0.193,1.503,2.145,-8.30,0.23,0.00,0.00,8.30,-0.23,0.00,28.97,-1.07,-32.41,-62.95,0.00,-26.45,-32.43,-60.32,1258,1306,1314,1230,1277,1500,1515,10787,817
115785,1,75.54,45.97,-3.07,1.838,0.032,1.251,-8.35,0.72,0.00,0.00,8.35,-0.72,0.00,29.16,-2.79,-46.38,-48.76,0.00,-33.81,-15.91,-10.50,1258,1306,1314,1230,1278,1500,1515,10787,817
115796,1,71.67,-36.26,-4.76,3.696,-0.642,-0.931,-35.68,14.13,0.00,0.00,35.68,-14.13,0.00,124.82,-49.72,53.15,-13.46,0.00,-30.81,18.20,2.29,1258,1306,1314,1230,1278,1500,1515,10800,817
115809,1,58.77,-96.87,-3.73,3.588,-1.894,-1.859,-40.73,19.66,0.00,0.00,40.73,-19.66,0.00,142.53,-69.08,83.75,27.78,0.00,-25.52,35.65,-28.03,1258,1306,1314,1230,1283,1500,1516,10787,817
115821,1,21.63,-96.67,-3.55,0.804,-2.785,-0.498,-31.66,9.86,0.00,0.00,31.66,-9.86,0.00,110.80,-34.81,89.16,61.87,0.00,-8.29,36.35,-42.13,1258,1306,1314,1230,1287,1500,1513,10783,817
115832,1,9.59,-46.45,-2.10,-0.414,-2.324,0.647,-25.06,-1.98,0.00,0.00,25.06,1.98,0.00,87.72,6.62,78.13,53.07,0.00,-3.79,17.19,-68.81,1258,1306,1314,1230,1287,1500,1513,10775,817
115845,1,-17.07,-34.46,-0.48,-1.000,-1.940,0.413,-18.15,-7.44,0.00,0.00,18.15,7.44,0.00,63.53,25.74,80.60,60.20,0.00,8.49,17.00,-94.09,1101,1435,1411,1205,1288,1500,1519,10771,816
115857,1,-31.86,-32.98,-1.50,-1.637,-0.831,0.958,-9.86,-13.67,0.00,0.00,9.86,13.67,0.00,34.54,47.54,66.41,80.52,0.00,15.72,20.39,-86.15,1101,1435,1411,1205,1288,1500,1519,10762,816
115869,1,-36.46,-41.08,-1.72,-0.470,-0.435,0.122,-16.64,-8.55,0.00,0.00,16.64,8.55,0.00,58.28,29.62,94.75,70.70,0.00,20.49,24.96,-89.24,1101,1435,1411,1205,1297,1500,1514,10750,816
115881,1,-41.69,-14.25,-4.82,-0.695,0.243,0.218,0.65,-8.33,0.00,0.00,-0.65,8.33,0.00,-2.20,28.86,39.48,43.11,0.00,20.72,9.66,-30.49,1101,1435,1411,1205,1297,1500,1515,10746,816
115893,1,-18.17,-28.04,-2.83,0.399,0.997,-0.481,15.86,9.22,0.00,0.00,-15.86,-9.22,0.00,-55.44,-32.57,-37.27,-4.53,0.00,7.62,12.60,-73.17,1101,1435,1411,1205,1297,1500,1515,10733,816
115905,1,17.02,-16.93,-2.75,0.192,1.117,0.400,12.06,11.30,0.00,0.00,-12.06,-11.30,0.00,-42.15,-39.87,-59.17,-22.94,0.00,-9.19,6.30,-69.85,1101,1435,1411,1205,1305,1500,1515,10742,816
115917,1,31.14,-49.75,-1.19,1.260,0.404,-0.228,0.67,35.60,0.00,0.00,-0.67,-35.60,0.00,-2.28,-124.94,-33.42,-75.19,0.00,-14.53,10.91,-91.63,1101,1435,1411,1205,1305,1500,1515,10721,816
115929,5,30.19,-36.45,-4.22,1.675,-0.072,-0.085,-29.83,46.06,0.00,0.00,29.83,-46.06,0.00,104.50,-375.00,74.30,-338.55,0.00,-9.40,-8.11,-31.48,1101,1435,1411,1205,1319,1500,1508,10721,816
115941,1,12.11,-25.05,-7.43,0.779,-1.099,0.829,-5.04,33.67,0.00,0.00,5.04,-33.67,0.00,17.70,-118.29,5.59,-93.24,0.00,-4.22,-2.43,29.46,1287,1349,1337,1283,1314,1500,1515,10737,816
115952,1,16.11,-52.19,-5.86,1.236,-1.328,-0.227,-13.77,27.53,0.00,0.00,13.77,-27.53,0.00,48.28,-96.82,32.17,-44.63,0.00,-5.15,15.65,-6.10,1287,1349,1337,1283,1314,1500,1515,10746,816
115965,1,-4.17,-34.85,-13.66,0.523,-1.606,0.300,-10.78,17.58,0.00,0.00,10.78,-17.58,0.00,37.78,-62.02,41.95,-27.17,0.00,4.05,10.91,132.28,1287,1349,1337,1283,1315,1500,1515,10750,816
115976,1,9.08,-79.07,-12.69,0.448,-1.794,0.062,-10.45,12.13,0.00,0.00,10.45,-12.13,0.00,36.64,-42.98,27.56,36.09,0.00,-1.85,30.83,96.29,1287,1349,1337,1283,1315,1500,1515,10746,816
115989,1,-2.60,-78.17,-14.21,0.776,-2.080,-0.574,-14.68,9.32,0.00,0.00,14.68,-9.32,0.00,51.44,-33.14,54.04,45.03,0.00,5.62,30.86,105.40,1287,1349,1337,1283,1316,1500,1514,10771,816
116001,1,-6.78,-47.35,-13.79,-0.769,-2.615,0.640,-11.06,-1.56,0.00,0.00,11.06,1.56,0.00,38.78,4.94,45.56,52.28,0.00,7.02,17.96,91.23,1287,1349,1337,1283,1317,1500,1514,10762,816
116012,1,-23.27,-69.32,-12.60,0.061,-2.955,0.109,-12.03,-5.08,0.00,0.00,12.03,5.08,0.00,42.17,17.25,65.44,86.57,0.00,14.04,30.53,74.84,1287,1349,1337,1283,1317,1500,1514,10762,816
116025,1,-21.87,-87.10,-8.78,1.082,-2.657,-0.922,-14.26,0.91,0.00,2.25,14.26,1.34,0.00,49.98,4.15,71.85,91.25,0.00,12.91,36.71,4.89,1287,1349,1337,1283,1306,1500,1525,10742,816
116036,1,-19.80,-68.45,-5.29,1.067,-2.673,-0.203,-18.36,3.45,0.00,2.25,18.36,-1.20,0.00,64.34,-4.72,84.14,63.73,0.00,11.65,27.21,-53.16,1287,1349,1337,1283,1306,1500,1525,10725,816
116049,1,-24.70,-47.83,-1.77,0.454,-2.688,0.567,-23.07,9.85,0.00,0.00,23.07,-9.85,0.00,80.84,-35.02,105.54,12.80,0.00,14.31,16.73,-111.83,1466,1250,1164,1400,1320,1500,1514,10667,817
116061,1,-31.41,-51.77,-1.31,-0.202,-2.754,1.482,-26.33,10.58,0.00,0.00,26.33,-10.58,0.00,92.28,-37.60,123.69,14.17,0.00,18.17,18.55,-104.37,1466,1250,1164,1400,1326,1500,1514,10675,817
116072,1,-40.35,-88.51,3.11,-0.011,-2.730,0.864,-30.92,14.13,0.00,0.00,30.92,-14.13,0.00,108.38,-50.04,148.73,38.48,0.00,22.90,30.94,-173.91,1466,1250,1164,1400,1326,1500,1514,10675,817
116085,1,-39.64,-94.82,6.25,0.911,-3.018,-0.213,-23.98,19.37,0.00,0.00,23.98,-19.37,0.00,84.13,-68.41,123.77,26.41,0.00,21.46,34.13,-218.80,1466,1250,1164,1400,1333,1500,1508,10675,817
116096,1,-36.78,-53.70,1.31,0.730,-1.980,0.021,-23.08,13.02,0.00,0.00,23.08,-13.02,0.00,81.01,-46.21,117.79,7.49,0.00,20.45,19.66,-123.12,1466,1250,1164,1400,1333,1500,1508,10696,817
116109,1,-36.70,-4.72,-4.67,-0.605,-1.227,1.068,-15.85,-4.24,0.00,0.00,15.85,4.24,0.00,55.70,14.21,92.40,18.93,0.00,20.84,3.92,-28.09,1466,1250,1164,1400,1327,1500,1514,10729,817
116121,1,-34.94,10.75,-9.44,-0.867,-1.071,1.660,-8.58,-15.29,0.00,0.00,8.58,15.29,0.00,30.28,52.90,65.21,42.15,0.00,19.70,-2.55,60.67,1466,1250,1164,1400,1334,1500,1507,10742,817
116132,1,-27.80,6.18,-11.91,-0.205,-0.643,1.396,-1.55,-12.49,0.00,0.00,1.55,12.49,0.00,5.65,43.10,33.45,36.92,0.00,15.72,-4.64,111.52,1466,1250,1164,1400,1334,1500,1507,10742,817
116145,1,-18.76,-17.65,-9.04,0.464,-0.411,0.810,-5.39,4.14,0.00,0.00,5.39,-4.14,0.00,19.09,-15.09,37.85,2.56,0.00,12.92,-1.08,48.92,1397,1275,1293,1343,1327,1500,1514,10721,812
116156,1,-10.43,-15.97,-5.01,-0.445,-0.084,1.352,-0.29,6.55,0.00,0.00,0.29,-6.55,0.00,1.23,-23.54,11.66,-7.58,0.00,8.70,-4.86,-43.89,1397,1275,1293,1343,1327,1500,1514,10704,812
116169,1,-8.72,-19.91,-2.59,0.843,0.065,0.834,2.79,20.78,0.00,0.00,-2.79,-20.78,0.00,-9.55,-73.36,-0.83,-53.45,0.00,7.92,-7.52,-96.41,1397,1275,1293,1343,1339,1500,1509,10683,812
116181,1,-22.39,-11.70,-10.66,-1.163,0.115,2.332,6.36,24.45,0.00,0.00,-6.36,-24.45,0.00,-22.01,-86.25,0.38,-74.55,0.00,12.42,-15.60,55.52,1397,1275,1293,1343,1334,1500,1514,10667,812
116192,1,-24.99,3.99,-12.64,-2.090,-0.142,2.203,5.31,-2.25,0.00,0.00,-5.31,2.25,0.00,-18.35,7.19,6.64,3.20,0.00,12.88,-10.73,86.20,1397,1275,1293,1343,1334,1500,1514,10663,812
116205,1,-34.83,-31.31,-16.55,-1.900,0.329,1.820,4.00,-19.09,0.00,0.00,-4.00,19.09,0.00,-13.76,66.16,21.06,97.47,0.00,17.09,7.27,176.06,1397,1275,1293,1343,1335,1500,1514,10658,812
116216,1,-46.25,-73.39,-25.22,0.729,0.821,0.507,8.09,-3.82,0.00,0.00,-8.09,3.82,0.00,-28.09,12.73,18.16,86.12,0.00,21.86,19.63,348.95,1397,1275,1293,1343,1335,1500,1514,10663,812
116229,1,-57.68,-26.88,-30.33,-0.834,1.054,2.206,0.85,9.39,0.00,0.00,-0.85,-9.39,0.00,-2.73,-33.52,54.94,-6.64,0.00,27.27,-12.98,350.00,1397,1275,1293,1343,1334,1500,1514,10696,812
116241,1,-59.97,-51.14,-28.19,-0.984,0.002,1.531,1.75,6.58,0.00,0.00,-1.75,-6.58,0.00,-5.87,-23.71,54.11,27.43,0.00,27.43,3.35,350.00,1100,1500,1500,1100,1335,1500,1514,10717,816
116252,1,-60.33,-72.79,-18.53,-0.511,-1.197,1.180,-5.08,0.62,0.00,0.00,5.08,-0.62,0.00,18.03,-2.84,78.36,69.95,0.00,27.57,15.21,194.08,1100,1500,1500,1100,1335,1500,1514,10729,816
116265,1,-53.65,-90.26,-16.57,-0.088,-2.211,1.035,-13.96,7.56,0.00,0.00,13.96,-7.56,0.00,49.13,-27.16,102.78,63.10,0.00,24.55,18.39,174.55,1100,1500,1500,1100,1336,1500,1514,10733,816
116276,1,-41.35,-100.08,-14.92,0.369,-2.777,0.259,-16.25,16.26,0.00,0.00,16.25,-16.26,0.00,57.14,-57.63,98.49,42.45,0.00,19.69,21.67,140.04,1100,1500,1500,1100,1336,1500,1514,10721,816
116289,1,-25.62,-88.72,-14.49,0.331,-2.746,0.283,-15.43,19.35,0.00,0.00,15.43,-19.35,0.00,54.28,-68.48,79.90,20.24,0.00,11.90,16.04,125.66,1100,1500,1500,1100,1331,1500,1517,10737,816
116301,1,-13.51,-62.17,-11.94,-0.242,-2.468,0.881,-6.72,17.38,0.00,0.00,6.72,-17.38,0.00,23.79,-61.60,37.30,0.57,0.00,4.24,6.07,71.76,1100,1500,1500,1100,1336,1500,1513,10742,816
116312,1,0.22,-43.48,-9.38,-1.039,-1.998,2.012,4.77,9.96,0.00,0.00,-4.77,-9.96,0.00,-16.44,-35.64,-16.66,7.84,0.00,-4.50,1.33,21.88,1100,1500,1500,1100,1336,1500,1513,10737,816
116325,1,8.77,-78.98,-7.22,-0.551,-1.972,1.479,8.56,6.21,0.00,0.00,-8.56,-6.21,0.00,-29.72,-22.54,-38.49,56.44,0.00,-9.16,19.40,-11.44,1100,1500,1500,1100,1334,1500,1513,10742,816
116336,1,16.81,-79.51,-5.95,-0.937,-1.825,1.596,4.42,-3.68,0.00,0.00,-4.42,3.68,0.00,-15.23,12.06,-32.03,91.57,0.00,-12.14,21.16,-27.99,1100,1500,1500,1100,1334,1500,1513,10742,816
116349,1,10.08,-131.80,-4.66,0.112,-1.853,0.623,-3.63,-8.38,0.00,0.00,3.63,8.38,0.00,12.94,28.53,2.86,160.33,0.00,-7.16,43.61,-51.14,1361,1367,1285,1331,1336,1500,1513,10713,816
116361,1,11.72,-137.66,-3.98,1.492,-1.787,-0.480,-18.13,-2.67,0.00,0.00,18.13,2.67,0.00,63.70,8.55,51.98,146.21,0.00,-5.79,43.01,-61.33,1361,1367,1285,1331,1334,1500,1513,10708,816
116372,1,16.02,-149.93,-2.63,3.197,-1.975,-1.578,-29.09,4.81,0.00,0.00,29.09,-4.81,0.00,102.04,-17.64,86.03,132.29,0.00,-6.00,45.28,-89.95,1361,1367,1285,1331,1334,1500,1513,10704,816
116385,1,29.49,-117.67,-6.07,3.123,-1.745,-1.109,-32.22,9.33,0.00,0.00,32.22,-9.33,0.00,113.03,-33.44,83.54,84.23,0.00,-12.30,28.18,-33.13,1361,1367,1285,1331,1334,1500,1513,10704,816
116396,1,39.45,-99.74,-7.30,2.986,-1.748,-0.903,-31.60,12.93,0.00,0.00,31.60,-12.93,0.00,110.89,-46.05,71.44,53.69,0.00,-17.19,18.27,-25.29,1361,1367,1285,1331,1334,1500,1513,10721,816
116409,1,53.39,-73.48,-9.60,2.475,-1.917,-0.557,-28.77,12.43,0.00,0.00,28.77,-12.43,0.00,101.00,-44.32,47.61,29.16,0.00,-24.12,7.50,4.73,1361,1367,1285,1331,1335,1500,1513,10733,816
116421,1,73.17,-51.65,-11.55,1.270,-1.805,0.110,-24.53,6.79,0.00,0.00,24.53,-6.79,0.00,86.19,-24.60,13.01,27.05,0.00,-34.37,0.04,48.20,1361,1367,1285,1331,1335,1500,1514,10725,816
116432,1,86.61,-55.69,-9.79,1.004,-1.663,0.409,-23.52,2.25,0.00,0.00,23.52,-2.25,0.00,82.67,-8.69,-3.94,47.00,0.00,-41.09,2.43,30.11,1361,1367,1285,1331,1335,1500,1514,10700,816
116445,1,99.43,-55.21,-8.96,1.137,-1.209,0.682,-22.98,3.98,0.00,2.61,22.98,-1.37,0.00,80.77,-5.61,-18.66,49.61,0.00,-47.31,1.28,30.32,1492,1100,1204,1500,1319,1500,1529,10667,816
116456,1,97.48,-60.52,-7.39,0.843,-0.242,1.165,-21.67,5.61,0.00,2.61,21.67,-3.00,0.00,76.22,-11.32,-21.26,49.20,0.00,-46.65,2.68,9.63,1492,1100,1204,1500,1319,1500,1529,10654,816
116469,1,86.13,-84.81,-8.14,1.232,0.427,0.463,-14.45,14.12,0.00,0.00,14.45,-14.12,0.00,50.96,-50.23,-35.17,34.58,0.00,-40.72,13.59,14.77,1492,1100,1204,1500,1334,1500,1514,10638,816
116481,1,80.46,-94.55,-11.06,1.108,0.284,-0.464,14.30,12.06,0.00,0.00,-14.30,-12.06,0.00,-49.65,-43.06,-130.11,51.49,0.00,-41.12,20.50,77.19,1492,1100,1204,1500,1335,1500,1513,10658,816
116492,1,73.58,-64.98,-17.52,1.238,0.219,-0.165,27.69,12.87,0.00,0.00,-27.69,-12.87,0.00,-96.54,-45.88,-170.12,19.10,0.00,-39.51,7.01,211.45,1492,1100,1204,1500,1335,1500,1513,10667,816
116505,1,66.60,-39.35,-25.74,-0.046,0.637,0.657,16.47,0.24,0.00,0.00,-16.47,-0.24,0.00,-57.28,-1.69,-123.87,37.65,0.00,-34.29,-4.77,350.00,1492,1100,1204,1500,1334,1500,1514,10700,816
116516,1,57.94,-26.98,-26.09,-0.506,0.911,1.040,12.31,-12.34,0.00,0.00,-12.31,12.34,0.00,-42.72,42.36,-100.66,69.34,0.00,-29.23,-6.95,336.59,1492,1100,1204,1500,1334,1500,1514,10717,816
116529,1,45.55,-28.19,-22.87,-1.273,0.948,2.044,4.92,-19.78,0.00,0.00,-4.92,19.78,0.00,-16.89,68.42,-62.44,96.61,0.00,-22.20,-8.44,258.24,1492,1100,1204,1500,1334,1500,1513,10725,816
116541,1,37.73,-53.58,-17.66,-1.397,0.652,1.773,-3.50,-19.78,0.00,3.24,3.50,23.02,0.00,12.60,79.78,-25.13,133.36,0.00,-17.59,3.54,156.09,1175,1481,1453,1135,1311,1500,1536,10721,816
116552,1,38.38,-66.36,-13.80,-1.431,-0.097,1.698,-10.94,-20.54,0.00,3.24,10.94,23.78,0.00,38.67,82.49,0.29,148.85,0.00,-16.57,9.25,88.62,1175,1481,1453,1135,1311,1500,1536,10696,816
116565,1,29.41,-82.27,-12.79,-0.802,-1.115,1.299,-12.17,-22.44,0.00,0.00,12.17,22.44,0.00,42.98,77.82,13.57,160.10,0.00,-11.92,17.37,77.75,1175,1481,1453,1135,1336,1500,1512,10683,816
116576,1,6.63,-71.86,-13.42,-1.377,-1.324,2.149,-4.07,-27.03,0.00,0.00,4.07,27.03,0.00,14.62,93.93,7.98,165.80,0.00,-2.36,12.20,98.66,1175,1481,1453,1135,1336,1500,1512,10683,816
116589,1,-9.61,-105.06,-12.86,-0.662,-1.890,1.539,1.73,-15.10,0.00,2.61,-1.73,17.71,0.00,-5.69,61.32,3.92,166.38,0.00,4.69,23.26,91.81,1175,1481,1453,1135,1317,1500,1529,10667,816
116601,1,-17.73,-122.01,-13.77,0.131,-2.305,0.994,6.56,3.09,0.00,0.00,-6.56,-3.09,0.00,-22.60,-11.50,-4.87,110.51,0.00,7.82,26.01,109.59,1175,1481,1453,1135,1334,1500,1513,10667,816
116612,1,-79.25,-122.21,-7.90,1.845,-3.008,0.895,12.97,20.69,0.00,0.00,-12.97,-20.69,0.00,-45.08,-73.12,34.17,49.09,0.00,35.08,22.59,-8.78,1175,1481,1453,1135,1334,1500,1513,10671,816
116625,1,-62.87,-95.31,7.38,1.104,-2.209,0.146,-5.18,20.34,0.00,0.00,5.18,-20.34,0.00,18.46,-71.93,81.33,23.39,0.00,25.20,16.85,-191.19,1175,1481,1453,1135,1335,1500,1512,10679,816
116636,1,-69.65,-144.88,8.08,2.667,-2.758,-1.166,9.13,31.80,0.00,0.00,-9.13,-31.80,0.00,-31.65,-112.07,37.99,32.81,0.00,21.49,37.07,-141.18,1175,1481,1453,1135,1335,1500,1512,10683,816
116649,1,-65.05,-53.66,12.91,1.518,-3.054,-0.229,-9.15,25.58,0.00,2.70,9.15,-22.88,0.00,32.32,-80.86,97.37,-27.20,0.00,19.16,5.45,-174.46,1500,1170,1100,1500,1318,1500,1530,10696,844
116661,1,-26.75,-33.44,2.61,0.444,-4.289,1.854,0.83,15.21,0.00,0.00,-0.83,-15.21,0.00,-2.64,-54.06,24.11,-20.62,0.00,-0.50,1.77,31.68,1500,1170,1100,1500,1336,1500,1512,10692,844
116672,1,-0.89,-26.76,-19.09,1.810,-3.120,0.093,-9.70,10.14,0.00,0.00,9.70,-10.14,0.00,34.23,-36.31,35.12,-9.54,0.00,-6.76,8.59,350.00,1500,1170,1100,1500,1336,1500,1512,10688,844
116685,1,17.59,-12.81,-16.76,1.041,-2.211,1.180,-9.30,8.59,0.00,0.00,9.30,-8.59,0.00,32.79,-30.90,15.20,-18.09,0.00,-10.11,-5.41,212.05,1500,1170,1100,1500,1336,1500,1512,10692,844
116696,1,43.40,-18.11,-23.72,1.982,-1.485,0.338,-17.86,28.27,0.00,0.00,17.86,-28.27,0.00,62.77,-99.81,19.37,-81.69,0.00,-17.67,-2.60,280.07,1500,1170,1100,1500,1336,1500,1512,10713,844
116709,1,34.75,30.83,-28.32,-0.464,-1.069,1.215,-16.95,10.26,0.00,0.00,16.95,-10.26,0.00,59.62,-36.80,24.86,-67.63,0.00,-11.67,-19.58,350.00,1500,1170,1100,1500,1336,1500,1512,10708,844
116721,1,11.75,-7.61,-19.25,1.374,0.214,0.357,-6.77,19.55,0.00,0.00,6.77,-19.55,0.00,23.99,-69.30,12.24,-61.69,0.00,-0.46,0.28,185.44,1500,1170,1100,1500,1335,1500,1512,10688,844
116733,1,6.83,14.22,-5.34,1.925,1.301,0.487,5.36,13.46,0.00,0.00,-5.36,-13.46,0.00,-18.46,-48.02,-25.29,-62.25,0.00,-0.88,-9.87,-10.32,1500,1170,1100,1500,1335,1500,1512,10692,844
116745,1,-14.22,12.46,-1.38,1.906,0.563,0.066,7.18,29.83,0.00,3.51,-7.18,-26.32,0.00,-24.83,-93.04,-10.61,-105.51,0.00,3.84,-8.95,-10.49,1354,1258,1262,1358,1308,1500,1539,10721,852
116756,1,-24.33,26.54,-0.86,0.259,0.786,1.223,20.78,21.97,0.00,3.51,-20.78,-18.46,0.00,-72.46,-65.55,-48.13,-92.09,0.00,3.97,-10.20,14.99,1354,1258,1262,1358,1308,1500,1539,10704,852
116769,1,-9.43,0.41,-12.72,-0.268,0.147,1.973,-2.71,16.26,0.00,0.00,2.71,-16.26,0.00,9.77,-57.88,19.21,-58.29,0.00,1.86,5.56,251.62,1354,1258,1262,1358,1336,1500,1511,10717,852
116781,1,1.75,33.53,-29.05,-1.636,0.216,1.888,7.17,2.32,0.00,0.00,-7.17,-2.32,0.00,-24.82,-9.12,-26.57,-42.65,0.00,-1.98,-2.17,350.00,1354,1258,1262,1358,1335,1500,1512,10725,852
116792,1,-9.01,48.56,-17.53,0.047,0.012,1.982,-16.90,5.34,0.00,0.00,16.90,-5.34,0.00,59.43,-19.68,68.44,-68.24,0.00,8.77,-13.43,108.26,1354,1258,1262,1358,1335,1500,1512,10742,852
116805,1,-17.26,49.51,-14.09,0.278,0.549,0.883,-3.50,1.74,0.00,0.00,3.50,-1.74,0.00,12.57,-7.08,29.83,-56.59,0.00,11.77,-7.58,51.34,1354,1258,1262,1358,1335,1500,1512,10725,852
116816,1,-2.52,2.85,-8.46,1.023,0.579,0.827,5.47,2.41,0.00,0.00,-5.47,-2.41,0.00,-18.84,-9.42,-16.33,-12.27,0.00,0.90,12.21,-45.11,1354,1258,1262,1358,1335,1500,1512,10704,852
116829,1,-0.51,26.18,4.12,0.507,-0.958,0.465,-12.90,15.42,0.00,0.00,12.90,-15.42,0.00,45.45,-55.00,45.96,-81.17,0.00,-1.21,-2.12,-230.13,1354,1258,1262,1358,1335,1500,1512,10667,852
116841,1,-2.63,-11.12,2.86,2.692,-0.780,-0.795,-27.52,30.27,0.00,3.51,27.52,-26.76,0.00,96.63,-94.69,99.27,-83.57,0.00,0.02,9.51,-153.60,1471,1147,1165,1453,1309,1500,1539,10642,865
116853,1,20.86,-11.00,4.46,3.019,-0.468,-0.852,-42.88,29.33,0.00,3.51,42.88,-25.82,0.00,150.00,-91.41,129.14,-80.41,0.00,-10.45,7.36,-162.21,1471,1147,1165,1453,1309,1500,1539,10638,865
116865,1,45.17,40.78,-1.24,0.502,-0.079,1.325,-20.92,18.77,0.00,0.00,20.92,-18.77,0.00,73.61,-66.79,28.44,-107.57,0.00,-24.40,-12.63,-58.13,1471,1147,1165,1453,1336,1500,1511,10621,865
116876,1,59.89,41.29,-8.95,0.376,-0.220,0.808,-11.40,9.56,0.00,0.00,11.40,-9.56,0.00,40.30,-34.54,-19.59,-75.83,0.00,-28.68,-5.20,-28.51,1471,1147,1165,1453,1336,1500,1511,10638,865
116889,1,71.65,32.30,-6.89,0.595,0.303,0.392,-2.08,12.61,0.00,0.00,2.08,-12.61,0.00,7.67,-45.23,-63.98,-77.52,0.00,-31.77,-4.05,-127.55,1471,1147,1165,1453,1336,1500,1511,10658,865
116901,1,55.52,48.09,-5.20,-0.264,0.601,1.867,-2.06,9.56,0.00,0.00,2.06,-9.56,0.00,7.60,-34.57,-47.92,-82.66,0.00,-23.78,-13.77,-193.03,1471,1147,1165,1453,1337,1500,1511,10675,865
116912,1,24.65,59.49,1.10,0.294,1.045,1.562,-8.45,15.30,0.00,0.00,8.45,-15.30,0.00,29.99,-54.67,5.33,-114.16,0.00,-11.51,-19.44,-250.20,1471,1147,1165,1453,1337,1500,1511,10667,865
116925,1,6.51,87.00,0.31,-0.704,1.921,1.950,-7.73,10.34,0.00,0.00,7.73,-10.34,0.00,27.47,-37.35,20.97,-124.35,0.00,-6.14,-26.86,-162.08,1471,1147,1165,1453,1337,1500,1511,10650,865
116937,1,14.93,106.05,-7.53,-1.374,2.966,1.938,-9.17,5.61,0.00,0.00,9.17,-5.61,0.00,32.54,-20.78,17.61,-126.83,0.00,-9.10,-32.87,0.39,1471,1147,1165,1453,1337,1497,1511,10667,865
116949,1,-23.04,36.56,-16.63,-0.004,2.332,0.569,-4.51,12.43,0.00,2.97,4.51,-9.46,0.00,16.23,-34.26,39.27,-70.82,0.00,10.41,-0.77,137.93,1100,1500,1500,1100,1315,1497,1533,10638,893
116961,1,-40.60,42.33,-21.40,-0.455,2.565,0.738,-23.49,19.45,0.00,0.00,23.49,-19.45,0.00,82.70,-69.26,123.30,-111.59,0.00,22.94,-11.20,213.54,1100,1500,1500,1100,1337,1500,1511,10625,893
116972,1,-68.94,47.41,-28.63,-0.369,1.118,1.034,-3.08,13.65,0.00,0.00,3.08,-13.65,0.00,11.28,-48.96,80.22,-96.37,0.00,34.93,-11.54,301.75,1100,1500,1500,1100,1337,1500,1511,10638,893
116985,1,-72.75,39.25,-26.81,-1.859,-0.249,1.619,-5.50,1.55,0.00,0.00,5.50,-1.55,0.00,19.77,-6.63,92.52,-45.88,0.00,38.10,-6.99,247.49,1100,1500,1500,1100,1337,1500,1511,10646,893
116996,1,-63.85,26.94,-21.76,-0.945,-1.054,1.774,-9.49,-2.03,0.00,0.00,9.49,2.03,0.00,33.77,5.91,97.62,-21.04,0.00,34.81,-1.71,127.15,1100,1500,1500,1100,1337,1500,1511,10654,893
117009,1,-79.25,31.28,-12.06,-0.885,-3.239,1.210,-19.28,4.53,0.00,0.00,19.28,-4.53,0.00,68.04,-17.07,147.29,-48.35,0.00,41.03,-4.99,-21.16,1100,1500,1500,1100,1337,1500,1511,10633,893
117021,1,-72.23,69.00,-2.85,-3.709,-2.599,3.611,10.44,0.53,0.00,0.00,-10.44,-0.53,0.00,-36.00,-3.08,36.23,-72.08,0.00,30.99,-22.17,-152.21,1100,1500,1500,1100,1337,1500,1511,10650,893
117032,1,-35.84,36.84,6.56,-0.581,-2.745,0.523,-3.99,-9.36,0.00,0.00,3.99,9.36,0.00,14.49,31.54,50.33,-5.31,0.00,13.23,6.82,-242.74,1100,1500,1500,1100,1337,1500,1511,10658,893
117045,1,40.05,47.33,-1.66,-0.306,-0.382,0.877,-0.37,-13.11,0.00,3.51,0.37,16.62,0.00,1.84,56.96,-38.21,9.63,0.00,-24.61,0.84,-49.80,1301,1249,1309,1381,1310,1500,1539,10683,934
117057,1,4.58,-18.05,-10.21,1.475,-1.673,-0.371,-13.76,-4.13,0.00,3.51,13.76,7.64,0.00,48.68,25.57,44.11,43.62,0.00,-2.31,29.08,28.24,1301,1249,1309,1381,1310,1500,1539,10704,934
117069,1,-9.91,35.76,-8.39,0.343,-1.240,0.893,-13.42,15.92,0.00,0.00,13.42,-15.92,0.00,47.52,-56.92,57.43,-92.68,0.00,5.80,-10.80,-23.63,1301,1249,1309,1381,1341,1500,1508,10696,934
117081,1,-31.27,113.39,-21.71,-2.602,0.304,3.779,-8.48,5.14,0.00,0.00,8.48,-5.14,0.00,30.24,-19.19,61.51,-132.58,0.00,15.21,-38.66,225.12,1301,1249,1309,1381,1340,1500,1509,10704,934
117092,1,-48.79,75.38,-22.89,-4.209,0.527,3.038,-0.37,-18.04,0.00,0.00,0.37,18.04,0.00,1.86,61.95,50.66,-13.43,0.00,21.07,-7.44,211.12,1301,1249,1309,1381,1340,1500,1509,10704,934
117105,1,-78.65,21.58,-27.61,-2.670,0.681,2.109,2.52,-31.04,0.00,0.00,-2.52,31.04,0.00,-8.26,107.47,70.39,85.89,0.00,34.07,20.20,294.09,1301,1249,1309,1381,1338,1500,1511,10704,934
117116,1,-73.23,-12.21,-36.96,0.259,0.514,0.975,4.41,-4.06,0.00,0.00,-4.41,4.06,0.00,-14.87,13.06,58.36,25.27,0.00,32.36,19.36,350.00,1301,1249,1309,1381,1338,1500,1511,10679,934
117129,1,-72.85,16.92,-30.29,0.950,0.526,1.156,4.17,12.20,0.00,0.00,-4.17,-12.20,0.00,-14.01,-43.87,58.83,-60.79,0.00,32.20,2.26,236.35,1301,1249,1309,1381,1338,1500,1511,10646,934
117141,1,-96.83,11.94,-24.31,0.753,-0.702,0.351,-11.76,21.73,0.00,0.00,11.76,-21.73,0.00,41.73,-77.26,138.56,-89.21,0.00,44.25,-0.41,136.83,1158,1430,1500,1246,1338,1500,1511,10633,931
117152,1,-86.16,-30.93,-10.90,-0.716,-1.342,1.423,-21.88,14.82,0.00,0.00,21.88,-14.82,0.00,77.21,-53.10,163.37,-22.17,0.00,36.01,15.36,-129.82,1158,1430,1500,1246,1338,1500,1511,10633,931
117165,1,-88.62,-37.59,-8.50,0.396,-1.231,-0.399,-28.26,14.13,0.00,2.25,28.26,-11.88,0.00,99.56,-42.82,188.18,-5.23,0.00,34.24,25.03,-135.30,1158,1430,1500,1246,1324,1500,1525,10638,931
117176,1,-70.92,-19.20,-4.94,-0.387,-1.218,0.106,-24.26,3.30,0.00,2.25,24.26,-1.05,0.00,85.58,-4.91,156.50,14.30,0.00,22.44,19.52,-197.30,1158,1430,1500,1246,1324,1500,1525,10629,931
117189,1,-51.86,9.87,-14.13,1.313,-0.508,0.676,-24.85,17.57,0.00,0.00,24.85,-17.57,0.00,87.67,-62.76,139.53,-72.63,0.00,11.37,0.16,19.18,1158,1430,1500,1246,1337,1500,1511,10588,931
117201,1,-53.65,59.39,-13.04,-0.909,0.679,1.557,-34.98,22.99,0.00,0.00,34.98,-22.99,0.00,123.16,-81.74,176.81,-141.13,0.00,14.22,-27.80,-14.89,1158,1430,1500,1246,1339,1500,1510,10600,931
117212,1,-44.60,55.40,-16.21,-1.150,0.884,1.221,-8.70,-0.49,0.00,0.00,8.70,0.49,0.00,31.20,0.40,75.80,-55.00,0.00,8.45,-13.03,30.70,1158,1430,1500,1246,1339,1500,1510,10600,931
117225,1,-29.78,18.36,-19.82,1.435,1.425,-0.122,15.34,10.99,0.00,0.00,-15.34,-10.99,0.00,-52.95,-39.75,-23.17,-58.11,0.00,-1.46,5.01,70.15,1158,1430,1500,1246,1338,1500,1511,10617,931
117236,1,-48.39,68.86,-21.75,-0.769,2.231,2.460,-24.80,21.49,0.00,0.00,24.80,-21.49,0.00,87.58,-76.53,135.98,-145.40,0.00,12.09,-34.04,110.14,1158,1430,1500,1246,1338,1500,1511,10633,931
