time_ms,flags,gyro_x,gyro_y,gyro_z,accel_x,accel_y,accel_z,roll,pitch,angle_sp_roll,angle_sp_pitch,angle_err_roll,angle_err_pitch,angle_i_roll,rate_sp_roll,rate_sp_pitch,rate_err_roll,rate_err_pitch,rate_i_roll,pid_roll,pid_pitch,pid_yaw,m1,m2,m3,m4,rc_thr,rc_roll,rc_pitch,battery_mv,loop_us
167269,9,0.02,-0.03,-0.06,-0.001,-0.069,0.995,-4.11,2.32,0.00,0.00,4.11,-2.32,0.00,14.40,-8.12,14.39,-8.09,0.00,0.57,-0.30,0.69,1000,1000,1000,1000,1033,1502,1505,11154,815
167281,9,0.02,0.08,-0.00,0.004,-0.066,0.994,-4.08,2.31,0.00,0.00,4.08,-2.31,0.00,14.29,-8.07,14.27,-8.16,0.00,0.57,-0.36,-0.47,1000,1000,1000,1000,1032,1502,1506,11154,815
167292,9,0.02,0.02,-0.00,0.001,-0.068,0.996,-4.09,2.32,0.00,0.00,4.09,-2.32,0.00,14.31,-8.13,14.29,-8.16,0.00,0.57,-0.34,-0.66,1000,1000,1000,1000,1032,1502,1506,11154,815
167305,9,-0.04,0.02,-0.06,0.004,-0.074,1.000,-4.18,2.33,0.00,0.00,4.18,-2.33,0.00,14.62,-8.17,14.66,-8.18,0.00,0.60,-0.34,0.54,1000,1000,1000,1000,1032,1502,1506,11154,815
167317,9,0.01,-0.03,-0.06,0.005,-0.065,0.995,-4.12,2.40,0.00,0.00,4.12,-2.40,0.00,14.42,-8.39,14.40,-8.35,0.00,0.56,-0.32,0.50,1000,1000,1000,1000,1032,1500,1506,11154,815
167329,9,0.02,0.08,-0.06,0.004,-0.068,1.000,-4.05,2.42,0.00,3.15,4.05,0.73,0.00,14.18,2.57,14.16,2.49,0.00,0.56,0.07,0.39,1000,1000,1000,1000,1005,1500,1535,11154,815
167341,9,-0.10,0.08,-0.06,0.002,-0.070,0.992,-4.11,2.39,0.00,0.00,4.11,-2.39,0.00,14.38,-8.35,14.48,-8.44,0.00,0.62,-0.36,0.30,1100,1100,1100,1100,1032,1502,1506,11154,815
167352,9,-0.04,0.15,-0.00,-0.000,-0.068,1.001,-4.08,2.31,0.00,0.00,4.08,-2.31,0.00,14.27,-8.08,14.31,-8.22,0.00,0.57,-0.37,-0.82,1100,1100,1100,1100,1032,1502,1506,11154,815
167365,9,-0.04,0.03,-0.12,0.002,-0.070,1.004,-4.12,2.31,0.00,0.00,4.12,-2.31,0.00,14.44,-8.09,14.48,-8.12,0.00,0.58,-0.31,1.16,1100,1100,1100,1100,1032,1502,1506,11154,815
167377,9,0.02,0.09,0.06,-0.003,-0.067,1.002,-4.05,2.19,0.00,0.00,4.05,-2.19,0.00,14.16,-7.67,14.15,-7.76,0.00,0.54,-0.31,-2.06,1100,1100,1100,1100,1032,1502,1506,11154,815
167389,9,0.02,0.20,0.00,-0.001,-0.069,1.000,-4.10,2.13,0.00,0.00,4.10,-2.13,0.00,14.36,-7.47,14.34,-7.67,0.00,0.55,-0.36,0.05,1100,1100,1100,1100,1032,1502,1506,11150,815
167401,9,0.08,0.02,0.00,0.002,-0.066,1.000,-4.09,2.27,0.00,0.00,4.09,-2.27,0.00,14.32,-7.95,14.24,-7.98,0.00,0.52,-0.31,-0.08,1100,1100,1100,1100,1032,1502,1506,11145,815
167412,9,-0.03,0.14,0.12,0.001,-0.072,1.000,-4.14,2.32,0.00,0.00,4.14,-2.32,0.00,14.49,-8.12,14.53,-8.26,0.00,0.60,-0.38,-1.93,1100,1100,1100,1100,1032,1502,1506,11141,815
167425,9,-0.04,0.14,0.00,0.002,-0.068,0.997,-4.12,2.29,0.00,0.00,4.12,-2.29,0.00,14.43,-8.03,14.47,-8.17,0.00,0.59,-0.37,0.65,1100,1100,1100,1100,1031,1502,1507,11145,815
167437,9,-0.04,-0.15,-0.18,0.003,-0.070,1.002,-4.19,2.35,0.00,0.00,4.19,-2.35,0.00,14.66,-8.21,14.70,-8.06,0.00,0.59,-0.24,2.95,1100,1100,1100,1100,1031,1502,1507,11145,815
167449,9,0.02,-0.09,0.18,0.010,-0.069,0.990,-4.14,2.44,0.00,0.00,4.14,-2.44,0.00,14.49,-8.53,14.47,-8.43,0.00,0.56,-0.30,-3.87,1100,1100,1100,1100,1032,1502,1506,11137,815
167461,9,0.43,0.20,-0.06,0.004,-0.066,0.998,-4.16,2.44,0.00,0.00,4.16,-2.44,0.00,14.56,-8.53,14.13,-8.73,0.00,0.40,-0.43,1.56,1100,1100,1100,1100,1032,1502,1506,11137,815
167472,9,0.08,-0.09,-0.01,-0.004,-0.062,0.999,-4.10,2.55,0.00,0.00,4.10,-2.55,0.00,14.35,-8.94,14.26,-8.84,0.00,0.53,-0.34,-0.78,1100,1100,1100,1100,1032,1502,1506,11133,815
167485,9,0.30,-0.19,-0.06,0.017,-0.041,0.992,-3.90,2.67,0.00,0.00,3.90,-2.67,0.00,13.65,-9.35,13.35,-9.16,0.00,0.39,-0.26,-0.58,1100,1100,1100,1100,1032,1502,1506,11133,815
167497,9,-1.44,-0.83,0.02,0.033,-0.029,0.962,-3.71,3.04,0.00,0.00,3.71,-3.04,0.00,12.98,-10.63,14.42,-9.80,0.00,1.22,0.02,-0.30,1100,1100,1100,1100,1032,1501,1506,11125,815
167509,9,0.36,1.09,0.07,-0.006,-0.095,1.010,-4.32,2.30,0.00,0.00,4.32,-2.30,0.00,15.12,-8.04,14.76,-9.13,0.00,0.45,-0.75,-0.24,1100,1100,1100,1100,1033,1501,1507,11112,815
167521,9,1.30,1.79,0.27,-0.038,-0.076,1.031,-3.86,1.64,0.00,0.00,3.86,-1.64,0.00,13.49,-5.74,12.19,-7.53,0.00,-0.08,-1.08,-6.91,1100,1100,1100,1100,1034,1501,1506,11120,815
167532,9,-0.90,0.14,0.23,-0.005,-0.026,0.989,-3.59,2.08,0.00,0.00,3.59,-2.08,0.00,12.58,-7.29,13.48,-7.44,0.00,0.90,-0.31,-4.81,1100,1100,1100,1100,1034,1501,1506,11104,815
167545,9,-0.61,0.37,-0.18,-0.004,-0.030,0.983,-2.70,1.95,0.00,0.00,2.70,-1.95,0.00,9.46,-6.82,10.07,-7.20,0.00,0.70,-0.23,3.41,1100,1100,1100,1100,1033,1501,1507,11091,815
167557,9,0.44,-1.27,-0.42,0.055,-0.050,0.950,-3.33,3.20,0.00,0.00,3.33,-3.20,0.00,11.67,-11.20,11.22,-9.93,0.00,0.32,0.20,6.29,1100,1100,1100,1100,1033,1501,1507,11075,815
167569,9,0.14,-1.06,0.30,-0.040,-0.067,0.965,-3.44,2.85,0.00,3.33,3.44,0.48,0.00,12.03,1.68,11.90,2.74,0.00,0.44,0.47,-7.52,1100,1100,1100,1100,1003,1501,1537,11066,815
167581,9,-0.53,0.29,0.02,-0.055,-0.124,1.021,-4.52,3.31,0.00,2.07,4.52,-1.24,0.00,15.80,-4.35,16.33,-4.64,0.00,0.86,-0.72,0.64,1100,1100,1100,1100,1017,1501,1523,11050,815
167592,9,-0.22,0.09,-0.16,0.004,-0.072,0.998,-4.03,1.88,0.00,2.07,4.03,0.19,0.00,14.10,0.68,14.32,0.59,0.00,0.68,0.16,3.61,1100,1100,1100,1100,1017,1501,1523,11062,815
167605,9,-0.61,1.46,-0.05,-0.066,-0.131,1.004,-4.69,0.76,0.00,0.00,4.69,-0.76,0.00,16.42,-2.67,17.03,-4.12,0.00,0.94,-0.36,1.11,1100,1100,1100,1100,1033,1501,1507,11037,815
167617,9,0.49,3.01,0.42,-0.081,-0.144,1.060,-5.31,-0.57,0.00,0.00,5.31,0.57,0.00,18.58,1.98,18.09,-1.03,0.00,0.43,-0.83,-7.02,1100,1100,1100,1100,1033,1501,1507,11037,815
167629,9,-0.74,3.44,-0.09,-0.217,-0.139,1.102,-4.35,-2.68,0.00,0.00,4.35,2.68,0.00,15.22,9.39,15.96,5.94,0.00,0.96,-0.54,0.52,1100,1100,1100,1100,1033,1501,1507,11008,815
167641,9,1.40,1.61,0.88,-0.145,-0.041,1.143,-2.70,-3.04,0.00,1.89,2.70,4.93,0.00,9.45,17.26,8.05,15.65,0.00,-0.31,0.77,-22.17,1100,1100,1100,1100,1018,1501,1521,11016,816
167652,9,1.45,-0.29,0.90,0.069,-0.058,0.954,-3.08,0.61,0.00,1.89,3.08,1.28,0.00,10.78,4.48,9.33,4.77,0.00,-0.23,0.75,-15.27,1100,1100,1100,1100,1018,1501,1521,11029,816
167665,9,0.17,2.11,0.96,0.122,-0.085,0.989,-4.29,4.30,0.00,0.00,4.29,-4.30,0.00,15.01,-15.03,14.83,-17.14,0.00,0.56,-1.22,-12.34,1100,1100,1100,1100,1033,1501,1506,11029,816
167677,9,-1.15,2.14,-0.60,-0.003,-0.105,0.993,-5.50,3.91,0.00,0.00,5.50,-3.91,0.00,19.24,-13.68,20.39,-15.83,0.00,1.29,-0.94,14.54,1100,1100,1100,1100,1033,1501,1506,11037,816
167689,9,-0.60,-2.66,-1.37,0.086,0.002,0.895,-4.44,4.25,0.00,0.00,4.44,-4.25,0.00,15.55,-14.87,16.15,-12.21,0.00,0.86,0.72,17.08,1100,1100,1100,1100,1032,1501,1507,11033,816
167701,9,0.50,0.64,2.18,0.058,-0.113,0.946,-4.63,4.81,0.00,0.00,4.63,-4.81,0.00,16.21,-16.83,15.71,-17.47,0.00,0.38,-1.32,-45.56,1100,1100,1100,1100,1033,1501,1507,11029,816
167712,9,-0.52,-0.52,1.71,0.134,-0.074,0.970,-5.29,6.77,0.00,0.00,5.29,-6.77,0.00,18.52,-23.70,19.04,-23.18,0.00,0.93,-1.03,-13.70,1100,1100,1100,1100,1033,1501,1507,11041,816
167725,9,-0.80,1.93,-4.49,-0.085,-0.017,1.091,-4.49,3.17,0.00,0.00,4.49,-3.17,0.00,15.71,-11.08,16.51,-13.01,0.00,1.02,-1.41,85.46,1100,1100,1100,1100,1033,1501,1507,11041,816
167737,9,-1.04,2.69,0.90,-0.027,-0.183,0.922,-4.90,1.24,0.00,0.00,4.90,-1.24,0.00,17.14,-4.36,18.18,-7.05,0.00,1.20,-1.11,-38.42,1100,1100,1100,1100,1033,1501,1507,11050,816
167749,9,-0.09,0.21,4.36,-0.002,-0.111,1.041,-4.65,3.28,0.00,2.52,4.65,-0.76,0.00,16.27,-2.67,16.36,-2.88,0.00,0.63,-0.04,-66.17,1100,1100,1100,1100,1012,1501,1528,11041,847
167761,9,-1.32,4.03,-4.18,-0.171,-0.009,1.143,-3.48,1.14,0.00,0.00,3.48,-1.14,0.00,12.18,-3.99,13.51,-8.03,0.00,0.97,-2.18,92.49,1100,1100,1100,1100,1031,1501,1508,11045,847
167772,9,-0.69,1.07,0.24,-0.031,-0.014,0.888,-3.04,0.48,0.00,0.00,3.04,-0.48,0.00,10.63,-1.68,11.33,-2.75,0.00,0.85,-0.32,-22.95,1100,1100,1100,1100,1031,1501,1508,11054,847
167785,9,0.21,-4.57,1.17,0.058,-0.113,1.110,-4.44,4.97,0.00,0.00,4.44,-4.97,0.00,15.52,-17.41,15.31,-12.84,0.00,0.60,0.92,-17.99,1100,1100,1100,1100,1031,1501,1508,11050,847
167797,9,1.68,3.39,-0.86,0.022,-0.199,0.881,-5.65,2.38,0.00,0.00,5.65,-2.38,0.00,19.78,-8.32,18.10,-11.71,0.00,-0.16,-2.10,16.19,1100,1100,1100,1100,1031,1500,1508,11037,847
167809,9,-0.49,-0.63,0.11,0.034,0.040,1.013,-3.61,3.83,0.00,3.60,3.61,-0.23,0.00,12.63,-0.80,13.12,-0.17,0.00,0.63,0.32,0.35,1100,1100,1100,1100,1000,1500,1540,11041,847
167821,9,-3.17,2.18,-1.24,-0.100,-0.051,1.050,-3.27,1.96,0.00,0.00,3.27,-1.96,0.00,11.45,-6.85,14.63,-9.03,0.00,1.88,-1.30,17.31,1100,1100,1100,1100,1033,1500,1508,11041,847
167833,9,0.99,-5.69,1.99,0.199,-0.183,0.860,-6.37,6.17,0.00,0.00,6.37,-6.17,0.00,22.29,-21.59,21.30,-15.90,0.00,0.47,1.67,-36.29,1100,1100,1100,1100,1033,1500,1508,11045,847
167845,9,2.07,2.87,-1.44,-0.122,-0.021,1.116,-4.38,5.33,0.00,2.97,4.38,-2.36,0.00,15.32,-8.26,13.25,-11.13,0.00,-0.52,-2.57,28.17,1100,1100,1100,1100,1008,1500,1533,11050,839
167857,9,-1.41,-4.77,0.53,0.228,-0.042,0.819,-5.76,7.62,0.00,2.97,5.76,-4.65,0.00,20.15,-16.27,21.56,-11.50,0.00,1.53,1.52,-13.47,1100,1100,1100,1100,1008,1500,1533,11050,839
167869,9,0.50,2.90,-1.10,-0.141,-0.187,0.999,-5.31,5.99,0.00,3.24,5.31,-2.75,0.00,18.58,-9.62,18.08,-12.52,0.00,0.41,-2.38,21.31,1100,1100,1100,1100,1005,1500,1536,11054,839
167881,9,1.68,-3.42,1.63,-0.025,-0.003,1.118,-5.45,3.45,0.00,0.00,5.45,-3.45,0.00,19.08,-12.08,17.40,-8.66,0.00,0.13,0.96,-29.96,1100,1100,1100,1100,1033,1500,1508,11054,839
167892,9,-0.76,5.14,-1.40,-0.129,-0.211,1.050,-4.51,1.00,0.00,0.00,4.51,-1.00,0.00,15.80,-3.48,16.56,-8.63,0.00,0.83,-2.65,25.63,1100,1100,1100,1100,1033,1500,1508,11050,839
167905,9,-0.10,-1.37,1.28,0.042,0.079,1.080,-4.76,0.86,0.00,0.00,4.76,-0.86,0.00,16.66,-3.01,16.76,-1.64,0.00,0.86,0.51,-24.13,1100,1100,1100,1100,1030,1500,1511,11045,839
167917,9,4.06,3.95,0.29,-0.083,-0.023,1.082,-3.46,1.70,0.00,0.00,3.46,-1.70,0.00,12.13,-5.95,8.06,-9.89,0.00,-1.69,-2.21,-6.81,1100,1100,1100,1100,1030,1504,1511,11058,839
167929,9,-1.52,-7.24,1.12,0.107,-0.012,0.945,-4.92,2.68,0.00,2.79,4.92,0.11,0.00,17.23,0.40,18.74,7.64,0.00,1.69,3.38,-16.65,1100,1100,1100,1100,1006,1504,1531,11062,839
167941,9,3.26,3.73,-1.37,-0.007,0.144,1.022,-3.03,0.60,0.00,0.00,3.03,-0.60,0.00,10.60,-2.08,7.34,-5.82,0.00,-1.41,-1.49,22.54,1100,1100,1100,1100,1032,1508,1501,11066,847
167952,9,-2.29,-5.55,0.99,0.205,0.090,0.870,-3.69,4.18,0.00,0.00,3.69,-4.18,0.00,12.92,-14.62,15.20,-9.07,0.00,1.84,2.06,-18.76,1100,1100,1100,1100,1032,1508,1501,11054,847
167965,9,2.06,4.86,0.66,-0.060,0.126,0.910,-3.24,0.88,0.00,0.00,3.24,-0.88,0.00,11.35,-3.08,9.29,-7.95,0.00,-0.75,-2.15,-15.28,1100,1100,1100,1100,1030,1500,1511,11050,847
167977,9,-2.36,-4.45,0.54,0.325,0.076,0.742,-2.43,5.57,0.00,0.00,2.43,-5.57,0.00,8.50,-19.51,10.86,-15.06,0.00,1.75,1.26,-2.44,1100,1100,1100,1100,1030,1500,1511,11050,847
167989,9,3.77,-0.97,1.94,0.013,-0.252,0.979,-6.52,5.48,0.00,0.00,6.52,-5.48,0.00,22.81,-19.17,19.04,-18.20,0.00,-0.99,-0.49,-43.12,1100,1100,1100,1100,1030,1500,1511,11050,847
168001,9,-6.38,7.37,-3.15,-0.095,-0.014,1.091,-3.56,3.41,0.00,0.00,3.56,-3.41,0.00,12.46,-11.93,18.84,-19.30,0.00,3.50,-4.32,59.95,1100,1100,1100,1100,1030,1500,1511,11041,847
168012,9,5.37,-2.61,3.45,0.009,-0.166,1.042,-4.57,0.59,0.00,0.00,4.57,-0.59,0.00,15.99,-2.07,10.62,0.54,0.00,-1.77,2.23,-74.93,1100,1100,1100,1100,1030,1500,1511,11037,847
168025,9,-3.29,7.23,-0.69,-0.267,0.001,1.179,-2.44,-1.60,0.00,0.00,2.44,1.60,0.00,8.53,5.60,11.82,-1.63,0.00,1.75,-2.77,18.96,1100,1100,1100,1100,1030,1501,1510,11041,847
168037,9,3.94,-6.04,1.63,0.095,-0.176,0.971,-7.69,2.83,0.00,0.00,7.69,-2.83,0.00,26.90,-9.90,22.97,-3.87,0.00,-0.68,2.23,-21.99,1100,1100,1100,1100,1030,1512,1510,11045,847
168049,9,-0.77,1.95,-1.64,0.038,-0.134,1.046,-3.95,4.47,0.00,0.00,3.95,-4.47,0.00,13.83,-15.64,14.60,-17.59,0.00,0.62,-2.06,25.37,1100,1100,1100,1100,1023,1512,1506,11045,853
168061,9,0.38,-9.81,0.96,0.158,0.130,0.785,-2.36,7.41,0.00,0.00,2.36,-7.41,0.00,8.27,-25.95,7.89,-16.14,0.00,0.51,3.06,-15.22,1100,1100,1100,1100,1030,1501,1510,11045,853
168072,9,-0.80,-0.14,-0.66,0.167,-0.190,0.838,-5.95,6.90,0.00,0.00,5.95,-6.90,0.00,20.83,-24.15,21.63,-24.01,0.00,1.03,-1.51,10.72,1100,1100,1100,1100,1030,1501,1510,11050,853
168085,9,-8.53,2.01,-1.03,0.038,-0.023,1.092,-5.21,6.16,0.00,0.00,5.21,-6.16,0.00,18.24,-21.56,26.77,-23.57,0.00,4.78,-3.11,27.72,1100,1100,1100,1100,1031,1500,1510,11041,853
168097,9,5.75,4.05,2.87,0.025,0.041,0.872,-3.22,3.98,0.00,0.00,3.22,-3.98,0.00,11.27,-13.92,5.52,-17.97,0.00,-2.27,-2.23,-65.05,1100,1100,1100,1100,1031,1500,1510,11054,853
168109,9,-1.64,2.77,-3.17,-0.184,-0.260,1.113,-3.87,5.21,0.00,0.00,3.87,-5.21,0.00,13.53,-18.22,15.17,-20.99,0.00,1.23,-2.38,60.04,1100,1100,1100,1100,1030,1500,1510,11050,853
168121,9,-3.96,-3.29,2.56,0.172,-0.100,0.827,-5.22,12.79,0.00,0.00,5.22,-12.79,0.00,18.29,-44.76,22.25,-41.47,0.00,2.83,-1.41,-51.92,1100,1100,1100,1100,1028,1500,1513,11050,853
168132,9,7.60,-1.54,-0.43,-0.178,0.268,1.111,-2.56,5.27,0.00,0.00,2.56,-5.27,0.00,8.96,-18.45,1.37,-16.92,0.00,-3.50,-0.49,7.67,1100,1100,1100,1100,1028,1500,1513,11050,853
168145,9,2.05,0.42,0.93,-0.058,-0.137,1.250,-4.08,1.76,0.00,0.00,4.08,-1.76,0.00,14.28,-6.17,12.23,-6.60,0.00,-0.39,0.24,-8.78,1100,1100,1100,1100,1025,1503,1513,11050,881
168157,9,2.17,-7.60,-1.11,0.239,-0.372,0.864,-6.93,3.40,0.00,0.00,6.93,-3.40,0.00,24.25,-11.89,22.09,-4.29,0.00,0.05,3.53,14.99,1100,1100,1100,1100,1025,1500,1513,11054,881
168169,9,-7.52,-1.17,-0.66,0.242,-0.175,0.860,-5.60,10.53,0.00,3.69,5.60,-6.84,0.00,19.60,-23.94,27.12,-22.77,0.00,4.37,-0.96,16.13,1100,1100,1100,1100,1000,1500,1541,11041,881
168181,9,4.71,7.90,2.85,-0.147,0.203,0.945,-2.98,4.46,0.00,0.00,2.98,-4.46,0.00,10.42,-15.60,5.71,-23.50,0.00,-2.14,-4.04,-56.27,1100,1100,1100,1100,1031,1500,1510,11037,881
168192,9,2.87,1.86,-1.40,-0.440,-0.240,1.404,-4.58,-0.05,0.00,0.00,4.58,0.05,0.00,16.03,0.18,13.16,-1.67,0.00,-1.01,-0.20,30.00,1100,1100,1100,1100,1031,1500,1510,11029,881
168205,9,-6.78,9.84,3.90,-0.425,-0.265,1.204,-2.67,-3.42,0.00,0.00,2.67,3.42,0.00,9.35,11.98,16.12,2.14,0.00,3.96,-3.40,-73.30,1100,1100,1100,1100,1031,1500,1510,11045,881
168217,9,-9.45,11.96,-1.87,0.028,0.039,1.167,-2.47,-2.67,0.00,0.00,2.47,2.67,0.00,8.64,9.34,18.10,-2.62,0.00,4.93,-3.71,35.25,1100,1100,1100,1100,1031,1500,1510,11050,881
168229,9,-5.38,12.46,-2.42,0.060,0.086,1.121,0.37,3.98,0.00,0.00,-0.37,-3.98,0.00,-1.29,-13.94,4.09,-26.41,0.00,2.39,-5.81,52.42,1100,1100,1100,1100,1031,1500,1510,11041,881
168241,9,1.03,-4.12,0.56,0.331,0.311,0.630,5.52,7.16,0.00,2.52,-5.52,-4.64,0.00,-19.32,-16.24,-20.34,-12.13,0.00,-0.98,2.36,-16.58,1100,1100,1100,1100,1013,1500,1528,11037,985
168252,9,6.47,-0.62,-0.85,0.249,-0.265,1.112,-2.94,5.41,0.00,2.52,2.94,-2.89,0.00,10.31,-10.11,3.84,-9.49,0.00,-2.56,0.31,15.03,1100,1100,1100,1100,1013,1500,1528,11029,985
168265,9,0.98,-4.65,2.31,-0.114,0.054,0.893,-3.78,11.51,0.00,0.00,3.78,-11.51,0.00,13.23,-40.29,12.25,-35.63,0.00,-0.03,-0.64,-49.84,1100,1100,1100,1100,1028,1501,1512,11029,985
168277,9,0.57,-5.69,-2.56,0.207,-0.064,0.920,-5.28,9.14,0.00,0.00,5.28,-9.14,0.00,18.48,-32.00,17.91,-26.31,0.00,0.76,1.20,44.55,1100,1100,1100,1100,1028,1501,1512,11025,985
168289,9,-8.46,4.72,0.30,-0.017,-0.028,1.023,-1.87,2.72,0.00,0.00,1.87,-2.72,0.00,6.53,-9.54,14.99,-14.25,0.00,4.01,-2.41,-1.10,1100,1100,1100,1100,1033,1501,1507,11029,985
168301,9,-0.83,-2.54,-0.58,0.223,0.371,0.700,3.37,5.89,0.00,0.00,-3.37,-5.89,0.00,-11.81,-20.61,-10.98,-18.07,0.00,-0.04,0.58,3.20,1100,1100,1100,1100,1031,1501,1509,11029,985
168312,9,12.69,-2.17,-1.33,0.018,-0.448,1.084,-3.53,9.18,0.00,0.00,3.53,-9.18,0.00,12.36,-32.12,-0.32,-29.95,0.00,-5.70,-0.67,27.88,1100,1100,1100,1100,1031,1501,1509,11033,985
168325,9,-9.59,5.24,0.28,-0.268,-0.478,0.980,-2.49,8.33,0.00,0.00,2.49,-8.33,0.00,8.71,-29.14,18.30,-34.38,0.00,5.16,-4.39,-14.85,1100,1100,1100,1100,1028,1501,1512,11033,985
168337,9,-5.52,0.62,-2.73,0.341,0.145,0.962,-2.15,9.23,0.00,0.00,2.15,-9.23,0.00,7.53,-32.30,13.04,-32.92,0.00,3.17,-1.75,45.06,1100,1100,1100,1100,1028,1501,1512,11033,985
168349,9,-4.52,8.53,1.95,0.172,0.249,0.757,1.33,9.77,0.00,0.00,-1.33,-9.77,0.00,-4.65,-34.20,-0.13,-42.73,0.00,1.55,-6.36,-38.45,1100,1100,1100,1100,1024,1501,1516,11045,920
168361,9,3.38,-11.51,-0.04,0.478,0.241,0.759,1.57,13.01,0.00,0.00,-1.57,-13.01,0.00,-5.51,-45.54,-8.90,-34.02,0.00,-1.35,3.30,-4.68,1100,1100,1100,1100,1028,1501,1512,11050,920
168373,9,4.63,6.83,-1.30,-0.146,-0.535,1.184,-4.60,5.83,0.00,0.00,4.60,-5.83,0.00,16.08,-20.41,11.46,-27.23,0.00,-1.59,-4.15,30.73,1100,1100,1100,1100,1028,1501,1512,11041,920
168385,9,-11.34,4.42,2.49,-0.096,0.018,0.851,0.86,10.80,0.00,0.00,-0.86,-10.80,0.00,-3.00,-37.82,8.35,-42.24,0.00,5.32,-4.54,-53.17,1100,1100,1100,1100,1028,1501,1512,11041,920
168397,9,3.77,-3.40,-3.32,0.190,-0.049,1.015,-2.65,4.77,0.00,0.00,2.65,-4.77,0.00,9.27,-16.69,5.50,-13.29,0.00,-1.33,2.09,64.02,1100,1100,1100,1100,1028,1500,1512,11041,920
168409,9,-3.62,4.33,0.15,-0.010,0.078,1.007,1.83,5.59,0.00,0.00,-1.83,-5.59,0.00,-6.40,-19.57,-2.78,-23.90,0.00,1.23,-2.69,-5.18,1100,1100,1100,1100,1031,1500,1509,11050,920
168421,9,6.23,-16.29,0.71,0.428,0.345,0.707,1.94,10.76,0.00,0.00,-1.94,-10.76,0.00,-6.80,-37.67,-13.02,-21.38,0.00,-2.62,6.29,-22.03,1100,1100,1100,1100,1032,1500,1509,11050,920
168433,9,12.46,-3.06,2.44,-0.164,-0.588,1.192,-4.73,4.70,0.00,0.00,4.73,-4.70,0.00,16.57,-16.43,4.11,-13.37,0.00,-6.32,1.39,-48.27,1100,1100,1100,1100,1032,1500,1509,11045,920
168445,9,-6.45,-1.62,1.95,-0.281,-0.400,1.198,-3.60,5.56,0.00,0.00,3.60,-5.56,0.00,12.61,-19.47,19.06,-17.85,0.00,4.31,-1.30,-31.79,1100,1100,1100,1100,1029,1500,1512,11037,814
168457,9,7.42,-4.16,-4.88,0.165,-0.065,0.977,-3.61,12.00,0.00,0.00,3.61,-12.00,0.00,12.63,-41.99,5.21,-37.83,0.00,-2.24,-0.46,99.24,1100,1100,1100,1100,1029,1500,1512,11033,814
168469,9,-9.56,0.67,-0.52,0.175,0.319,0.676,4.16,12.41,0.00,1.89,-4.16,-10.52,0.00,-14.57,-36.82,-5.01,-37.50,0.00,3.57,-2.31,3.78,1100,1100,1100,1100,1020,1500,1521,11029,814
168481,9,2.58,-17.50,2.11,0.547,0.023,0.764,-0.91,12.99,0.00,0.00,0.91,-12.99,0.00,3.17,-45.45,0.59,-27.95,0.00,-0.36,5.65,-41.40,1100,1100,1100,1100,1029,1500,1512,11041,814
168492,9,10.04,0.56,1.68,-0.013,-0.342,0.914,-4.31,9.56,0.00,0.00,4.31,-9.56,0.00,15.10,-33.46,5.06,-34.03,0.00,-4.69,-2.51,-36.73,1100,1100,1100,1100,1029,1500,1512,11050,814
168505,9,-5.68,0.86,0.44,-0.430,0.094,1.163,-1.52,7.78,0.00,0.00,1.52,-7.78,0.00,5.33,-27.24,11.01,-28.10,0.00,3.27,-2.67,-8.08,1100,1100,1100,1100,1029,1500,1512,11041,814
168517,9,7.51,7.84,-1.81,-0.353,-0.365,1.584,-5.35,0.49,0.00,0.00,5.35,-0.49,0.00,18.71,-1.72,11.21,-9.56,0.00,-2.42,-3.32,35.35,1100,1100,1100,1100,1029,1500,1512,11045,814
168529,9,-20.80,16.30,-4.26,0.087,-0.182,0.932,-1.14,3.48,0.00,0.00,1.14,-3.48,0.00,4.00,-12.17,24.80,-28.47,0.00,9.46,-7.37,88.49,1100,1100,1100,1100,1031,1500,1510,11045,814
168541,9,1.43,-12.12,0.94,0.574,0.002,0.715,-2.55,8.18,0.00,0.00,2.55,-8.18,0.00,8.92,-28.63,7.49,-16.52,0.00,0.18,5.87,-21.41,1100,1100,1100,1100,1031,1500,1509,11045,820
168553,9,12.39,-1.98,1.01,-0.157,0.044,0.795,-3.19,0.73,0.00,0.00,3.19,-0.73,0.00,11.16,-2.55,-1.23,-0.56,0.00,-5.72,2.06,-25.96,1100,1100,1100,1100,1031,1500,1509,11041,820
168565,9,-4.20,-7.78,1.06,-0.176,0.253,1.076,-0.25,5.13,0.00,2.52,0.25,-2.61,0.00,0.88,-9.13,5.08,-1.34,0.00,2.15,3.53,-16.88,1100,1100,1100,1100,1012,1500,1528,11037,820
168577,9,11.61,-6.36,1.25,-0.087,-0.250,1.194,-5.05,1.93,0.00,2.52,5.05,0.59,0.00,17.69,2.07,6.07,8.44,0.00,-4.15,3.13,-21.83,1100,1100,1100,1100,1012,1501,1528,11041,820
168589,9,-11.13,11.55,-2.71,-0.068,-0.373,0.947,-4.29,2.50,0.00,1.89,4.29,-0.61,0.00,15.02,-2.14,26.14,-13.69,0.00,5.62,-5.95,55.12,1100,1100,1100,1100,1018,1501,1521,11037,820
168601,9,-8.74,-6.25,-1.68,0.331,0.002,0.835,-3.49,6.45,0.00,0.00,3.49,-6.45,0.00,12.20,-22.59,20.94,-16.34,0.00,5.16,0.98,29.78,1100,1100,1100,1100,1032,1501,1508,11045,820
168612,9,7.89,-0.31,-0.55,0.106,0.274,0.708,1.05,4.99,0.00,0.00,-1.05,-4.99,0.00,-3.68,-17.45,-11.57,-17.14,0.00,-4.33,-1.39,0.23,1100,1100,1100,1100,1032,1501,1508,11045,820
168625,9,-5.35,-2.20,0.18,0.100,0.297,1.130,0.84,8.29,0.00,0.00,-0.84,-8.29,0.00,-2.93,-29.00,2.42,-26.80,0.00,2.74,-1.86,-1.18,1100,1100,1100,1100,1028,1501,1512,11045,820
168637,9,3.75,-7.57,2.87,0.131,-0.373,0.983,-4.53,3.45,0.00,0.00,4.53,-3.45,0.00,15.84,-12.09,12.09,-4.52,0.00,-1.08,2.45,-58.97,1100,1100,1100,1100,1028,1501,1512,11050,820
168649,9,2.07,3.61,-2.83,-0.107,-0.162,0.894,-4.84,0.29,0.00,0.00,4.84,-0.29,0.00,16.95,-1.01,14.88,-4.62,0.00,-0.76,-1.86,48.95,1100,1100,1100,1100,1029,1501,1511,11041,815
168661,9,4.05,3.89,0.65,-0.377,0.020,1.267,-5.53,-1.70,0.00,2.34,5.53,4.04,0.00,19.37,14.15,15.32,10.26,0.00,-0.63,-1.64,-11.22,1100,1100,1100,1100,1014,1501,1526,11041,815
168672,9,0.87,5.08,1.50,-0.238,-0.127,1.115,-7.33,-3.57,0.00,2.34,7.33,5.91,0.00,25.66,20.70,24.79,15.62,0.00,0.61,-1.03,-26.54,1100,1100,1100,1100,1014,1501,1526,11037,815
168685,9,-15.87,4.47,-0.88,0.288,-0.116,1.208,-4.85,2.33,0.00,0.00,4.85,-2.33,0.00,16.97,-8.17,32.84,-12.64,0.00,7.91,-1.60,33.32,1100,1100,1100,1100,1029,1501,1511,11029,815
168697,9,5.30,-3.94,4.37,0.202,-0.285,0.793,-7.24,2.04,0.00,0.00,7.24,-2.04,0.00,25.34,-7.15,20.05,-3.22,0.00,-1.53,2.46,-80.07,1100,1100,1100,1100,1029,1500,1511,11025,815
168709,9,5.31,5.19,-1.27,-0.419,0.082,1.241,-4.26,-1.88,0.00,0.00,4.26,1.88,0.00,14.90,6.60,9.58,1.40,0.00,-1.87,-1.35,29.17,1100,1100,1100,1100,1032,1500,1509,11029,815
168721,9,-1.14,7.15,0.98,-0.329,-0.114,1.203,-1.16,1.34,0.00,0.00,1.16,-1.34,0.00,4.07,-4.71,5.21,-11.85,0.00,0.75,-2.32,-1.77,1100,1100,1100,1100,1030,1500,1511,11037,815
168732,9,-1.23,5.68,-2.00,-0.271,-0.088,1.280,-0.54,0.17,0.00,0.00,0.54,-0.17,0.00,1.89,-0.60,3.12,-6.28,0.00,0.68,-0.81,42.00,1100,1100,1100,1100,1030,1500,1511,11029,815
168745,9,-10.80,1.45,-3.11,0.207,-0.267,1.028,-3.02,0.41,0.00,0.00,3.02,-0.41,0.00,10.58,-1.44,21.38,-2.89,0.00,5.87,0.66,70.03,1100,1100,1100,1100,1033,1500,1508,11029,815
168757,9,-1.25,6.44,0.79,0.092,0.255,0.610,1.93,1.79,0.00,0.00,-1.93,-1.79,0.00,-6.75,-6.28,-5.49,-12.71,0.00,0.10,-2.61,-22.57,1100,1100,1100,1100,1033,1500,1508,11029,815
168769,9,10.62,4.87,-2.00,-0.390,0.046,1.471,-0.31,-1.23,0.00,3.42,0.31,4.65,0.00,1.07,16.26,-9.54,11.39,0.00,-5.51,-0.23,31.75,1100,1100,1100,1100,1003,1500,1538,11029,815
168781,9,3.28,-3.72,3.96,-0.139,-0.260,1.102,-0.09,-2.09,0.00,0.00,0.09,2.09,0.00,0.31,7.33,-2.96,11.05,0.00,-1.54,3.61,-72.35,1100,1100,1100,1100,1033,1500,1508,11037,815
168792,9,-4.54,-4.20,-0.89,-0.019,-0.217,1.003,-3.68,1.41,0.00,0.00,3.68,-1.41,0.00,12.87,-4.95,17.41,-0.75,0.00,3.29,1.76,16.45,1100,1100,1100,1100,1033,1500,1508,11037,815
168805,9,0.51,9.29,-2.65,-0.253,-0.357,1.207,-3.38,-2.01,0.00,0.00,3.38,2.01,0.00,11.84,7.05,11.33,-2.24,0.00,-0.28,-3.56,56.37,1100,1100,1100,1100,1033,1501,1507,11041,815
168817,9,-7.70,5.84,0.25,-0.029,0.016,0.811,-3.87,-1.86,0.00,0.00,3.87,1.86,0.00,13.54,6.52,21.25,0.67,0.00,4.41,-3.04,-6.71,1100,1100,1100,1100,1033,1501,1507,11041,815
168829,9,4.08,-6.61,0.92,0.322,0.311,1.075,-0.98,2.04,0.00,0.00,0.98,-2.04,0.00,3.41,-7.13,-0.66,-0.52,0.00,-1.17,2.54,-16.83,1100,1100,1100,1100,1032,1501,1508,11033,815
168841,9,-2.50,-5.27,4.96,0.276,0.418,0.724,1.90,3.69,0.00,0.00,-1.90,-3.69,0.00,-6.64,-12.91,-4.13,-7.65,0.00,0.19,1.67,-85.95,1100,1100,1100,1100,1033,1501,1507,11029,819
168853,9,7.02,-17.66,1.74,0.066,-0.364,1.012,-4.39,4.50,0.00,0.00,4.39,-4.50,0.00,15.38,-15.74,8.35,1.92,0.00,-2.51,7.32,-29.70,1100,1100,1100,1100,1033,1501,1507,11033,819
168865,9,7.21,11.91,-3.00,-0.383,-0.763,1.379,-4.69,3.75,0.00,2.34,4.69,-1.41,0.00,16.40,-4.94,9.19,-16.86,0.00,-2.60,-6.46,66.87,1100,1100,1100,1100,1006,1509,1526,11029,819
168877,9,-8.28,16.70,1.17,-0.630,0.072,1.115,0.49,-0.06,0.00,2.34,-0.49,2.40,0.00,-1.70,8.39,6.58,-8.31,0.00,3.94,-8.05,-19.65,1100,1100,1100,1100,1006,1501,1526,11025,819
168889,9,0.76,-0.31,-1.37,0.278,0.009,1.204,-0.42,1.50,0.00,0.00,0.42,-1.50,0.00,1.47,-5.26,0.71,-4.95,0.00,-0.35,2.15,28.51,1100,1100,1100,1100,1025,1501,1515,11021,819
168901,9,-4.65,-1.65,-0.71,0.342,-0.068,0.756,-1.53,9.55,0.00,0.00,1.53,-9.55,0.00,5.34,-33.44,9.99,-31.80,0.00,2.07,0.11,11.95,1100,1100,1100,1100,1030,1503,1508,11021,819
168913,9,-3.22,-5.51,-1.47,0.365,0.019,0.564,-2.98,14.05,0.00,0.00,2.98,-14.05,0.00,10.43,-49.18,13.65,-43.66,0.00,2.66,1.24,21.60,1100,1100,1100,1100,1030,1503,1508,11029,819
168925,9,11.93,12.20,1.28,-0.326,-0.471,1.409,-5.16,5.58,0.00,0.00,5.16,-5.58,0.00,18.07,-19.54,6.14,-31.74,0.00,-5.80,-5.91,-26.55,1100,1100,1100,1100,1030,1503,1508,11025,819
168937,9,0.52,-1.78,3.06,-0.555,0.085,1.421,-2.69,6.39,0.00,0.00,2.69,-6.39,0.00,9.41,-22.37,8.89,-20.59,0.00,0.00,0.10,-64.61,1100,1100,1100,1100,1030,1503,1508,11029,819
168949,9,8.14,-4.57,-1.66,-0.225,-0.328,1.199,-6.86,-0.84,0.00,0.00,6.86,0.84,0.00,24.01,2.94,15.87,7.51,0.00,-2.33,4.20,34.44,1100,1100,1100,1100,1029,1503,1509,11012,815
168961,9,-19.30,15.41,-3.18,-0.227,-0.456,0.985,-4.01,1.59,0.00,0.00,4.01,-1.59,0.00,14.03,-5.58,33.33,-20.99,0.00,8.98,-6.27,67.28,1100,1100,1100,1100,1028,1501,1512,11025,815
168972,9,-11.16,3.18,0.43,0.410,0.192,1.003,-2.63,5.17,0.00,0.00,2.63,-5.17,0.00,9.22,-18.10,20.37,-21.28,0.00,6.05,-1.27,-7.75,1100,1100,1100,1100,1028,1501,1512,11029,815
168985,9,10.02,0.94,3.39,0.034,0.207,0.727,-0.82,0.89,0.00,0.00,0.82,-0.89,0.00,2.87,-3.11,-7.14,-4.05,0.00,-5.19,0.93,-68.03,1100,1100,1100,1100,1034,1503,1505,11037,815
168997,9,-6.13,2.22,0.23,-0.194,0.294,1.007,2.40,3.11,0.00,0.00,-2.40,-3.11,0.00,-8.39,-10.88,-2.26,-13.10,0.00,2.64,-1.64,3.76,1100,1100,1100,1100,1034,1502,1505,11033,815
169009,9,5.67,-5.26,-0.28,-0.228,-0.666,1.275,-3.46,1.62,0.00,0.00,3.46,-1.62,0.00,12.12,-5.66,6.45,-0.40,0.00,-2.01,2.20,9.94,1100,1100,1100,1100,1032,1502,1508,11033,815
169021,9,-10.99,12.67,-1.93,-0.055,-0.453,0.858,-5.13,2.74,0.00,0.00,5.13,-2.74,0.00,17.96,-9.57,28.95,-22.24,0.00,5.66,-7.26,38.86,1100,1100,1100,1100,1032,1502,1508,11033,815
169032,9,-5.27,0.79,-1.53,0.216,0.389,0.890,-0.38,4.83,0.00,0.00,0.38,-4.83,0.00,1.33,-16.89,6.60,-17.68,0.00,3.10,-1.73,39.63,1100,1100,1100,1100,1032,1502,1508,11033,815
169045,9,4.98,-1.71,1.49,-0.152,0.028,0.860,-3.57,0.83,0.00,0.00,3.57,-0.83,0.00,12.51,-2.90,7.53,-1.19,0.00,-2.86,0.65,-34.49,1100,1100,1100,1100,1032,1502,1508,11033,820
169057,9,-1.61,-5.87,-1.67,0.285,0.173,0.747,-0.49,4.13,0.00,0.00,0.49,-4.13,0.00,1.71,-14.45,3.32,-8.57,0.00,1.06,1.48,33.77,1100,1100,1100,1100,1032,1502,1508,11037,820
169069,9,6.02,1.26,5.54,-0.265,-0.282,1.252,-5.40,-1.57,0.00,0.00,5.40,1.57,0.00,18.90,5.48,12.88,4.22,0.00,-2.00,-0.02,-107.21,1100,1100,1100,1100,1034,1502,1506,11029,820
169081,9,-0.88,0.70,-0.29,-0.473,-0.232,1.370,-4.36,-3.69,0.00,2.16,4.36,5.85,0.00,15.26,20.48,16.14,19.79,0.00,0.13,1.64,7.18,1100,1100,1100,1100,1015,1502,1524,11021,820
169092,9,1.69,-0.88,-2.59,0.182,-0.232,0.888,-5.26,5.50,0.00,2.16,5.26,-3.34,0.00,18.43,-11.70,16.73,-10.82,0.00,0.67,-0.48,57.16,1100,1100,1100,1100,1015,1502,1524,11029,820
169105,9,-4.69,16.14,-2.37,-0.331,-0.111,1.294,-2.32,2.14,0.00,0.00,2.32,-2.14,0.00,8.11,-7.48,12.80,-23.62,0.00,2.59,-7.50,38.77,1100,1100,1100,1100,1031,1502,1509,11029,820
169117,9,-14.21,3.33,-0.35,0.395,0.082,0.905,-1.49,7.60,0.00,0.00,1.49,-7.60,0.00,5.21,-26.60,19.42,-29.93,0.00,6.59,-1.56,8.92,1100,1100,1100,1100,1031,1502,1509,11033,820
169129,9,9.06,-8.62,4.87,0.366,0.223,0.557,2.75,9.65,0.00,0.00,-2.75,-9.65,0.00,-9.62,-33.76,-18.67,-25.14,0.00,-4.76,3.63,-101.28,1100,1100,1100,1100,1034,1502,1506,11029,820
169141,9,10.57,3.20,-2.02,-0.437,-0.038,1.282,0.44,7.39,0.00,0.00,-0.44,-7.39,0.00,-1.55,-25.85,-12.12,-29.06,0.00,-5.01,-2.49,39.86,1100,1100,1100,1100,1032,1502,1508,11033,815
169152,9,2.59,-5.30,1.89,-0.112,-0.141,1.027,1.14,7.77,0.00,0.00,-1.14,-7.77,0.00,-3.99,-27.21,-6.58,-21.91,0.00,-1.19,1.86,-33.95,1100,1100,1100,1100,1032,1502,1508,11037,815
169165,9,-4.13,0.45,-1.50,0.185,0.028,0.827,0.75,9.13,0.00,0.00,-0.75,-9.13,0.00,-2.61,-31.95,1.52,-32.40,0.00,1.95,-1.46,18.36,1100,1100,1100,1100,1032,1502,1508,11037,815
169177,9,-5.22,1.47,-2.34,0.364,-0.008,0.906,0.24,12.30,0.00,0.00,-0.24,-12.30,0.00,-0.82,-43.06,4.40,-44.53,0.00,2.80,-3.07,47.59,1100,1100,1100,1100,1032,1502,1508,11029,815
169189,9,-1.30,8.50,1.73,-0.148,0.220,0.828,0.95,1.95,0.00,0.00,-0.95,-1.95,0.00,-3.32,-6.81,-2.02,-15.31,0.00,0.38,-4.06,-36.44,1100,1100,1100,1100,1034,1502,1506,11021,815
169201,9,11.10,-1.00,-1.99,-0.182,0.244,1.316,-0.05,-0.47,0.00,0.00,0.05,0.47,0.00,0.17,1.66,-10.93,2.65,0.00,-5.80,1.48,34.69,1100,1100,1100,1100,1033,1502,1507,11029,815
169212,9,1.31,-2.89,2.65,0.109,0.039,0.933,0.19,-0.96,0.00,0.00,-0.19,0.96,0.00,-0.65,3.37,-1.96,6.26,0.00,-0.69,1.99,-50.05,1100,1100,1100,1100,1033,1502,1507,11033,815
169225,9,6.42,-12.45,2.84,-0.106,-0.343,1.026,-3.52,-0.32,0.00,0.00,3.52,0.32,0.00,12.32,1.13,5.90,13.58,0.00,-1.88,5.42,-61.56,1100,1100,1100,1100,1032,1502,1508,11029,815
169237,9,5.50,5.39,-1.76,-0.446,-0.505,1.433,-4.67,-0.09,0.00,0.00,4.67,0.09,0.00,16.35,0.31,10.85,-5.08,0.00,-1.99,-3.29,47.00,1100,1100,1100,1100,1032,1502,1508,11029,815
169249,9,-9.03,16.75,1.63,-0.895,-0.175,1.064,-2.45,-5.65,0.00,0.00,2.45,5.65,0.00,8.59,19.78,17.62,3.03,0.00,4.64,-7.30,-23.89,1100,1100,1100,1100,1033,1502,1507,11045,814
169261,9,-6.09,1.63,-3.21,0.144,-0.251,1.303,-4.82,-4.54,0.00,0.00,4.82,4.54,0.00,16.86,15.89,22.95,14.25,0.00,3.75,1.54,62.18,1100,1100,1100,1100,1032,1502,1508,11037,814
169272,9,-3.80,-3.17,1.77,0.247,-0.027,0.666,-3.03,4.89,0.00,0.00,3.03,-4.89,0.00,10.61,-17.10,14.41,-13.93,0.00,1.90,1.01,-40.69,1100,1100,1100,1100,1032,1502,1508,11029,814
169285,9,5.95,-9.32,0.58,0.389,0.194,0.629,-0.61,10.56,0.00,0.00,0.61,-10.56,0.00,2.15,-36.97,-3.80,-27.65,0.00,-2.31,3.11,-19.93,1100,1100,1100,1100,1033,1502,1507,11033,814
169297,9,12.94,8.10,-0.97,-0.354,-0.587,1.448,-3.91,6.97,0.00,0.00,3.91,-6.97,0.00,13.70,-24.38,0.76,-32.48,0.00,-6.22,-3.82,27.93,1100,1100,1100,1100,1033,1501,1507,11029,814
169309,9,-9.94,5.24,1.67,-0.395,-0.291,1.111,-2.72,7.48,0.00,0.00,2.72,-7.48,0.00,9.51,-26.17,19.45,-31.41,0.00,5.31,-3.81,-26.72,1100,1100,1100,1100,1032,1501,1509,11041,814
169321,9,1.46,-7.47,-2.92,0.343,0.234,1.117,-1.32,7.25,0.00,0.00,1.32,-7.25,0.00,4.62,-25.39,3.17,-17.92,0.00,0.09,3.15,58.18,1100,1100,1100,1100,1033,1501,1508,11045,814
169333,9,-10.45,4.92,-0.59,0.312,-0.190,0.597,-1.97,13.08,0.00,0.00,1.97,-13.08,0.00,6.89,-45.79,17.34,-50.71,0.00,4.46,-4.38,8.25,1100,1100,1100,1100,1033,1501,1508,11041,814
169345,9,-0.99,-1.74,-0.63,0.251,-0.000,0.965,-2.78,11.32,0.00,0.00,2.78,-11.32,0.00,9.73,-39.63,10.72,-37.89,0.00,1.32,-1.42,1.28,1100,1100,1100,1100,1033,1501,1508,11050,815
169357,9,14.67,1.10,3.38,-0.330,-0.256,1.369,-6.88,5.17,0.00,0.00,6.88,-5.17,0.00,24.07,-18.10,9.40,-19.20,0.00,-6.73,-0.98,-63.34,1100,1100,1100,1100,1033,1501,1508,11037,815
169369,9,-7.02,-2.63,2.36,-0.275,-0.106,1.136,-4.04,3.76,0.00,0.00,4.04,-3.76,0.00,14.14,-13.15,21.16,-10.52,0.00,3.81,0.46,-39.71,1100,1100,1100,1100,1034,1501,1507,11033,815
169381,9,12.00,-7.01,-3.79,-0.130,-0.404,1.174,-8.41,0.15,0.00,0.00,8.41,-0.15,0.00,29.42,-0.54,17.42,6.47,0.00,-3.95,3.78,79.85,1100,1100,1100,1100,1026,1501,1515,11033,815
169392,9,-14.89,19.00,-4.11,-0.244,-0.312,1.070,-5.81,1.62,0.00,0.00,5.81,-1.62,0.00,20.33,-5.67,35.22,-24.67,0.00,7.24,-9.31,80.42,1100,1100,1100,1100,1026,1501,1515,11029,815
169405,9,-8.95,-0.75,1.02,0.441,0.073,0.831,-4.03,6.47,0.00,0.00,4.03,-6.47,0.00,14.09,-22.63,23.04,-21.88,0.00,5.75,-1.03,-18.09,1100,1100,1100,1100,1035,1501,1506,11033,815
169417,9,10.44,-0.60,5.27,-0.122,0.097,1.013,-2.70,-2.64,0.00,0.00,2.70,2.64,0.00,9.44,9.24,-1.00,9.84,0.00,-5.40,2.08,-96.84,1100,1100,1100,1100,1035,1501,1506,11033,815
169429,9,-1.45,-1.17,1.99,-0.561,0.259,1.303,-1.41,-5.25,0.00,0.00,1.41,5.25,0.00,4.92,18.37,6.37,19.54,0.00,0.68,2.55,-31.05,1100,1100,1100,1100,1035,1501,1506,11033,815
169441,9,15.18,-9.46,-2.10,-0.199,-0.321,1.233,-4.85,-6.63,0.00,0.00,4.85,6.63,0.00,16.98,23.21,1.80,32.67,0.00,-6.05,6.96,45.30,1100,1100,1100,1100,1035,1501,1507,11029,815
169453,9,-7.78,16.08,-3.30,-0.218,-0.526,1.071,-4.78,0.40,0.00,0.00,4.78,-0.40,0.00,16.72,-1.41,24.49,-17.49,0.00,3.87,-7.48,70.12,1100,1100,1100,1100,1035,1501,1507,11037,815
169465,9,-12.32,-3.37,2.44,0.378,-0.059,1.070,-3.45,6.83,0.00,0.00,3.45,-6.83,0.00,12.08,-23.91,24.40,-20.54,0.00,6.87,0.19,-34.68,1100,1100,1100,1100,1034,1501,1508,11033,815
169477,9,6.13,-4.76,1.10,0.294,0.405,0.559,3.93,6.75,0.00,0.00,-3.93,-6.75,0.00,-13.77,-23.63,-19.89,-18.87,0.00,-4.10,1.58,-16.90,1100,1100,1100,1100,1034,1501,1508,11037,815
169489,9,-0.13,-5.52,-1.48,-0.002,0.451,0.886,5.44,7.04,0.00,2.79,-5.44,-4.25,0.00,-19.04,-14.87,-18.91,-9.35,0.00,-0.72,0.91,31.11,1100,1100,1100,1100,1010,1501,1531,11037,815
169501,9,11.02,-13.81,1.87,0.176,-0.322,1.025,2.00,9.65,0.00,0.00,-2.00,-9.65,0.00,-7.01,-33.77,-18.03,-19.97,0.00,-5.07,3.80,-49.92,1100,1100,1100,1100,1042,1501,1508,11033,815
169512,9,-5.09,7.99,-2.08,-0.325,-0.564,1.023,-0.71,3.59,0.00,0.00,0.71,-3.59,0.00,2.49,-12.56,7.58,-20.55,0.00,2.29,-5.38,35.14,1100,1100,1100,1100,1042,1501,1508,11025,815
169525,9,-2.25,-1.01,0.88,0.031,-0.063,1.152,-0.37,12.23,0.00,0.00,0.37,-12.23,0.00,1.28,-42.82,3.53,-41.81,0.00,1.85,-3.25,-11.42,1100,1100,1100,1100,1042,1501,1508,11029,815
169537,9,3.84,-3.82,-2.03,0.050,0.101,0.566,-0.49,9.17,0.00,0.00,0.49,-9.17,0.00,1.70,-32.10,-2.14,-28.28,0.00,-1.98,-0.56,28.37,1100,1100,1100,1100,1042,1501,1508,11041,815
169549,9,-9.70,1.66,-2.63,0.231,0.067,1.028,-0.88,9.18,0.00,0.00,0.88,-9.18,0.00,3.07,-32.14,12.77,-33.81,0.00,4.99,-3.65,43.38,1100,1100,1100,1100,1047,1501,1509,11029,815
169561,9,4.16,-10.69,3.88,0.333,-0.007,0.871,-5.41,9.37,0.00,0.00,5.41,-9.37,0.00,18.92,-32.81,14.76,-22.11,0.00,-1.07,2.07,-84.84,1100,1100,1100,1100,1048,1501,1508,11033,815
169573,9,2.85,-2.11,1.03,-0.159,-0.156,0.970,-6.21,4.36,0.00,0.00,6.21,-4.36,0.00,21.73,-15.27,18.89,-13.16,0.00,-0.95,-1.03,-19.00,1100,1100,1100,1100,1048,1501,1508,11029,815
169585,9,8.17,3.33,0.90,-0.522,0.047,1.344,-5.05,-3.73,0.00,0.00,5.05,3.73,0.00,17.69,13.05,9.52,9.73,0.00,-2.71,-1.08,-7.02,1100,1100,1100,1100,1053,1500,1509,11033,815
169597,9,-1.69,6.93,-0.11,-0.392,-0.468,1.314,-7.92,-5.32,0.00,0.00,7.92,5.32,0.00,27.70,18.63,29.39,11.70,0.00,1.58,-1.56,1.68,1100,1100,1100,1100,1053,1500,1509,11029,815
169609,9,-10.83,5.76,-0.75,0.316,-0.060,0.991,-4.55,1.27,0.00,0.00,4.55,-1.27,0.00,15.92,-4.44,26.76,-10.20,0.00,6.04,-2.21,26.63,1100,1100,1100,1100,1062,1500,1511,11029,815
169621,9,-0.46,2.57,4.40,0.007,0.415,0.786,-0.10,-1.46,0.00,0.00,0.10,1.46,0.00,0.34,5.10,0.79,2.53,0.00,0.25,0.18,-71.15,1100,1100,1100,1100,1070,1500,1507,11037,815
169632,9,2.84,-5.42,-0.98,-0.197,0.094,1.192,-2.26,-2.22,0.00,0.00,2.26,2.22,0.00,7.90,7.78,5.06,13.20,0.00,-1.98,4.85,29.40,1100,1100,1100,1100,1070,1500,1507,11033,815
169645,9,7.00,3.73,0.85,-0.350,-0.272,1.189,-4.42,-4.81,0.00,0.00,4.42,4.81,0.00,15.48,16.82,8.48,13.09,0.00,-2.67,0.22,0.43,1100,1100,1100,1100,1086,1500,1510,11037,815
169657,9,-2.68,8.12,-0.43,-0.288,-0.084,1.193,-3.27,-5.70,0.00,0.00,3.27,5.70,0.00,11.44,19.93,14.12,11.82,0.00,1.77,-1.65,8.67,1100,1100,1100,1100,1086,1500,1510,11029,815
169669,9,-9.14,4.09,-1.96,0.288,-0.128,1.001,-4.09,-0.80,0.00,2.79,4.09,3.59,0.00,14.30,12.55,23.44,8.45,0.00,4.51,0.08,50.56,1100,1100,1100,1100,1068,1500,1531,11037,815
169681,9,-1.61,-1.39,3.07,0.132,0.184,0.734,-0.26,0.56,0.00,1.89,0.26,1.33,0.00,0.91,4.65,2.52,6.04,0.00,0.84,1.52,-58.69,1100,1100,1100,1100,1078,1502,1521,11045,815
169692,9,10.19,-3.49,-1.51,0.069,0.401,0.961,1.18,-0.71,0.00,1.89,-1.18,2.60,0.00,-4.13,9.09,-14.32,12.58,0.00,-4.73,2.20,29.31,1100,1100,1100,1100,1078,1502,1521,11033,815
169705,9,-0.53,-1.58,2.90,0.038,0.033,1.098,-0.79,1.16,0.00,0.00,0.79,-1.16,0.00,2.78,-4.07,3.31,-2.49,0.00,0.15,0.45,-52.96,1100,1100,1100,1100,1091,1500,1510,11033,815
169717,9,3.02,-10.33,0.40,-0.178,-0.307,1.204,-2.94,-0.22,0.00,0.00,2.94,0.22,0.00,10.28,0.79,7.26,11.12,0.00,-0.97,4.57,-15.81,1100,1100,1100,1100,1091,1500,1510,11029,815
169729,9,-3.22,8.95,-2.78,-0.438,-0.498,1.190,-5.55,-3.53,0.00,0.00,5.55,3.53,0.00,19.41,12.34,22.63,3.39,0.00,2.35,-3.86,62.64,1100,1100,1100,1100,1101,1500,1511,11041,815
169741,9,-11.54,13.93,1.50,-0.216,-0.196,0.806,-5.51,-2.01,0.00,0.00,5.51,2.01,0.00,19.29,7.04,30.83,-6.89,0.00,6.05,-6.49,-32.74,1100,1100,1100,1100,1104,1500,1510,11033,815
169752,9,3.83,-2.60,-2.41,-0.023,0.059,1.284,-5.18,-0.57,0.00,0.00,5.18,0.57,0.00,18.13,1.98,14.30,4.58,0.00,-1.54,2.36,45.02,1100,1100,1100,1100,1104,1500,1510,11025,815
169765,9,-2.58,5.67,4.58,-0.065,0.058,0.907,-1.51,-3.30,0.00,0.00,1.51,3.30,0.00,5.30,11.54,7.87,5.87,0.00,1.13,-0.87,-84.11,1100,1100,1100,1100,1109,1500,1510,11025,815
169777,9,-2.51,-5.67,0.05,0.282,0.224,0.711,0.26,5.70,0.00,0.00,-0.26,-5.70,0.00,-0.93,-19.95,1.58,-14.28,0.00,1.67,1.64,-0.39,1100,1100,1100,1100,1109,1500,1510,11016,815
169789,9,5.21,11.12,-1.88,-0.271,-0.707,1.363,-3.75,4.22,0.00,3.51,3.75,-0.71,0.00,13.14,-2.49,7.93,-13.60,0.00,-2.60,-5.06,50.08,1100,1100,1100,1100,1080,1500,1539,11016,815
169801,9,-10.07,7.41,-1.51,-0.014,-0.031,0.764,-2.16,3.68,0.00,0.00,2.16,-3.68,0.00,7.56,-12.87,17.63,-20.28,0.00,5.29,-4.62,31.95,1100,1100,1100,1100,1112,1500,1508,11025,815
169812,9,2.54,-1.81,-1.68,0.256,0.274,1.045,0.05,5.18,0.00,0.00,-0.05,-5.18,0.00,-0.18,-18.14,-2.72,-16.33,0.00,-0.84,1.14,30.53,1100,1100,1100,1100,1112,1500,1508,11016,815
169825,9,2.99,-5.73,3.00,0.389,0.289,0.810,1.64,7.20,0.00,0.00,-1.64,-7.20,0.00,-5.75,-25.21,-8.74,-19.49,0.00,-2.08,2.03,-58.00,1100,1100,1100,1100,1123,1501,1507,11012,815
169837,9,5.65,-27.85,0.57,0.657,0.092,0.527,-0.71,18.50,0.00,0.00,0.71,-18.50,0.00,2.48,-64.74,-3.17,-36.89,0.00,-1.89,9.40,-10.08,1100,1100,1100,1100,1123,1501,1507,11012,815
169849,9,10.98,-1.49,-1.13,0.011,-0.592,1.034,-4.83,15.59,0.00,0.00,4.83,-15.59,0.00,16.91,-54.57,5.93,-53.08,0.00,-5.10,-2.65,30.23,1100,1100,1100,1100,1120,1501,1512,11025,819
169861,9,0.20,-2.96,3.30,-0.596,-0.116,1.218,-2.48,10.74,0.00,0.00,2.48,-10.74,0.00,8.69,-37.58,8.48,-34.62,0.00,-0.28,-1.28,-59.51,1100,1100,1100,1100,1139,1501,1507,11029,819
169872,9,5.64,0.88,0.83,-0.238,-0.210,1.465,-5.80,2.34,0.00,0.00,5.80,-2.34,0.00,20.29,-8.20,14.66,-9.08,0.00,-1.43,-0.23,-7.06,1100,1100,1100,1100,1139,1501,1507,11029,819
169885,9,-12.84,15.73,-2.51,-0.337,-0.575,0.993,-6.03,-2.08,0.00,0.00,6.03,2.08,0.00,21.12,7.29,33.95,-8.45,0.00,5.99,-6.08,55.18,1100,1100,1100,1100,1138,1501,1509,11029,819
169897,9,-9.08,1.92,-2.42,0.216,0.182,0.789,-2.42,1.39,0.00,0.00,2.42,-1.39,0.00,8.48,-4.87,17.55,-6.79,0.00,4.88,-0.22,44.79,1100,1100,1100,1100,1138,1500,1509,11021,819
169909,9,14.77,8.79,3.41,-0.259,0.040,1.256,-4.98,-4.56,0.00,0.00,4.98,4.56,0.00,17.45,15.97,2.68,7.18,0.00,-6.88,-1.80,-67.55,1100,1100,1100,1100,1148,1500,1510,11025,819
169921,9,-5.08,-3.76,4.53,-0.125,0.354,1.022,-0.28,0.41,0.00,0.00,0.28,-0.41,0.00,0.98,-1.45,6.06,2.32,0.00,2.41,2.39,-82.96,1100,1100,1100,1100,1167,1500,1508,11012,819
169932,9,9.28,-11.41,-0.63,-0.060,-0.218,1.225,-5.62,-1.59,0.00,0.00,5.62,1.59,0.00,19.68,5.57,10.40,16.98,0.00,-2.99,6.26,21.25,1100,1100,1100,1100,1167,1500,1508,11021,819
169945,9,-7.63,15.66,-3.49,-0.587,-0.688,1.101,-6.40,-5.97,0.00,0.00,6.40,5.97,0.00,22.40,20.89,30.03,5.23,0.00,3.91,-5.94,77.13,1250,1100,1100,1244,1168,1502,1507,11012,814
169957,9,-10.04,5.22,-0.64,0.203,0.052,1.049,-3.73,-1.90,0.00,0.00,3.73,1.90,0.00,13.07,6.66,23.11,1.44,0.00,6.18,-1.99,16.30,1250,1100,1100,1244,1168,1502,1507,11012,814
169969,9,7.72,3.92,0.65,0.159,0.164,0.984,-1.78,-2.60,0.00,3.15,1.78,5.75,0.00,6.24,20.13,-1.48,16.20,0.00,-3.79,0.52,-17.04,1250,1100,1100,1244,1154,1502,1535,10991,814
169981,9,-6.76,-3.42,0.76,-0.166,0.318,1.128,1.83,0.37,0.00,0.00,-1.83,-0.37,0.00,-6.41,-1.29,0.35,2.13,0.00,2.69,1.89,-23.45,1250,1100,1100,1244,1184,1503,1506,10979,814
169993,9,18.28,-22.55,0.92,0.386,0.230,0.760,0.44,5.57,0.00,0.00,-0.44,-5.57,0.00,-1.55,-19.49,-19.83,3.06,0.00,-8.08,10.74,-21.46,1250,1100,1100,1244,1184,1503,1506,10966,814
170004,9,11.37,9.75,1.47,-0.357,-0.398,1.100,0.11,2.61,0.00,0.00,-0.11,-2.61,0.00,-0.39,-9.15,-11.76,-18.90,0.00,-5.99,-4.78,-29.80,1250,1100,1100,1244,1190,1502,1506,10962,814
170017,9,-3.74,-3.30,-1.10,-0.115,-0.399,1.059,2.29,6.40,0.00,0.00,-2.29,-6.40,0.00,-8.01,-22.39,-4.27,-19.09,0.00,2.30,-0.32,21.49,1250,1100,1100,1244,1190,1502,1506,10962,814
170029,9,17.45,-5.46,-0.25,-0.378,-0.891,1.657,-5.22,-2.21,0.00,0.00,5.22,2.21,0.00,18.28,7.73,0.83,13.19,0.00,-6.98,3.26,7.32,1250,1100,1100,1244,1191,1502,1506,10941,814
170041,9,-5.86,26.69,-3.15,-0.281,-1.252,1.303,0.61,3.60,0.00,0.00,-0.61,-3.60,0.00,-2.14,-12.60,3.72,-39.29,0.00,2.12,-13.16,49.57,1127,1251,1229,1157,1191,1502,1506,10933,815
170052,9,-15.22,9.06,0.39,-0.477,-0.604,1.753,6.65,11.20,0.00,0.00,-6.65,-11.20,0.00,-23.28,-39.18,-8.06,-48.24,0.00,7.56,-7.66,-14.46,1127,1251,1229,1157,1191,1502,1506,10921,815
170065,1,26.13,-5.70,-0.10,-0.579,-0.631,1.914,0.06,-1.08,0.00,0.00,-0.06,1.08,0.00,-0.22,3.78,-26.35,9.48,0.00,-11.93,3.37,11.08,1127,1251,1229,1157,1201,1502,1507,10908,815
170077,1,6.03,28.13,2.97,-1.144,-0.719,1.721,6.15,-4.21,0.00,0.00,-6.15,4.21,0.00,-21.52,14.73,-27.55,-13.40,0.00,-4.99,-11.04,-59.03,1127,1251,1229,1157,1201,1502,1507,10900,815
170089,9,-16.08,-5.45,-0.10,-0.161,0.428,0.789,15.12,1.97,0.00,0.00,-15.12,-1.97,0.00,-52.92,-6.89,-36.84,-1.44,0.00,6.13,2.47,-1.28,1127,1251,1229,1157,1199,1502,1509,10891,815
170101,9,24.15,-54.47,1.61,0.785,0.843,0.240,13.42,9.85,0.00,0.00,-13.42,-9.85,0.00,-46.98,-34.49,-71.13,19.98,0.00,-12.59,26.21,-34.10,1127,1251,1229,1157,1195,1502,1517,10891,815
170112,9,7.82,12.49,1.10,0.547,-0.554,0.384,-5.53,13.44,0.00,0.00,5.53,-13.44,0.00,19.36,-47.03,11.54,-59.52,0.00,-4.41,-6.30,-30.43,1127,1251,1229,1157,1195,1502,1517,10883,815
170125,1,-35.61,50.73,-6.61,0.419,-0.455,0.739,-1.97,10.62,0.00,0.00,1.97,-10.62,0.00,6.90,-37.17,42.52,-87.90,0.00,17.28,-27.93,121.10,1127,1251,1229,1157,1207,1502,1506,10879,815
170137,1,4.83,-4.54,-3.67,-1.048,0.851,2.685,-14.31,5.40,0.00,0.00,14.31,-5.40,0.00,50.12,-18.93,45.28,-14.39,0.00,2.68,-1.46,58.11,1127,1251,1229,1157,1207,1502,1506,10879,815
170149,1,54.52,-45.79,2.37,-0.336,-0.112,1.346,-35.47,14.80,0.00,0.00,35.47,-14.80,0.00,124.20,-51.83,69.69,-6.04,0.00,-20.56,19.84,-76.78,1100,1316,1322,1140,1206,1502,1508,10891,816
170161,1,-10.28,10.10,-1.08,0.569,-0.914,-0.814,-44.87,13.64,0.00,0.00,44.87,-13.64,0.00,150.00,-47.79,160.28,-57.89,0.00,9.12,-2.86,-14.15,1100,1316,1322,1140,1216,1502,1506,10883,816
170172,1,-50.14,80.30,-2.55,0.196,-0.074,1.266,-20.58,2.66,0.00,0.00,20.58,-2.66,0.00,72.18,-9.36,122.32,-89.66,0.00,28.56,-35.20,17.34,1100,1316,1322,1140,1216,1502,1506,10883,816
170185,1,-6.45,-12.24,-6.22,-2.346,1.458,3.489,-17.72,0.25,0.00,0.00,17.72,-0.25,0.00,62.20,-0.93,68.65,11.31,0.00,9.66,8.46,88.06,1100,1316,1322,1140,1217,1501,1506,10891,816
170197,1,71.74,-28.85,1.03,-0.361,0.127,0.498,-30.11,-2.71,0.00,0.00,30.11,2.71,0.00,105.58,9.42,33.84,38.27,0.00,-28.79,20.97,-59.79,1100,1316,1322,1140,1217,1501,1506,10875,816
170209,1,21.68,64.22,-3.28,-0.012,-1.601,1.241,-21.64,-7.84,0.00,0.00,21.64,7.84,0.00,75.96,27.40,54.28,-36.81,0.00,-8.87,-21.73,41.49,1100,1316,1322,1140,1225,1501,1508,10875,816
170221,1,-37.77,22.01,2.19,-1.930,-1.126,2.398,14.50,1.99,0.00,0.00,-14.50,-1.99,0.00,-50.55,-7.01,-12.78,-29.02,0.00,14.12,-12.07,-71.68,1100,1316,1322,1140,1231,1501,1506,10867,816
170232,1,-66.40,-34.01,-8.28,0.656,0.674,-0.395,33.87,8.80,0.00,0.00,-33.87,-8.80,0.00,-118.35,-30.84,-51.95,3.17,0.00,28.42,18.10,141.89,1100,1316,1322,1140,1231,1501,1506,10867,816
170245,1,16.89,4.57,-1.71,-0.327,1.354,2.369,8.35,-0.42,0.00,0.00,-8.35,0.42,0.00,-29.05,1.39,-45.95,-3.18,0.00,-6.34,-0.21,-10.86,1206,1318,1224,1180,1232,1501,1506,10862,813
170257,1,62.22,7.65,-6.21,-0.326,0.479,1.789,-16.24,2.91,0.00,0.00,16.24,-2.91,0.00,57.03,-10.25,-5.19,-17.90,0.00,-26.57,-3.65,74.25,1206,1318,1224,1180,1232,1501,1506,10858,813
170269,1,45.24,20.01,-0.07,0.749,-1.137,-0.102,-34.00,8.48,0.00,0.00,34.00,-8.48,0.00,119.22,-29.74,73.98,-49.74,0.00,-18.26,-11.21,-72.52,1206,1318,1224,1180,1237,1501,1507,10850,813
170281,1,-8.95,-11.71,-3.60,-0.177,-1.803,1.063,-20.49,-0.43,0.00,0.00,20.49,0.43,0.00,71.94,1.42,80.90,13.13,0.00,5.11,4.70,-15.78,1206,1318,1224,1180,1241,1501,1507,10850,813
170293,1,-60.40,-32.02,-4.80,0.150,-1.617,0.803,-13.42,6.66,0.00,0.00,13.42,-6.66,0.00,47.24,-23.39,107.64,8.64,0.00,31.62,13.16,-0.62,1206,1318,1224,1180,1241,1501,1507,10846,813
170305,1,-58.11,14.86,-9.15,-0.678,0.698,1.041,-10.82,12.10,0.00,2.52,10.82,-9.58,0.00,38.13,-33.61,96.25,-48.46,0.00,30.99,-11.43,94.54,1206,1318,1224,1180,1221,1501,1528,10833,813
170317,1,15.25,-0.35,-0.13,0.873,2.065,0.344,-7.39,20.73,0.00,2.52,7.39,-18.21,0.00,26.17,-63.84,10.92,-63.49,0.00,-3.41,-2.95,-72.53,1206,1318,1224,1180,1221,1501,1528,10825,813
170329,1,48.04,0.93,1.48,0.154,1.853,1.593,-19.61,20.23,0.00,0.00,19.61,-20.23,0.00,68.98,-70.93,20.94,-71.86,0.00,-18.40,-7.22,-68.41,1206,1318,1224,1180,1254,1501,1508,10825,813
170341,1,49.64,14.76,-4.39,-0.087,0.175,1.393,-19.24,11.04,0.00,0.00,19.24,-11.04,0.00,67.69,-38.79,18.05,-53.55,0.00,-21.73,-10.19,50.80,1218,1338,1276,1196,1257,1501,1508,10821,805
170352,1,34.92,2.42,0.09,0.720,-0.335,0.295,-24.57,21.78,0.00,0.00,24.57,-21.78,0.00,86.38,-76.39,51.45,-78.81,0.00,-16.05,-7.05,-31.03,1218,1338,1276,1196,1257,1501,1508,10808,805
170364,1,-4.78,-11.46,0.87,-0.302,-1.276,0.639,-14.51,5.89,0.00,0.00,14.51,-5.89,0.00,51.19,-20.79,55.97,-9.33,0.00,1.10,3.65,-67.88,1218,1338,1276,1196,1258,1501,1508,10821,805
170377,1,-61.60,1.43,-0.19,-0.992,-1.917,1.317,-12.54,2.68,0.00,0.00,12.54,-2.68,0.00,44.27,-9.57,105.88,-11.01,0.00,29.79,1.24,-52.68,1218,1338,1276,1196,1258,1501,1508,10808,805
170389,1,-71.69,-1.80,-8.84,-0.650,-0.462,0.898,-10.89,1.41,0.00,0.00,10.89,-1.41,0.00,38.52,-5.12,110.22,-3.32,0.00,35.83,1.94,135.53,1218,1338,1276,1196,1257,1501,1509,10808,805
170401,1,-44.39,25.04,-12.49,-0.548,0.882,1.577,-1.28,0.08,0.00,2.07,1.28,1.99,0.00,4.90,6.75,49.29,-18.29,0.00,23.17,-11.58,188.70,1218,1338,1276,1196,1247,1501,1523,10808,805
170412,1,-9.00,1.75,-4.43,0.872,1.106,1.072,-2.81,4.68,0.00,2.07,2.81,-2.61,0.00,10.27,-9.35,19.27,-11.10,0.00,6.84,-0.86,37.26,1218,1338,1276,1196,1247,1501,1523,10817,805
170424,1,30.72,-7.89,-0.67,0.712,1.630,1.020,-5.40,4.45,0.00,0.00,5.40,-4.45,0.00,19.35,-15.78,-11.36,-7.89,0.00,-12.23,2.29,-1.47,1218,1338,1276,1196,1270,1501,1508,10808,805
170437,1,54.79,-21.11,-2.88,0.766,0.897,0.832,-0.78,4.37,0.00,0.00,0.78,-4.37,0.00,3.19,-15.51,-51.60,5.60,0.00,-24.33,7.67,34.90,1218,1338,1276,1196,1270,1501,1508,10808,805
170449,1,48.21,-19.61,-2.15,-0.094,-0.597,1.142,-10.30,-3.52,0.00,0.00,10.30,3.52,0.00,36.51,12.13,-11.70,31.75,0.00,-20.48,8.66,9.77,1100,1463,1471,1107,1273,1501,1508,10792,805
170461,1,26.36,-9.61,0.06,0.238,-1.238,0.661,-18.61,1.45,0.00,3.06,18.61,1.61,0.00,65.63,5.42,39.26,15.03,0.00,-9.28,3.35,-27.55,1100,1463,1471,1107,1248,1502,1534,10779,805
170472,1,-0.07,15.31,1.44,-0.742,-1.184,1.410,-10.30,-5.80,0.00,3.06,10.30,8.86,0.00,36.54,30.83,36.61,15.52,0.00,1.77,-6.19,-70.27,1100,1463,1471,1107,1248,1502,1534,10787,805
170484,1,-28.92,31.32,2.44,-0.297,-0.977,1.202,-4.43,-4.89,0.00,0.00,4.43,4.89,0.00,16.00,16.94,44.92,-14.38,0.00,14.82,-12.85,-100.97,1100,1463,1471,1107,1276,1500,1508,10783,805
170497,1,-35.93,-1.22,2.48,0.882,-0.770,0.109,-14.75,20.65,0.00,0.00,14.75,-20.65,0.00,52.14,-72.46,88.07,-71.24,0.00,19.02,-3.08,-95.74,1100,1463,1471,1107,1276,1500,1508,10800,805
170509,1,-31.99,-7.31,3.83,0.766,-0.134,0.269,-13.42,19.40,0.00,0.00,13.42,-19.40,0.00,47.48,-68.12,79.47,-60.80,0.00,16.66,0.90,-119.90,1100,1463,1471,1107,1272,1500,1512,10800,805
170521,1,-19.15,5.78,-0.44,0.027,0.749,0.591,1.08,11.83,0.00,0.00,-1.08,-11.83,0.00,-3.27,-41.65,15.88,-47.43,0.00,8.86,-5.67,-38.43,1100,1463,1471,1107,1276,1500,1508,10808,805
170532,1,-0.86,-1.28,0.10,-0.623,1.064,1.227,3.59,-3.14,0.00,0.00,-3.59,3.14,0.00,-12.02,10.76,-11.16,12.05,0.00,0.73,1.07,-50.14,1100,1463,1471,1107,1276,1500,1508,10808,805
170545,1,7.64,-28.94,-0.83,-0.204,0.466,0.664,1.48,-1.40,0.00,0.00,-1.48,1.40,0.00,-4.65,4.66,-12.28,33.60,0.00,-2.90,13.80,-37.20,1144,1438,1428,1126,1284,1500,1508,10800,805
170557,1,18.74,-1.88,-3.41,-0.075,0.096,1.029,-5.00,1.64,0.00,0.00,5.00,-1.64,0.00,18.06,-5.99,-0.68,-4.11,0.00,-7.05,0.44,25.13,1144,1438,1428,1126,1284,1500,1508,10783,805
170569,1,19.48,14.69,-4.78,-1.088,-0.116,2.001,1.28,2.11,0.00,0.00,-1.28,-2.11,0.00,-3.94,-7.62,-23.42,-22.31,0.00,-8.40,-6.32,54.53,1144,1438,1428,1126,1283,1500,1510,10796,805
170581,1,11.27,-9.06,-8.99,-0.421,-0.311,1.508,6.50,21.09,0.00,2.34,-6.50,-18.75,0.00,-22.23,-65.90,-33.50,-56.84,0.00,-5.51,0.28,143.64,1144,1438,1428,1126,1273,1500,1526,10775,805
170593,1,-2.58,10.86,-10.77,-0.967,-1.077,1.687,7.04,13.63,0.00,2.34,-7.04,-11.29,0.00,-24.11,-39.81,-21.54,-50.67,0.00,0.60,-8.96,176.72,1144,1438,1428,1126,1273,1500,1526,10771,805
170605,1,-14.79,25.64,-10.91,-0.883,-1.011,1.536,5.01,6.23,0.00,0.00,-5.01,-6.23,0.00,-17.05,-22.11,-2.26,-47.75,0.00,5.63,-14.42,176.66,1144,1438,1428,1126,1287,1511,1502,10787,805
170617,1,-19.97,27.19,-11.35,-0.497,-0.516,1.167,2.64,0.20,0.00,0.00,-2.64,-0.20,0.00,-8.75,-1.03,11.22,-28.22,0.00,8.03,-11.53,172.69,1144,1438,1428,1126,1287,1500,1502,10775,805
170629,1,-29.67,-5.03,-12.12,0.365,-0.422,0.430,-4.34,17.15,0.00,0.00,4.34,-17.15,0.00,15.65,-60.37,45.32,-55.34,0.00,14.01,0.85,169.73,1144,1438,1428,1126,1295,1500,1509,10746,805
170641,1,-45.17,10.93,-10.14,-0.400,-0.466,1.025,-11.53,16.37,0.00,0.00,11.53,-16.37,0.00,40.83,-57.65,86.00,-68.58,0.00,22.27,-10.69,134.98,1130,1418,1442,1194,1296,1500,1508,10742,810
170652,1,-65.63,29.18,-10.53,-1.579,-0.328,1.728,-10.95,-0.65,0.00,0.00,10.95,0.65,0.00,38.82,1.92,104.46,-27.26,0.00,32.61,-14.07,142.37,1130,1418,1442,1194,1296,1500,1508,10729,810
170664,1,-77.44,29.76,-10.71,-1.938,0.565,1.779,-1.45,-11.89,0.00,0.00,1.45,11.89,0.00,5.60,41.27,83.04,11.51,0.00,37.83,-8.81,122.58,1130,1418,1442,1194,1298,1500,1511,10729,810
170677,1,-68.14,45.38,-7.19,-1.786,1.255,1.808,2.12,-12.71,0.00,0.00,-2.12,12.71,0.00,-6.88,44.13,61.26,-1.25,0.00,33.77,-13.20,40.75,1130,1418,1442,1194,1298,1500,1511,10721,810
170689,1,-57.86,22.94,-6.30,-0.647,1.978,0.985,6.95,-4.14,0.00,0.00,-6.95,4.14,0.00,-23.78,14.14,34.08,-8.80,0.00,28.81,-3.80,32.78,1130,1418,1442,1194,1302,1500,1509,10688,810
170701,1,-31.03,38.46,-4.54,-0.876,3.203,1.434,-6.21,3.95,0.00,1.98,6.21,-1.97,0.00,22.29,-7.26,53.32,-45.71,0.00,17.63,-16.06,18.92,1130,1418,1442,1194,1290,1501,1522,10683,810
170712,1,5.97,12.49,-3.56,-0.539,4.066,1.248,-14.19,5.46,0.00,1.98,14.19,-3.48,0.00,50.23,-12.54,44.26,-25.03,0.00,0.76,-7.79,6.75,1130,1418,1442,1194,1290,1501,1522,10696,810
170724,1,33.67,22.67,-2.03,-0.574,3.367,1.615,-18.43,3.38,0.00,0.00,18.43,-3.38,0.00,65.12,-12.19,31.45,-34.86,0.00,-11.95,-14.79,-24.25,1130,1418,1442,1194,1309,1500,1511,10704,810
170737,1,55.97,29.11,-3.99,-0.576,3.246,1.983,-15.25,-0.52,0.00,0.00,15.25,0.52,0.00,53.99,1.46,-1.97,-27.65,0.00,-23.02,-15.52,22.33,1130,1418,1442,1194,1309,1500,1511,10729,810
170749,1,58.61,23.52,-5.76,-0.065,2.553,1.980,-10.06,-2.16,0.00,0.00,10.06,2.16,0.00,35.84,7.21,-22.77,-16.31,0.00,-25.97,-11.62,52.68,1197,1339,1407,1301,1311,1500,1509,10721,810
170761,1,79.73,28.67,-6.52,-0.609,1.944,1.878,-5.94,-7.47,0.00,0.00,5.94,7.47,0.00,21.44,25.82,-58.29,-2.85,0.00,-37.49,-10.51,59.90,1197,1339,1407,1301,1310,1500,1511,10721,810
170772,1,90.30,40.54,-5.59,0.054,1.592,1.833,-2.54,-8.15,0.00,0.00,2.54,8.15,0.00,9.54,28.22,-80.76,-12.32,0.00,-42.96,-10.65,39.38,1197,1339,1407,1301,1310,1500,1511,10717,810
170784,1,87.41,24.84,-5.26,0.391,1.611,1.413,0.19,-3.85,0.00,0.00,-0.19,3.85,0.00,0.02,13.16,-87.39,-11.68,0.00,-41.70,-1.65,21.32,1197,1339,1407,1301,1311,1500,1510,10708,810
170797,1,81.35,4.75,-6.81,0.616,1.366,0.985,0.78,1.56,0.00,0.00,-0.78,-1.56,0.00,-2.06,-5.78,-83.42,-10.53,0.00,-38.58,4.37,37.21,1197,1339,1407,1301,1311,1500,1510,10704,810
170809,1,66.44,-5.47,-9.04,0.072,0.346,1.169,-15.74,9.87,0.00,1.89,15.74,-7.98,0.00,55.78,-28.24,-10.66,-22.77,0.00,-28.97,2.52,77.17,1197,1339,1407,1301,1305,1500,1521,10708,810
170821,1,46.98,-7.55,-9.56,-0.012,-0.089,1.125,15.00,16.27,0.00,0.00,-15.00,-16.27,0.00,-51.84,-57.27,-98.82,-49.72,0.00,-23.48,-1.81,93.74,1197,1339,1407,1301,1318,1500,1510,10700,810
170833,1,13.89,18.26,-9.96,-0.505,-0.426,1.770,14.73,19.27,0.00,0.00,-14.73,-19.27,0.00,-50.89,-67.81,-64.78,-86.07,0.00,-8.01,-18.20,123.06,1197,1339,1407,1301,1318,1500,1510,10704,810
170844,1,-19.80,9.22,-14.35,-1.510,-0.774,1.877,7.25,9.54,0.00,0.00,-7.25,-9.54,0.00,-24.72,-33.76,-4.92,-42.99,0.00,9.07,-11.80,223.49,1500,1100,1100,1500,1318,1500,1510,10683,811
170857,1,-49.88,26.37,-14.72,-1.885,-0.729,1.462,-0.53,-6.47,0.00,0.00,0.53,6.47,0.00,2.51,22.27,52.39,-4.11,0.00,25.74,-13.57,240.24,1500,1100,1100,1500,1318,1500,1510,10663,811
170869,1,-57.23,43.49,-13.47,-1.509,-0.129,1.150,-2.35,-12.63,0.00,3.60,2.35,16.23,0.00,8.90,56.45,66.13,12.96,0.00,30.93,-17.76,218.25,1500,1100,1100,1500,1289,1500,1540,10692,811
170881,1,-74.78,53.88,-11.17,-2.058,0.916,1.776,-0.58,-11.57,0.00,0.00,0.58,11.57,0.00,2.70,40.13,77.48,-13.74,0.00,39.09,-21.17,161.11,1500,1100,1100,1500,1319,1500,1510,10692,811
170893,1,-49.55,117.34,-12.19,-2.368,2.188,2.418,3.10,-10.98,0.00,0.00,-3.10,10.98,0.00,-10.17,38.10,39.38,-79.24,0.00,25.88,-43.09,161.34,1500,1100,1100,1500,1319,1500,1510,10704,811
170905,1,-20.70,119.20,-12.81,-2.491,2.047,2.897,1.49,-13.04,0.00,0.00,-1.49,13.04,0.00,-4.52,45.31,16.17,-73.89,0.00,12.27,-38.36,153.69,1500,1100,1100,1500,1324,1500,1510,10688,811
170917,1,-4.36,79.51,-13.87,-1.434,1.306,1.910,0.72,-12.86,0.00,0.00,-0.72,12.86,0.00,-1.85,44.71,2.52,-34.80,0.00,4.12,-16.89,151.70,1500,1100,1100,1500,1324,1501,1510,10692,811
170929,1,23.65,46.81,-12.85,-0.444,0.722,1.354,0.05,-8.28,0.00,0.00,-0.05,8.28,0.00,0.51,28.70,-23.14,-18.11,0.00,-9.90,-6.64,127.81,1500,1100,1100,1500,1328,1501,1507,10675,811
170941,1,23.50,58.92,-11.23,-1.084,0.015,2.512,5.74,-2.38,0.00,0.00,-5.74,2.38,0.00,-19.42,8.04,-42.92,-50.88,0.00,-12.08,-16.97,103.86,1219,1457,1401,1227,1326,1501,1509,10675,806
170952,1,16.99,43.35,-9.54,-1.068,-0.454,2.572,3.15,-5.03,0.00,0.00,-3.15,5.03,0.00,-10.36,17.30,-27.35,-26.05,0.00,-10.12,-10.35,70.57,1219,1457,1401,1227,1326,1501,1509,10683,806
170964,1,1.39,34.88,-11.05,-2.533,-0.808,3.318,2.72,-14.53,0.00,0.00,-2.72,14.53,0.00,-8.84,50.56,-10.23,15.69,0.00,-3.18,-4.30,109.87,1219,1457,1401,1227,1329,1501,1509,10671,806
170977,1,-13.31,-14.06,-11.27,-1.554,-1.250,1.821,-3.22,-21.46,0.00,0.00,3.22,21.46,0.00,11.94,74.84,25.25,88.89,0.00,4.10,19.68,119.29,1219,1457,1401,1227,1329,1501,1509,10667,806
170989,1,-19.82,-55.30,-9.16,-0.170,-2.221,0.541,-10.61,-17.21,0.00,0.00,10.61,17.21,0.00,37.80,60.01,57.62,115.31,0.00,7.86,33.53,88.18,1219,1457,1401,1227,1334,1501,1507,10667,806
171001,1,-23.46,-45.14,-10.50,0.170,-2.975,1.035,-5.44,-7.96,0.00,0.00,5.44,7.96,0.00,19.67,27.65,43.13,72.78,0.00,8.19,21.18,108.19,1219,1457,1401,1227,1332,1501,1509,10663,806
171012,1,-23.11,-49.69,-9.24,0.321,-3.241,1.230,-2.22,-4.68,0.00,0.00,2.22,4.68,0.00,8.41,16.15,31.52,65.84,0.00,5.54,21.69,39.17,1219,1457,1401,1227,1332,1501,1509,10675,806
171024,1,-7.61,-43.94,-10.55,-0.192,-2.547,1.720,3.36,-0.39,0.00,0.00,-3.36,0.39,0.00,-11.14,1.15,-3.52,45.10,0.00,-1.95,15.28,41.63,1219,1457,1401,1227,1335,1503,1507,10679,806
171037,1,10.27,-58.02,-8.65,-0.209,-2.190,1.378,1.10,-3.89,0.00,0.00,-1.10,3.89,0.00,-3.24,13.40,-13.51,71.42,0.00,-9.41,21.05,-29.14,1219,1457,1401,1227,1335,1503,1507,10675,806
171049,1,25.04,-77.95,-7.02,0.109,-1.726,0.923,-2.65,-6.16,0.00,0.00,2.65,6.16,0.00,9.87,21.36,-15.16,99.30,0.00,-14.45,26.47,-80.87,1404,1326,1252,1374,1339,1503,1506,10683,810
171061,1,32.97,-94.84,-3.74,1.333,-1.176,-0.285,-20.67,3.28,0.00,0.00,20.67,-3.28,0.00,72.96,-11.68,39.99,83.16,0.00,-14.40,28.03,-153.01,1404,1326,1252,1374,1339,1503,1507,10675,810
171072,1,34.31,-93.87,0.02,2.557,-0.739,-0.851,-40.39,12.80,0.00,0.00,40.39,-12.80,0.00,141.98,-45.01,107.67,48.86,0.00,-11.30,22.29,-216.46,1404,1326,1252,1374,1339,1503,1507,10654,810
171084,5,47.31,-69.34,0.40,2.504,-0.496,-0.510,-49.67,19.89,0.00,2.70,49.67,-17.19,0.00,375.00,-60.38,327.69,8.95,0.00,-8.14,7.88,-209.31,1404,1326,1252,1374,1321,1502,1530,10650,810
171097,1,61.23,-16.09,-4.28,1.260,-0.031,0.670,-26.53,17.13,0.00,2.70,26.53,-14.43,0.00,93.55,-50.74,32.32,-34.65,0.00,-26.16,-13.70,-102.44,1404,1326,1252,1374,1321,1502,1530,10650,810
171109,1,51.67,0.46,-10.44,-0.745,1.956,2.359,-5.88,-0.21,0.00,0.00,5.88,0.21,0.00,21.28,0.51,-30.39,0.05,0.00,-24.49,-18.87,24.34,1404,1326,1252,1374,1346,1502,1505,10671,810
171121,1,73.61,-10.51,-9.44,0.257,0.987,2.032,-1.40,-0.77,0.00,0.00,1.40,0.77,0.00,5.61,2.47,-67.99,12.97,0.00,-35.74,-16.62,16.63,1404,1326,1252,1374,1340,1502,1512,10671,810
171133,1,67.28,-20.87,-9.91,-0.440,0.924,2.060,-3.73,-6.55,0.00,0.00,3.73,6.55,0.00,13.77,22.71,-53.51,43.57,0.00,-32.01,-9.56,33.40,1404,1326,1252,1374,1340,1502,1512,10667,810
171145,1,46.28,-67.32,-12.67,2.094,2.014,-0.386,9.84,-0.11,0.00,0.00,-9.84,0.11,0.00,-33.73,0.16,-80.02,67.49,0.00,-24.03,13.14,75.73,1350,1332,1408,1290,1345,1502,1507,10675,810
171157,1,41.22,-42.37,-15.86,1.410,2.222,0.552,8.39,5.73,0.00,0.00,-8.39,-5.73,0.00,-28.65,-20.28,-69.86,22.09,0.00,-20.33,-11.25,112.22,1350,1332,1408,1290,1345,1502,1507,10683,810
171169,1,38.74,-41.28,-20.09,1.266,2.030,0.622,8.45,8.32,0.00,0.00,-8.45,-8.32,0.00,-28.86,-29.34,-67.60,11.94,0.00,-18.96,-14.41,173.87,1350,1332,1408,1290,1346,1502,1505,10658,810
171181,1,32.77,-31.30,-20.20,0.452,1.608,1.329,8.56,9.62,0.00,0.00,-8.56,-9.62,0.00,-29.26,-33.90,-62.03,-2.59,0.00,-16.54,-22.21,170.18,1350,1332,1408,1290,1345,1502,1507,10642,810
171192,1,20.12,-25.73,-19.64,0.146,1.074,1.621,6.68,8.33,0.00,0.00,-6.68,-8.33,0.00,-22.67,-29.38,-42.80,-3.65,0.00,-10.43,-22.87,157.10,1350,1332,1408,1290,1345,1502,1507,10646,810
171204,1,14.73,-26.90,-17.63,-0.954,0.541,2.103,5.00,-4.21,0.00,0.00,-5.00,4.21,0.00,-16.80,14.49,-31.53,41.39,0.00,-7.02,-15.86,137.58,1350,1332,1408,1290,1345,1502,1507,10633,810
171217,1,7.02,-56.97,-14.54,-0.338,-0.311,1.180,-2.53,-11.17,0.00,0.00,2.53,11.17,0.00,9.53,38.85,2.51,95.83,0.00,-1.68,2.25,113.45,1350,1332,1408,1290,1345,1502,1507,10633,810
171229,1,2.40,-34.81,-16.91,0.022,-1.050,1.525,-0.83,-5.43,0.00,2.25,0.83,7.68,0.00,3.57,26.68,1.17,61.49,0.00,0.36,-7.76,187.10,1350,1332,1408,1290,1327,1502,1525,10613,810
171241,1,4.72,-0.64,-15.88,-1.606,-1.216,2.869,7.10,-4.41,0.00,0.00,-7.10,4.41,0.00,-24.20,15.23,-28.91,15.87,0.00,-3.06,-21.63,173.75,1154,1500,1494,1190,1345,1502,1507,10633,810
171252,1,9.46,-36.94,-8.82,-3.412,-1.268,3.393,7.12,-19.94,0.00,0.00,-7.12,19.94,0.00,-24.29,69.58,-33.76,106.53,0.00,-6.47,2.03,24.93,1154,1500,1494,1190,1345,1502,1507,10621,810
171264,1,23.85,-165.34,-4.11,1.046,-1.472,-0.267,-23.70,-6.96,0.00,0.00,23.70,6.96,0.00,83.58,24.18,59.73,189.51,0.00,-8.72,56.92,-75.93,1154,1500,1494,1190,1345,1502,1507,10621,810
171277,1,29.42,-148.79,-1.99,2.795,-1.430,-1.157,-33.81,11.28,0.00,0.00,33.81,-11.28,0.00,118.99,-39.65,89.57,109.14,0.00,-9.23,39.89,-140.93,1154,1500,1494,1190,1345,1502,1507,10629,810
171289,1,31.01,-89.39,-6.27,1.071,-0.772,0.573,-18.89,16.19,0.00,0.00,18.89,-16.19,0.00,66.81,-56.85,35.80,32.54,0.00,-12.18,10.56,-69.61,1154,1500,1494,1190,1345,1502,1507,10658,810
171301,1,37.16,-68.96,-4.24,0.276,-0.272,0.776,-7.96,7.80,0.00,2.79,7.96,-5.01,0.00,28.56,-17.74,-8.61,51.22,0.00,-16.00,5.02,-110.65,1154,1500,1494,1190,1321,1496,1531,10663,810
171313,1,37.83,-92.95,-1.24,0.440,-0.609,0.479,-12.26,4.37,0.00,2.79,12.26,-1.58,0.00,43.62,-5.74,5.79,87.21,0.00,-13.94,14.82,-149.23,1154,1500,1494,1190,1321,1496,1531,10679,810
171325,1,34.75,-106.91,-1.77,2.681,-0.805,-1.375,-37.64,14.62,0.00,0.00,37.64,-14.62,0.00,132.46,-51.37,97.71,55.54,0.00,-6.73,17.55,-126.96,1154,1500,1494,1190,1335,1501,1518,10683,810
171337,1,46.34,-49.08,-1.40,1.539,-0.743,0.398,-30.52,15.69,0.00,0.00,30.52,-15.69,0.00,107.55,-55.14,61.21,-6.06,0.00,-11.29,-10.35,-131.90,1154,1500,1494,1190,1335,1502,1518,10688,810
171349,1,65.79,-42.17,-4.30,1.367,-0.837,0.815,-25.38,15.14,0.00,0.00,25.38,-15.14,0.00,89.59,-53.21,23.80,-11.04,0.00,-18.94,-11.73,-84.04,1311,1385,1357,1327,1345,1502,1507,10696,810
171361,1,79.14,-41.07,-3.72,0.918,-0.577,0.533,-25.79,14.67,0.00,0.00,25.79,-14.67,0.00,91.06,-51.60,11.92,-10.53,0.00,-22.70,-9.02,-112.27,1311,1385,1357,1327,1345,1502,1507,10692,810
171372,1,74.16,-6.22,-0.34,0.311,-0.053,1.325,-15.88,7.14,0.00,0.00,15.88,-7.14,0.00,56.37,-25.23,-17.79,-19.01,0.00,-20.90,-22.79,-181.99,1311,1385,1357,1327,1345,1502,1507,10667,810
171384,1,82.53,-32.62,3.40,1.804,2.079,0.126,1.67,11.11,0.00,0.00,-1.67,-11.11,0.00,-5.01,-39.15,-87.54,-6.53,0.00,-27.47,-7.42,-207.11,1311,1385,1357,1327,1345,1501,1508,10650,810
171397,1,75.16,3.13,2.11,-1.765,2.626,1.390,4.48,-0.51,0.00,0.00,-4.48,0.51,0.00,-14.86,1.53,-90.02,-1.60,0.00,-25.54,-19.09,-160.13,1311,1385,1357,1327,1345,1501,1508,10617,810
171409,1,39.39,-11.79,-0.57,0.114,2.723,0.602,6.90,-3.97,0.00,0.00,-6.90,3.97,0.00,-23.34,13.65,-62.72,25.44,0.00,-9.29,-7.84,-28.76,1311,1385,1357,1327,1345,1501,1509,10592,810
171421,1,24.96,-8.02,-6.52,0.648,3.098,0.377,-0.48,12.95,0.00,2.16,0.48,-10.79,0.00,2.50,-38.04,-22.45,-30.02,0.00,-2.09,-16.74,128.34,1311,1385,1357,1327,1330,1501,1524,10583,810
171432,1,9.67,39.85,-8.06,-0.501,2.549,1.808,-8.08,18.73,0.00,2.16,8.08,-16.57,0.00,29.12,-58.29,19.45,-98.14,0.00,5.42,-37.80,159.49,1311,1385,1357,1327,1330,1501,1524,10596,810
171444,1,-5.33,3.59,-0.17,0.371,1.442,1.218,-24.56,25.84,0.00,0.00,24.56,-25.84,0.00,86.85,-90.76,92.18,-94.34,0.00,13.81,-21.63,22.40,1242,1480,1466,1196,1346,1501,1508,10588,811
171457,1,3.23,21.98,4.20,0.075,0.655,1.484,-33.81,31.59,0.00,0.00,33.81,-31.59,0.00,119.26,-110.91,116.02,-132.89,0.00,9.57,-27.90,-67.19,1242,1480,1466,1196,1346,1501,1508,10600,811
171469,1,34.02,38.07,12.12,-2.317,0.214,2.606,-15.49,8.75,0.00,0.00,15.49,-8.75,0.00,55.15,-31.00,21.14,-69.07,0.00,-8.34,-21.47,-251.85,1242,1480,1466,1196,1347,1501,1507,10629,811
171481,1,46.15,11.92,20.10,-2.109,0.326,2.107,-6.00,-15.27,0.00,0.00,6.00,15.27,0.00,21.95,53.08,-24.20,41.16,0.00,-16.65,2.84,-350.00,1242,1480,1466,1196,1347,1501,1507,10646,811
171492,1,43.82,-17.50,20.35,-0.105,0.696,1.108,-1.14,-21.16,0.00,0.00,1.14,21.16,0.00,4.97,73.71,-38.85,91.21,0.00,-17.77,15.60,-350.00,1242,1480,1466,1196,1347,1501,1507,10642,811
171504,1,30.03,-14.13,6.80,1.497,1.427,0.983,-4.49,-6.50,0.00,0.00,4.49,6.50,0.00,16.68,22.42,-13.35,36.55,0.00,-11.11,0.08,-118.16,1242,1480,1466,1196,1347,1501,1507,10650,811
171517,1,17.52,11.69,-7.28,0.557,2.401,1.458,-22.31,16.42,0.00,0.00,22.31,-16.42,0.00,79.11,-57.82,61.59,-69.51,0.00,-2.50,-22.68,122.06,1242,1480,1466,1196,1347,1501,1507,10658,811
171529,1,-2.86,23.18,-13.82,-0.447,3.260,1.323,-24.07,15.85,0.00,0.00,24.07,-15.85,0.00,85.32,-55.85,88.17,-79.04,0.00,6.77,-25.45,209.26,1242,1480,1466,1196,1345,1501,1509,10650,811
171541,1,-27.87,31.48,-14.05,-0.852,3.447,1.299,-24.30,14.90,0.00,0.00,24.30,-14.90,0.00,86.14,-52.53,114.01,-84.01,0.00,18.01,-26.51,187.23,1116,1500,1500,1204,1347,1501,1507,10650,810
171552,1,-43.34,39.43,-12.30,-1.819,2.584,1.938,-21.08,10.87,0.00,0.00,21.08,-10.87,0.00,74.91,-38.44,118.25,-77.87,0.00,24.40,-25.24,141.40,1116,1500,1500,1204,1347,1501,1507,10667,810
171564,1,-47.32,34.86,-7.25,-2.799,1.624,2.476,-15.11,6.64,0.00,0.00,15.11,-6.64,0.00,54.06,-23.64,101.38,-58.50,0.00,24.77,-20.35,43.85,1116,1500,1500,1204,1347,1501,1507,10638,810
171577,1,-36.98,-32.51,-1.43,-1.439,0.830,1.555,6.04,4.35,0.00,0.00,-6.04,-4.35,0.00,-19.97,-15.65,17.01,16.85,0.00,16.70,9.75,-64.33,1116,1500,1500,1204,1347,1501,1507,10633,810
171589,5,-22.77,-80.56,2.46,1.537,0.616,-0.563,46.52,29.20,0.00,1.89,-46.52,-27.31,0.00,-375.00,-96.04,-352.23,-15.48,0.00,-4.07,22.72,-145.28,1116,1500,1500,1204,1333,1501,1521,10633,810
171601,5,-9.01,-35.21,6.46,0.839,0.586,-0.362,51.93,41.97,0.00,0.00,-51.93,-41.97,0.00,-375.00,-147.37,-365.99,-112.16,0.00,-11.01,0.13,-233.70,1116,1500,1500,1204,1347,1501,1507,10621,810
171612,1,0.46,-11.88,4.50,0.270,1.045,0.098,42.56,18.69,0.00,0.00,-42.56,-18.69,0.00,-147.90,-65.95,-148.36,-54.06,0.00,-7.21,-0.68,-203.13,1116,1500,1500,1204,1347,1501,1507,10621,810
171624,1,6.70,8.63,1.21,-0.044,1.331,0.838,32.90,0.89,0.00,2.61,-32.90,1.72,0.00,-114.12,5.51,-120.82,-3.12,0.00,-9.00,-6.18,-138.34,1116,1500,1500,1204,1320,1507,1529,10604,810
171637,1,-3.04,18.84,-2.35,-0.355,1.498,1.153,23.60,-2.89,0.00,2.61,-23.60,5.50,0.00,-81.62,18.75,-78.58,-0.09,0.00,-2.62,-11.84,-49.57,1116,1500,1500,1204,1320,1501,1529,10588,810
171649,1,-21.10,31.55,-5.85,-1.200,1.045,1.356,7.92,-4.50,0.00,0.00,-7.92,4.50,0.00,-26.73,15.24,-5.63,-16.31,0.00,8.40,-18.60,60.89,1167,1497,1500,1175,1346,1501,1509,10625,811
171661,1,-35.13,14.35,-11.45,-0.856,0.577,0.439,0.19,-0.53,0.00,3.69,-0.19,4.22,0.00,0.33,14.27,35.46,-0.07,0.00,16.13,-9.85,197.00,1167,1497,1500,1175,1319,1500,1541,10642,811
171672,1,-42.52,18.57,-13.18,-0.462,0.274,0.345,7.26,1.01,0.00,3.69,-7.26,2.68,0.00,-24.44,8.88,18.08,-9.69,0.00,19.13,-12.87,234.20,1167,1497,1500,1175,1319,1500,1541,10663,811
171684,1,-51.59,42.38,-12.50,-1.444,0.291,1.645,3.14,3.64,0.00,3.69,-3.14,0.05,0.00,-10.00,-0.35,41.59,-42.72,0.00,24.02,-24.47,211.27,1167,1497,1500,1175,1319,1500,1541,10683,811
171697,1,-100.63,34.48,-0.27,-0.816,-0.270,2.499,-2.22,8.68,0.00,3.69,2.22,-4.99,0.00,8.76,-18.00,109.39,-52.48,0.00,46.33,-21.27,-27.10,1167,1497,1500,1175,1319,1500,1541,10671,811
171709,1,-120.33,8.99,17.39,-0.348,0.406,0.477,12.25,11.23,0.00,0.00,-12.25,-11.23,0.00,-41.87,-39.86,78.46,-48.85,0.00,47.97,-8.77,-249.38,1167,1497,1500,1175,1352,1500,1508,10683,811
171721,1,-94.23,20.79,18.33,-0.979,-1.364,1.223,-2.21,7.86,0.00,3.69,2.21,-4.17,0.00,8.72,-15.16,102.95,-35.95,0.00,31.88,-11.77,-191.60,1167,1497,1500,1175,1325,1500,1541,10667,811
171732,1,-95.37,-23.00,17.21,0.309,-0.686,0.277,-16.56,18.03,0.00,3.69,16.56,-14.34,0.00,58.98,-50.75,154.34,-27.76,0.00,31.20,8.74,-109.68,1167,1497,1500,1175,1325,1500,1541,10663,811
171744,1,-20.03,17.75,-0.42,0.261,-0.714,1.316,-16.62,17.60,0.00,3.69,16.62,-13.91,0.00,59.22,-49.28,79.25,-67.03,0.00,0.21,-2.39,177.00,1160,1500,1402,1212,1326,1500,1541,10654,811
171757,1,0.65,38.78,-16.24,-1.032,1.216,0.523,4.56,10.66,0.00,3.69,-4.56,-6.97,0.00,-14.90,-24.99,-15.55,-63.78,0.00,-3.86,-5.21,315.69,1160,1500,1402,1212,1326,1500,1541,10663,811
171769,1,-5.59,101.31,-12.26,-1.467,-0.558,1.535,-7.32,3.95,0.00,0.00,7.32,-3.95,0.00,26.66,-14.45,32.25,-115.76,0.00,6.88,-27.78,56.57,1160,1500,1402,1212,1359,1500,1507,10658,811
171781,1,-12.77,131.96,-26.85,-3.318,0.431,3.054,-3.10,-19.36,0.00,3.69,3.10,23.05,0.00,11.92,80.05,24.70,-51.91,0.00,15.29,-32.13,281.66,1160,1500,1402,1212,1327,1500,1541,10650,811
171793,1,5.03,64.67,-23.56,2.241,-1.522,-0.142,-14.39,-1.48,0.00,3.69,14.39,5.17,0.00,51.42,17.53,46.39,-47.15,0.00,8.55,4.70,204.28,1160,1500,1402,1212,1327,1500,1541,10658,811
171804,1,15.65,51.24,-18.27,1.540,-1.353,-0.474,-31.53,32.54,0.00,3.60,31.53,-28.94,0.00,111.45,-101.89,95.79,-153.13,0.00,3.60,-0.74,186.29,1160,1500,1402,1212,1328,1500,1540,10667,811
171817,1,13.24,51.96,-5.69,-0.557,-1.731,1.051,-14.13,12.90,0.00,3.60,14.13,-9.30,0.00,50.53,-33.18,37.30,-85.14,0.00,1.54,-3.87,-11.14,1160,1500,1402,1212,1328,1500,1540,10654,811
171829,1,48.72,6.01,3.21,2.407,-1.241,-0.623,-17.76,33.04,0.00,0.00,17.76,-33.04,0.00,63.26,-116.30,14.54,-122.31,0.00,-14.32,7.73,-148.73,1160,1500,1402,1212,1360,1500,1509,10667,811
171841,5,73.50,-17.90,10.54,3.552,-1.044,-1.779,-53.75,48.66,0.00,3.69,53.75,-44.97,0.00,375.00,-375.00,301.50,-357.10,0.00,-12.39,1.76,-297.59,1500,1100,1100,1500,1330,1500,1541,10679,811
171852,5,39.05,65.84,22.45,2.672,-1.435,-0.507,-46.09,58.11,0.00,3.69,46.09,-54.42,0.00,375.00,-375.00,335.95,-440.84,0.00,2.45,-35.41,-350.00,1500,1100,1100,1500,1330,1500,1541,10688,811
171864,5,34.41,61.98,18.69,0.915,-0.598,-0.260,-6.23,56.71,0.00,3.69,6.23,-53.02,0.00,22.98,-375.00,-11.44,-436.98,0.00,-11.24,-32.95,-350.00,1500,1100,1100,1500,1333,1500,1541,10671,811
171877,5,45.34,63.77,21.75,2.287,-0.183,-1.124,-45.35,40.46,0.00,3.69,45.35,-36.77,0.00,375.00,-129.59,329.66,-193.36,0.00,-5.54,-16.50,-350.00,1500,1100,1100,1500,1333,1500,1541,10663,811
171889,5,39.63,56.33,15.14,1.963,-0.269,0.020,-45.61,41.79,0.00,3.69,45.61,-38.10,0.00,375.00,-134.25,335.37,-190.59,0.00,-4.09,-16.69,-206.29,1500,1100,1100,1500,1333,1500,1541,10650,811
171901,1,26.46,73.90,10.74,1.510,0.428,0.532,-22.79,40.25,0.00,3.60,22.79,-36.65,0.00,81.04,-129.25,54.58,-203.15,0.00,-9.26,-26.16,-107.09,1500,1100,1100,1500,1336,1500,1540,10650,811
171912,1,20.50,86.34,8.89,0.446,0.928,1.248,-14.93,39.68,0.00,3.60,14.93,-36.08,0.00,53.55,-127.27,33.05,-213.61,0.00,-6.73,-32.81,-77.02,1500,1100,1100,1500,1336,1500,1540,10646,811
171925,1,3.31,72.44,5.37,-0.450,1.633,1.506,-34.13,35.78,0.00,3.51,34.13,-32.27,0.00,120.80,-114.01,117.49,-186.45,0.00,3.71,-24.39,-9.27,1500,1100,1100,1500,1336,1501,1539,10629,811
171937,1,-23.46,61.14,2.27,-0.029,2.025,0.768,9.75,33.28,0.00,3.51,-9.75,-29.77,0.00,-32.79,-105.28,-9.33,-166.42,0.00,10.02,-15.44,49.92,1500,1100,1100,1500,1336,1501,1539,10646,811
171949,1,-58.03,107.63,0.18,-0.191,0.936,1.132,12.36,21.51,0.00,0.00,-12.36,-21.51,0.00,-41.92,-76.39,16.10,-184.02,0.00,25.10,-30.87,101.80,1275,1419,1451,1311,1364,1501,1513,10654,810
171961,1,-86.96,102.26,9.32,-0.549,-0.079,1.755,1.19,12.76,0.00,3.51,-1.19,-9.25,0.00,-2.81,-33.53,84.15,-135.79,0.00,37.03,-24.12,-61.61,1275,1419,1451,1311,1339,1500,1539,10654,810
171972,1,-74.22,49.28,3.00,-0.941,-1.318,1.249,-7.76,10.45,0.00,3.51,7.76,-6.94,0.00,28.52,-25.43,102.73,-74.71,0.00,29.69,-1.11,77.01,1275,1419,1451,1311,1339,1500,1539,10633,810
171984,1,-59.34,47.78,2.70,-1.397,-2.687,2.324,-19.56,5.81,0.00,3.51,19.56,-2.30,0.00,69.86,-9.21,129.20,-57.00,0.00,22.86,-1.74,64.57,1275,1419,1451,1311,1340,1500,1539,10633,810
171997,1,-13.64,-0.76,3.20,-0.247,-2.751,1.389,-25.32,9.29,0.00,3.51,25.32,-5.78,0.00,90.03,-21.40,103.67,-20.64,0.00,1.05,18.88,41.69,1275,1419,1451,1311,1340,1500,1539,10604,810
172009,1,16.39,-22.09,4.81,1.519,-1.805,-0.294,-25.32,9.42,0.00,0.00,25.32,-9.42,0.00,90.07,-34.14,73.68,-12.05,0.00,-13.65,28.78,3.15,1275,1419,1451,1311,1372,1500,1508,10604,810
172021,1,15.29,25.17,8.69,0.331,-0.877,0.224,-22.59,5.77,0.00,3.51,22.59,-2.26,0.00,80.50,-9.09,65.21,-34.25,0.00,-14.84,4.07,-67.24,1275,1419,1451,1311,1341,1500,1539,10596,810
172033,1,-6.90,54.04,12.10,1.313,-0.021,0.092,-15.01,15.95,0.00,3.51,15.01,-12.44,0.00,54.02,-44.73,60.92,-98.77,0.00,-6.41,-10.93,-109.59,1275,1419,1451,1311,1341,1500,1539,10600,810
172044,1,-37.31,20.49,9.08,-0.905,0.525,1.599,-12.02,2.45,0.00,0.00,12.02,-2.45,0.00,43.55,-9.75,80.85,-30.25,0.00,6.54,3.81,-29.43,1467,1299,1277,1417,1365,1500,1519,10596,833
172057,1,28.64,40.84,-15.43,2.325,2.909,-1.405,13.29,4.91,0.00,0.00,-13.29,-4.91,0.00,-45.05,-18.39,-73.69,-59.22,0.00,-19.16,-3.64,350.00,1467,1299,1277,1417,1365,1504,1519,10600,833
172069,1,-12.65,-19.36,-9.00,1.812,-0.880,-1.448,-21.09,30.18,0.00,0.00,21.09,-30.18,0.00,75.31,-106.86,87.95,-87.50,0.00,12.10,16.78,156.92,1467,1299,1277,1417,1375,1504,1505,10604,833
172081,1,23.01,55.56,-6.44,-1.286,-1.747,3.153,-34.21,12.18,0.00,0.00,34.21,-12.18,0.00,121.26,-43.89,98.25,-99.45,0.00,2.13,-13.20,37.07,1467,1299,1277,1417,1375,1504,1506,10600,833
