time_ms,flags,gyro_x,gyro_y,gyro_z,accel_x,accel_y,accel_z,roll,pitch,angle_sp_roll,angle_sp_pitch,angle_err_roll,angle_err_pitch,angle_i_roll,rate_sp_roll,rate_sp_pitch,rate_err_roll,rate_err_pitch,rate_i_roll,pid_roll,pid_pitch,pid_yaw,m1,m2,m3,m4,rc_thr,rc_roll,rc_pitch,battery_mv,loop_us
184289,9,0.07,-0.03,-0.06,0.021,-0.063,1.000,-3.84,3.53,0.00,9.63,3.84,6.10,0.00,13.43,21.34,13.36,21.37,0.00,0.50,0.87,1.02,1000,1000,1000,1000,1000,1500,1607,11129,810
184301,9,0.02,-0.03,-0.06,0.022,-0.064,0.997,-3.82,3.56,0.00,0.00,3.82,-3.56,0.00,13.38,-12.45,13.37,-12.42,0.00,0.52,-0.48,0.78,1000,1000,1000,1000,1019,1500,1509,11129,810
184312,9,0.02,0.08,0.00,0.023,-0.061,0.999,-3.82,3.55,0.00,0.00,3.82,-3.55,0.00,13.36,-12.43,13.34,-12.52,0.00,0.52,-0.53,-0.42,1000,1000,1000,1000,1019,1500,1509,11129,810
184324,9,0.02,0.03,0.00,0.026,-0.065,0.994,-3.82,3.58,0.00,2.43,3.82,-1.15,0.00,13.36,-4.02,13.34,-4.04,0.00,0.52,-0.16,-0.22,1000,1000,1000,1000,1000,1501,1527,11129,810
184336,9,0.02,0.03,-0.00,0.024,-0.065,1.001,-3.80,3.58,0.00,2.43,3.80,-1.15,0.00,13.31,-4.01,13.29,-4.05,0.00,0.52,-0.15,-0.24,1000,1000,1000,1000,1000,1499,1527,11129,810
184349,9,0.02,0.08,0.00,0.023,-0.066,1.006,-3.85,3.53,0.00,0.00,3.85,-3.53,0.00,13.48,-12.35,13.46,-12.43,0.00,0.53,-0.52,-0.16,1100,1100,1100,1100,1021,1499,1508,11129,811
184361,9,-0.04,0.09,0.06,0.025,-0.063,1.002,-3.86,3.57,0.00,0.00,3.86,-3.57,0.00,13.52,-12.49,13.56,-12.58,0.00,0.56,-0.52,-0.89,1100,1100,1100,1100,1021,1500,1507,11129,811
184372,9,0.08,0.08,-0.06,0.022,-0.063,0.998,-3.84,3.51,0.00,0.00,3.84,-3.51,0.00,13.43,-12.29,13.35,-12.37,0.00,0.50,-0.51,1.32,1100,1100,1100,1100,1021,1500,1507,11125,811
184384,9,-0.03,0.20,-0.18,0.017,-0.057,0.996,-3.74,3.43,0.00,0.00,3.74,-3.43,0.00,13.11,-12.02,13.14,-12.22,0.00,0.54,-0.55,2.45,1100,1100,1100,1100,1020,1500,1508,11116,811
184396,9,-0.04,0.03,0.12,0.022,-0.058,0.996,-3.72,3.45,0.00,0.00,3.72,-3.45,0.00,13.04,-12.08,13.08,-12.11,0.00,0.53,-0.47,-2.77,1100,1100,1100,1100,1020,1500,1508,11116,811
184409,9,-0.15,-0.03,0.13,0.026,-0.061,0.998,-3.73,3.52,0.00,0.00,3.73,-3.52,0.00,13.04,-12.34,13.19,-12.31,0.00,0.58,-0.46,-1.25,1100,1100,1100,1100,1020,1500,1508,11116,811
184421,9,-0.03,0.02,-0.12,0.022,-0.062,0.999,-3.78,3.46,0.00,0.00,3.78,-3.46,0.00,13.22,-12.13,13.25,-12.15,0.00,0.54,-0.49,2.97,1100,1100,1100,1100,1020,1500,1508,11120,811
184432,9,0.02,0.09,-0.01,0.028,-0.064,1.001,-3.86,3.53,0.00,0.00,3.86,-3.53,0.00,13.52,-12.34,13.49,-12.43,0.00,0.53,-0.52,-0.36,1100,1100,1100,1100,1020,1500,1508,11116,811
184444,9,-0.10,0.15,0.07,0.024,-0.070,1.002,-3.94,3.55,0.00,0.00,3.94,-3.55,0.00,13.80,-12.41,13.89,-12.56,0.00,0.59,-0.55,-1.12,1100,1100,1100,1100,1020,1500,1508,11120,811
184456,9,0.02,0.08,0.01,0.023,-0.065,0.993,-3.92,3.45,0.00,0.00,3.92,-3.45,0.00,13.70,-12.06,13.69,-12.14,0.00,0.52,-0.51,0.81,1100,1100,1100,1100,1020,1500,1508,11120,811
184469,9,0.08,0.03,-0.24,0.022,-0.064,1.005,-3.92,3.50,0.00,0.00,3.92,-3.50,0.00,13.73,-12.27,13.65,-12.29,0.00,0.51,-0.49,4.42,1100,1100,1100,1100,1010,1500,1518,11116,811
184481,9,-0.15,-0.13,-0.29,0.050,-0.058,0.979,-3.81,3.72,0.00,0.00,3.81,-3.72,0.00,13.33,-13.04,13.48,-12.91,0.00,0.61,-0.42,4.35,1100,1100,1100,1100,1020,1500,1508,11112,811
184492,9,-0.23,0.26,0.06,0.035,-0.068,0.990,-3.70,4.19,0.00,0.00,3.70,-4.19,0.00,12.96,-14.66,13.19,-14.91,0.00,0.61,-0.79,-2.42,1100,1100,1100,1100,1020,1500,1508,11104,811
184504,9,0.31,-0.05,-0.25,0.022,-0.064,0.993,-3.66,4.22,0.00,0.00,3.66,-4.22,0.00,12.80,-14.76,12.49,-14.70,0.00,0.38,-0.67,2.92,1100,1100,1100,1100,1020,1500,1508,11095,811
184516,9,0.10,-0.01,0.13,0.041,-0.053,0.970,-3.56,4.36,0.00,0.00,3.56,-4.36,0.00,12.45,-15.25,12.36,-15.25,0.00,0.46,-0.74,-4.09,1100,1100,1100,1100,1020,1500,1508,11100,811
184529,9,-0.32,0.18,0.10,0.058,-0.086,1.001,-3.80,4.20,0.00,0.00,3.80,-4.20,0.00,13.30,-14.70,13.62,-14.88,0.00,0.70,-0.77,-0.33,1100,1100,1100,1100,1020,1500,1508,11087,811
184541,9,-0.09,-0.53,-0.29,0.113,-0.038,0.942,-3.84,4.89,0.00,0.00,3.84,-4.89,0.00,13.42,-17.10,13.52,-16.57,0.00,0.58,-0.50,6.87,1100,1100,1100,1100,1020,1500,1508,11079,811
184553,9,-0.36,1.13,-0.12,0.020,-0.041,1.009,-3.68,5.07,0.00,0.00,3.68,-5.07,0.00,12.89,-17.73,13.24,-18.86,0.00,0.71,-1.38,1.46,1100,1100,1100,1100,1020,1500,1508,11070,811
184564,9,0.12,2.44,0.35,-0.100,-0.106,1.135,-4.40,2.78,0.00,3.51,4.40,0.73,0.00,15.41,2.55,15.29,0.11,0.00,0.55,-0.95,-7.18,1100,1100,1100,1100,1000,1501,1539,11050,811
184576,9,1.00,-2.30,0.36,0.127,-0.018,0.971,-3.36,2.72,0.00,3.51,3.36,0.79,0.00,11.76,2.76,10.76,5.06,0.00,-0.00,1.20,-5.75,1100,1100,1100,1100,1000,1501,1539,11033,811
184589,9,-0.42,1.01,0.31,0.012,-0.056,0.963,-3.19,3.02,0.00,0.00,3.19,-3.02,0.00,11.17,-10.58,11.59,-11.58,0.00,0.64,-0.93,-7.15,1100,1100,1100,1100,1017,1501,1510,11012,811
184601,9,-0.03,0.59,0.17,0.014,-0.032,0.919,-3.36,3.71,0.00,0.00,3.36,-3.71,0.00,11.74,-12.98,11.78,-13.57,0.00,0.49,-0.91,-4.66,1100,1100,1100,1100,1020,1501,1507,11012,811
184612,9,0.77,0.33,0.01,-0.017,-0.054,1.067,-3.45,3.37,0.00,0.00,3.45,-3.37,0.00,12.07,-11.79,11.30,-12.12,0.00,0.12,-0.56,0.42,1100,1100,1100,1100,1020,1501,1507,11012,811
184625,9,1.48,-2.53,-0.32,0.051,-0.043,0.959,-3.38,5.22,0.00,0.00,3.38,-5.22,0.00,11.81,-18.28,10.33,-15.75,0.00,-0.23,0.17,6.85,1100,1100,1100,1100,1021,1501,1507,10996,811
184636,9,0.13,-1.76,-0.77,0.107,-0.057,0.967,-4.38,4.92,0.00,0.00,4.38,-4.92,0.00,15.34,-17.22,15.21,-15.46,0.00,0.55,-0.16,13.19,1100,1100,1100,1100,1021,1500,1507,10971,811
184649,9,-0.82,-3.63,0.07,0.096,-0.059,0.924,-4.19,5.09,0.00,0.00,4.19,-5.09,0.00,14.65,-17.82,15.47,-14.19,0.00,1.01,0.57,-2.46,1100,1100,1100,1100,1021,1500,1508,10958,809
184661,9,1.27,0.34,0.24,0.096,-0.118,0.982,-4.46,5.15,0.00,0.00,4.46,-5.15,0.00,15.63,-18.03,14.36,-18.37,0.00,0.09,-1.41,-2.97,1100,1100,1100,1100,1021,1500,1507,10962,809
184672,9,0.14,-0.46,-1.03,0.089,-0.022,1.041,-3.67,3.56,0.00,0.00,3.67,-3.56,0.00,12.83,-12.48,12.69,-12.01,0.00,0.40,-0.46,16.42,1100,1100,1100,1100,1021,1500,1507,10979,809
184684,9,-1.11,0.13,0.22,0.050,-0.034,1.014,-2.54,6.18,0.00,0.00,2.54,-6.18,0.00,8.89,-21.64,10.00,-21.77,0.00,0.88,-1.37,-9.71,1100,1100,1100,1100,1020,1500,1508,10987,809
184696,9,-1.08,-2.05,-0.39,0.058,-0.074,0.961,-3.42,7.09,0.00,0.00,3.42,-7.09,0.00,11.98,-24.83,13.05,-22.78,0.00,1.02,-0.71,5.95,1100,1100,1100,1100,1020,1500,1508,10991,809
184709,9,-0.23,1.49,-0.18,-0.132,-0.081,1.055,-3.59,3.76,0.00,0.00,3.59,-3.76,0.00,12.58,-13.14,12.80,-14.63,0.00,0.64,-1.49,1.75,1100,1100,1100,1100,1020,1500,1508,11000,809
184721,9,-0.45,-2.06,-0.88,0.260,-0.016,0.925,-4.27,8.75,0.00,0.00,4.27,-8.75,0.00,14.95,-30.61,15.39,-28.55,0.00,0.81,-0.50,14.25,1100,1100,1100,1100,1020,1500,1508,11004,809
184732,9,0.66,-0.08,0.26,-0.063,-0.057,1.015,-2.84,6.20,0.00,0.00,2.84,-6.20,0.00,9.94,-21.70,9.27,-21.61,0.00,0.01,-1.13,-5.88,1100,1100,1100,1100,1020,1500,1508,10996,809
184744,9,2.74,0.25,-0.68,0.035,-0.062,0.899,-3.69,2.79,0.00,0.00,3.69,-2.79,0.00,12.91,-9.77,10.17,-10.02,0.00,-0.70,-0.76,13.85,1100,1100,1100,1100,1020,1500,1508,11000,811
184756,9,-2.44,-0.95,-0.27,0.178,-0.044,0.976,-5.80,5.75,0.00,0.00,5.80,-5.75,0.00,20.32,-20.12,22.75,-19.17,0.00,2.06,-0.28,0.79,1100,1100,1100,1100,1020,1500,1508,11012,811
184769,9,-1.63,-4.20,0.67,0.007,-0.010,1.027,-2.40,6.38,0.00,0.00,2.40,-6.38,0.00,8.40,-22.34,10.03,-18.15,0.00,0.81,0.67,-12.59,1100,1100,1100,1100,1020,1500,1508,11012,811
184781,9,2.09,1.40,-0.56,0.069,-0.189,0.798,-4.53,4.82,0.00,0.00,4.53,-4.82,0.00,15.85,-16.87,13.76,-18.27,0.00,-0.28,-1.92,15.83,1100,1100,1100,1100,1020,1500,1508,11008,811
184792,9,0.89,3.50,-0.88,0.028,-0.117,1.186,-7.99,5.61,0.00,0.00,7.99,-5.61,0.00,27.96,-19.62,27.07,-23.12,0.00,0.87,-2.41,9.49,1100,1100,1100,1100,1020,1500,1508,11012,811
184804,9,-1.86,-2.65,1.63,-0.102,0.176,0.939,-1.15,4.31,0.00,0.00,1.15,-4.31,0.00,4.03,-15.09,5.90,-12.43,0.00,0.68,0.06,-34.08,1100,1100,1100,1100,1017,1500,1511,11012,811
184816,9,2.05,1.93,-0.85,0.022,-0.149,1.113,-3.22,1.09,0.00,0.00,3.22,-1.09,0.00,11.26,-3.80,9.21,-5.73,0.00,-0.45,-0.69,23.48,1100,1100,1100,1100,1017,1500,1511,11004,811
184829,9,-0.95,-3.45,0.15,0.092,0.001,0.993,-3.37,4.11,0.00,0.00,3.37,-4.11,0.00,11.80,-14.39,12.74,-10.94,0.00,1.06,1.41,-5.84,1100,1100,1100,1100,1017,1500,1511,11021,811
184841,9,1.31,4.63,0.47,-0.126,-0.065,1.030,-2.71,0.59,0.00,0.00,2.71,-0.59,0.00,9.50,-2.07,8.19,-6.70,0.00,-0.46,-2.13,-8.29,1100,1100,1100,1100,1019,1501,1508,11016,811
184853,9,-0.11,-1.58,1.54,-0.055,0.079,1.133,-1.56,1.63,0.00,0.00,1.56,-1.63,0.00,5.47,-5.70,5.58,-4.12,0.00,0.37,0.74,-30.44,1100,1100,1100,1100,1019,1501,1508,11021,811
184864,9,-1.98,1.70,-1.11,0.082,-0.263,0.997,-4.33,2.55,0.00,2.34,4.33,-0.21,0.00,15.17,-0.73,17.15,-2.43,0.00,1.63,-0.76,30.18,1100,1100,1100,1100,1001,1501,1526,11016,811
184876,9,-1.38,1.34,-1.33,0.004,0.110,1.104,-2.73,3.20,0.00,2.34,2.73,-0.86,0.00,9.54,-2.99,10.92,-4.33,0.00,1.05,-0.50,20.00,1100,1100,1100,1100,1001,1501,1526,11016,811
184889,9,-3.11,5.26,0.05,-0.041,-0.176,0.945,-1.79,0.42,0.00,0.00,1.79,-0.42,0.00,6.26,-1.46,9.38,-6.73,0.00,1.72,-2.07,-2.65,1100,1100,1100,1100,1017,1501,1510,11016,811
184901,9,1.26,-4.69,0.71,0.277,0.131,1.050,-1.35,5.01,0.00,0.00,1.35,-5.01,0.00,4.72,-17.54,3.46,-12.85,0.00,-0.18,1.82,-17.86,1100,1100,1100,1100,1017,1501,1510,11025,811
184912,9,-5.12,-0.73,-0.80,0.106,-0.115,0.761,-2.61,7.59,0.00,0.00,2.61,-7.59,0.00,9.14,-26.56,14.25,-25.82,0.00,2.68,-1.63,20.15,1100,1100,1100,1100,1017,1501,1510,11012,811
184924,9,2.78,0.06,-1.02,0.217,0.063,0.918,-2.81,9.39,0.00,0.00,2.81,-9.39,0.00,9.85,-32.87,7.07,-32.92,0.00,-0.82,-2.06,12.72,1100,1100,1100,1100,1017,1501,1510,11012,811
184936,9,-4.05,5.99,0.38,-0.083,-0.170,1.048,-2.23,5.38,0.00,0.00,2.23,-5.38,0.00,7.81,-18.84,11.86,-24.82,0.00,2.22,-4.13,-2.43,1100,1100,1100,1100,1017,1500,1510,11016,811
184949,9,-0.13,-1.88,0.58,0.112,0.135,1.006,-1.26,4.73,0.00,0.00,1.26,-4.73,0.00,4.40,-16.54,4.53,-14.66,0.00,0.38,0.48,-13.35,1100,1100,1100,1100,1019,1500,1509,11016,838
184961,9,-4.05,9.58,-0.69,-0.142,-0.291,1.017,-2.79,-0.16,0.00,0.00,2.79,0.16,0.00,9.76,0.55,13.81,-9.04,0.00,2.16,-4.03,21.45,1100,1100,1100,1100,1018,1500,1510,11021,838
184972,9,-1.19,-1.32,2.51,-0.061,0.041,1.070,-2.02,0.87,0.00,0.00,2.02,-0.87,0.00,7.09,-3.03,8.28,-1.71,0.00,0.93,0.66,-51.80,1100,1100,1100,1100,1018,1500,1510,11021,838
184984,9,-1.52,5.36,-0.58,-0.044,-0.372,1.017,-5.44,1.51,0.00,0.00,5.44,-1.51,0.00,19.02,-5.30,20.54,-10.66,0.00,1.40,-2.38,16.49,1100,1100,1100,1100,1018,1500,1510,11016,838
184996,9,-6.74,3.94,0.86,-0.151,0.081,1.089,-1.59,2.05,0.00,0.00,1.59,-2.05,0.00,5.56,-7.17,12.30,-11.10,0.00,3.39,-2.16,-17.89,1100,1100,1100,1100,1018,1500,1510,11012,838
185009,9,4.99,2.73,-1.95,-0.086,-0.137,1.112,-4.44,0.44,0.00,0.00,4.44,-0.44,0.00,15.54,-1.53,10.54,-4.25,0.00,-1.93,-0.58,42.15,1100,1100,1100,1100,1018,1500,1510,11008,838
185021,9,-4.86,3.58,0.76,-0.145,0.066,1.013,-0.11,3.18,0.00,0.00,0.11,-3.18,0.00,0.39,-11.14,5.26,-14.72,0.00,2.28,-2.26,-18.00,1100,1100,1100,1100,1018,1500,1510,11012,838
185033,9,1.42,0.19,-1.24,-0.109,-0.252,1.262,-4.29,-1.50,0.00,0.00,4.29,1.50,0.00,15.03,5.24,13.60,5.05,0.00,0.02,1.31,27.48,1100,1100,1100,1100,1018,1500,1510,11012,838
185044,9,0.74,2.98,1.18,-0.282,-0.094,1.046,-1.43,-1.25,0.00,3.60,1.43,4.85,0.00,5.00,16.97,4.27,13.99,0.00,-0.44,-0.24,-21.20,1100,1100,1100,1100,1000,1500,1540,11021,830
185056,9,3.99,-6.10,-0.08,0.064,-0.089,1.116,-3.71,2.16,0.00,3.60,3.71,1.44,0.00,12.98,5.03,8.99,11.13,0.00,-1.04,3.66,-3.01,1100,1100,1100,1100,1000,1500,1540,11016,830
185069,9,-1.14,-1.54,-0.36,0.123,0.104,0.859,0.19,2.99,0.00,0.00,-0.19,-2.99,0.00,-0.65,-10.48,0.50,-8.95,0.00,0.16,0.73,5.28,1100,1100,1100,1100,1018,1500,1510,11021,830
185081,9,3.85,-6.68,-0.96,0.135,0.168,0.960,-3.05,5.28,0.00,0.00,3.05,-5.28,0.00,10.68,-18.46,6.83,-11.78,0.00,-1.10,2.39,18.02,1100,1100,1100,1100,1016,1501,1511,11025,830
185092,9,-1.21,2.98,-0.11,0.113,-0.380,1.020,-7.12,2.84,0.00,0.00,7.12,-2.84,0.00,24.93,-9.94,26.14,-12.92,0.00,1.17,-1.72,2.50,1100,1100,1100,1100,1016,1501,1511,11016,830
185104,9,-6.88,-0.74,0.21,0.101,0.362,0.857,-0.73,3.95,0.00,0.00,0.73,-3.95,0.00,2.56,-13.82,9.43,-13.08,0.00,3.70,-0.39,-2.87,1100,1100,1100,1100,1018,1501,1509,11012,830
185117,9,6.43,-1.14,-0.60,0.430,-0.099,0.784,-4.43,8.48,0.00,0.00,4.43,-8.48,0.00,15.52,-29.66,9.09,-28.53,0.00,-2.55,-0.00,13.25,1100,1100,1100,1100,1018,1501,1509,11008,830
185129,9,-8.73,3.12,-1.17,-0.003,-0.054,0.837,-2.29,7.88,0.00,0.00,2.29,-7.88,0.00,8.01,-27.58,16.74,-30.70,0.00,4.48,-3.30,20.38,1100,1100,1100,1100,1018,1501,1509,11012,830
185141,9,2.63,-0.27,-0.12,-0.093,-0.131,1.257,-3.77,1.53,0.00,0.00,3.77,-1.53,0.00,13.21,-5.35,10.58,-5.07,0.00,-0.46,0.38,-5.56,1100,1100,1100,1100,1012,1500,1516,11012,829
185153,9,-3.62,6.74,0.44,-0.098,-0.117,0.922,-2.11,4.02,0.00,0.00,2.11,-4.02,0.00,7.37,-14.06,10.99,-20.80,0.00,1.65,-4.16,-9.72,1100,1100,1100,1100,1012,1500,1516,11021,829
185164,9,3.97,-6.26,0.11,0.095,-0.046,1.098,-4.20,4.45,0.00,1.89,4.20,-2.56,0.00,14.72,-8.96,10.75,-2.70,0.00,-0.81,2.50,-2.03,1100,1100,1100,1100,1006,1501,1521,11016,829
185176,9,4.32,6.32,1.44,-0.244,-0.138,1.163,-4.10,1.02,0.00,1.89,4.10,0.87,0.00,14.34,3.05,10.02,-3.27,0.00,-1.93,-2.65,-28.15,1100,1100,1100,1100,1006,1501,1521,11016,829
185189,9,-5.30,-4.33,0.02,0.079,0.045,0.847,-3.27,5.46,0.00,0.00,3.27,-5.46,0.00,11.43,-19.13,16.73,-14.80,0.00,3.32,1.23,-1.03,1100,1100,1100,1100,1018,1501,1509,11021,829
185201,9,4.63,3.02,-2.59,0.207,-0.277,0.933,-6.90,3.30,0.00,0.00,6.90,-3.30,0.00,24.15,-11.55,19.52,-14.57,0.00,-1.37,-0.62,45.10,1100,1100,1100,1100,1018,1501,1509,11016,829
185212,9,-4.68,9.04,0.20,-0.035,0.088,0.947,-0.54,5.38,0.00,0.00,0.54,-5.38,0.00,1.89,-18.83,6.57,-27.86,0.00,2.27,-5.35,-7.65,1100,1100,1100,1100,1018,1501,1509,11012,829
185224,9,4.55,1.05,0.65,-0.156,0.052,1.271,-4.32,3.68,0.00,0.00,4.32,-3.68,0.00,15.10,-12.88,10.55,-13.93,0.00,-1.25,-0.17,-17.02,1100,1100,1100,1100,1018,1503,1507,11012,829
185237,9,-4.66,1.51,-0.59,-0.183,-0.288,0.965,-2.86,3.29,0.00,0.00,2.86,-3.29,0.00,10.02,-11.50,14.68,-13.01,0.00,2.23,-1.06,6.78,1100,1100,1100,1100,1018,1500,1507,11021,829
185249,9,-5.79,-1.78,0.61,0.217,-0.287,1.003,-6.98,4.96,0.00,0.00,6.98,-4.96,0.00,24.43,-17.37,30.22,-15.59,0.00,4.13,-0.10,-11.57,1100,1100,1100,1100,1018,1500,1510,11012,923
185261,9,5.59,3.24,1.29,-0.127,-0.203,1.019,-7.25,1.20,0.00,0.00,7.25,-1.20,0.00,25.39,-4.21,19.80,-7.45,0.00,-2.11,-1.63,-21.30,1100,1100,1100,1100,1019,1502,1507,11012,923
185272,9,-0.06,-2.37,1.13,-0.141,0.287,1.085,-1.05,5.98,0.00,0.00,1.05,-5.98,0.00,3.68,-20.94,3.75,-18.57,0.00,0.21,-0.00,-14.57,1100,1100,1100,1100,1019,1502,1507,11012,923
185285,9,1.35,0.15,0.39,0.105,-0.476,0.986,-7.79,3.30,0.00,0.00,7.79,-3.30,0.00,27.28,-11.56,25.93,-11.71,0.00,0.57,0.41,0.83,1100,1100,1100,1100,1020,1502,1506,11012,923
185296,9,-9.09,3.24,-2.83,0.180,-0.018,0.776,0.12,8.96,0.00,0.00,-0.12,-8.96,0.00,-0.42,-31.37,8.67,-34.61,0.00,4.15,-3.28,54.88,1100,1100,1100,1100,1020,1502,1506,11016,923
185309,9,7.98,-11.36,-0.75,0.250,0.324,0.913,-0.34,7.39,0.00,0.00,0.34,-7.39,0.00,1.21,-25.86,-6.78,-14.49,0.00,-3.36,4.51,15.01,1100,1100,1100,1100,1021,1502,1505,11025,923
185321,9,7.94,1.72,1.48,-0.012,-0.279,1.050,-4.52,6.68,0.00,0.00,4.52,-6.68,0.00,15.81,-23.37,7.87,-25.09,0.00,-3.54,-2.62,-34.84,1100,1100,1100,1100,1019,1502,1507,11021,923
185332,9,-4.47,2.99,-0.05,-0.048,0.044,1.141,-2.84,6.56,0.00,0.00,2.84,-6.56,0.00,9.93,-22.95,14.40,-25.94,0.00,2.85,-3.23,1.51,1100,1100,1100,1100,1019,1502,1507,11012,923
185344,9,-0.88,-1.28,0.79,0.096,-0.005,1.045,-3.05,3.00,0.00,0.00,3.05,-3.00,0.00,10.67,-10.51,11.55,-9.23,0.00,1.03,0.06,-13.52,1100,1100,1100,1100,1020,1502,1506,11012,976
185356,9,-7.22,1.92,-1.49,-0.007,0.008,0.933,-0.48,0.94,0.00,0.00,0.48,-0.94,0.00,1.66,-3.30,8.88,-5.22,0.00,3.47,-1.79,25.33,1100,1100,1100,1100,1020,1502,1506,11008,976
185369,9,8.00,-0.13,2.11,-0.113,0.151,1.175,-3.23,0.13,0.00,0.00,3.23,-0.13,0.00,11.30,-0.44,3.30,-0.31,0.00,-3.01,-0.04,-37.13,1100,1100,1100,1100,1019,1502,1507,11016,976
185381,9,0.84,11.72,-1.14,-0.288,-0.110,1.199,-3.93,-2.76,0.00,0.00,3.93,2.76,0.00,13.74,9.66,12.90,-2.06,0.00,-0.20,-4.14,21.84,1100,1100,1100,1100,1019,1502,1507,11012,976
185392,9,-6.71,-7.34,-1.31,0.188,-0.050,0.888,-4.28,-0.43,0.00,0.00,4.28,0.43,0.00,14.96,1.50,21.68,8.84,0.00,4.17,4.38,31.67,1100,1100,1100,1100,1019,1502,1507,11012,976
185404,9,-0.54,3.43,1.66,-0.006,-0.419,1.010,-7.31,-0.79,0.00,0.00,7.31,0.79,0.00,25.58,2.75,26.11,-0.67,0.00,0.97,-0.13,-40.31,1100,1100,1100,1100,1019,1502,1507,11021,976
185416,9,-1.69,6.55,-2.71,-0.114,0.249,1.150,-0.70,-0.15,0.00,0.00,0.70,0.15,0.00,2.45,0.52,4.14,-6.03,0.00,0.80,-2.59,50.95,1100,1100,1100,1100,1019,1502,1507,11021,976
185429,9,2.85,2.30,1.34,0.059,-0.035,0.966,-3.97,1.46,0.00,0.00,3.97,-1.46,0.00,13.88,-5.12,11.03,-7.42,0.00,-0.63,-0.40,-27.81,1100,1100,1100,1100,1019,1502,1507,11012,976
185441,9,-1.29,3.94,-2.04,0.008,-0.232,0.988,-3.96,0.73,0.00,0.00,3.96,-0.73,0.00,13.87,-2.56,15.16,-6.50,0.00,1.02,-1.23,37.93,1100,1100,1100,1100,1019,1502,1507,11012,905
185453,9,0.71,-7.51,0.99,0.058,0.019,1.036,-3.37,3.68,0.00,0.00,3.37,-3.68,0.00,11.79,-12.88,11.08,-5.36,0.00,0.49,3.10,-13.75,1100,1100,1100,1100,1019,1502,1507,11012,905
185464,9,1.95,-0.52,0.52,0.132,-0.060,0.864,-5.22,7.18,0.00,0.00,5.22,-7.18,0.00,18.26,-25.14,16.32,-24.62,0.00,-0.36,-1.41,-19.96,1100,1100,1100,1100,1007,1502,1519,11025,905
185476,9,-10.62,6.12,-2.47,0.036,-0.192,0.956,-4.57,6.66,0.00,0.00,4.57,-6.66,0.00,15.98,-23.31,26.61,-29.43,0.00,5.80,-4.72,46.18,1100,1100,1100,1100,1007,1502,1519,11021,905
185489,9,1.81,2.27,2.95,-0.021,-0.181,0.942,-5.78,2.77,0.00,0.00,5.78,-2.77,0.00,20.23,-9.70,18.42,-11.97,0.00,-0.13,-1.29,-59.18,1100,1100,1100,1100,1020,1502,1506,11016,905
185501,9,5.95,-1.90,0.37,-0.280,0.123,1.208,-3.45,1.61,0.00,0.00,3.45,-1.61,0.00,12.09,-5.65,6.14,-3.75,0.00,-2.66,0.48,-7.73,1100,1100,1100,1100,1019,1502,1507,11016,905
185512,9,1.22,-7.49,-0.28,-0.009,0.073,1.018,-3.59,4.10,0.00,0.00,3.59,-4.10,0.00,12.56,-14.35,11.35,-6.87,0.00,0.12,2.68,13.40,1100,1100,1100,1100,1019,1502,1507,11016,905
185524,9,-3.99,-0.99,0.13,0.159,-0.295,0.858,-6.85,3.72,0.00,0.00,6.85,-3.72,0.00,23.98,-13.01,27.96,-12.02,0.00,2.81,-0.10,-8.76,1100,1100,1100,1100,1019,1502,1507,11021,905
185537,9,-7.98,2.82,-2.32,0.399,-0.109,0.830,-3.77,9.22,0.00,0.00,3.77,-9.22,0.00,13.20,-32.29,21.18,-35.10,0.00,4.24,-3.29,48.00,1100,1100,1100,1100,1019,1501,1507,11012,905
185549,9,2.84,6.12,2.45,-0.201,0.066,0.988,-2.71,4.59,0.00,0.00,2.71,-4.59,0.00,9.49,-16.05,6.65,-22.16,0.00,-1.06,-3.84,-41.05,1100,1100,1100,1100,1021,1501,1506,11008,815
185561,9,6.26,-2.94,-0.72,0.014,-0.157,1.066,-3.61,10.54,0.00,0.00,3.61,-10.54,0.00,12.62,-36.90,6.36,-33.96,0.00,-2.62,-0.69,14.06,1100,1100,1100,1100,1008,1501,1519,11012,815
185572,9,1.52,-7.25,1.02,0.043,-0.231,1.012,-6.02,8.21,0.00,0.00,6.02,-8.21,0.00,21.08,-28.72,19.56,-21.47,0.00,0.21,1.27,-11.90,1100,1100,1100,1100,1008,1501,1519,11021,815
185584,9,2.18,-6.29,0.46,-0.008,-0.088,1.101,-3.72,7.54,0.00,0.00,3.72,-7.54,0.00,13.02,-26.38,10.84,-20.09,0.00,-0.49,0.87,-15.58,1100,1100,1100,1100,1019,1501,1508,11025,815
185596,9,-2.06,0.64,-1.97,0.159,0.247,1.091,0.19,7.84,0.00,0.00,-0.19,-7.84,0.00,-0.66,-27.44,1.41,-28.08,0.00,0.86,-1.33,40.15,1100,1100,1100,1100,1019,1501,1508,11016,815
185609,9,-0.42,-5.28,4.02,0.216,-0.051,0.636,-1.53,7.93,0.00,0.00,1.53,-7.93,0.00,5.37,-27.75,5.79,-22.48,0.00,0.54,1.22,-78.52,1100,1100,1100,1100,1019,1501,1508,11029,815
185621,9,4.13,0.82,-3.12,0.036,-0.110,1.058,-3.16,9.32,0.00,0.00,3.16,-9.32,0.00,11.05,-32.63,6.92,-33.45,0.00,-1.62,-2.48,55.40,1100,1100,1100,1100,1020,1501,1507,11029,815
185632,9,-2.18,2.53,1.46,0.093,-0.042,0.863,-1.49,11.75,0.00,0.00,1.49,-11.75,0.00,5.20,-41.13,7.38,-43.66,0.00,1.29,-4.01,-25.94,1100,1100,1100,1100,1020,1501,1507,11025,815
185644,9,3.25,-12.32,1.56,-0.086,-0.042,1.138,-3.75,7.87,0.00,0.00,3.75,-7.87,0.00,13.14,-27.54,9.88,-15.22,0.00,-0.88,3.38,-37.89,1100,1100,1100,1100,1019,1501,1508,11029,811
185656,9,-1.51,-7.49,-3.19,0.192,-0.401,0.917,-7.77,8.96,0.00,0.00,7.77,-8.96,0.00,27.18,-31.37,28.69,-23.88,0.00,1.56,0.58,71.18,1100,1100,1100,1100,1019,1501,1508,11033,811
185669,9,-5.42,4.69,1.33,0.009,0.086,0.802,-4.07,9.97,0.00,2.79,4.07,-7.18,0.00,14.25,-25.11,19.67,-29.80,0.00,3.19,-5.72,-29.83,1100,1100,1100,1100,1000,1501,1531,11029,811
185681,9,1.45,-0.63,-2.17,0.148,-0.099,1.182,-5.73,6.48,0.00,0.00,5.73,-6.48,0.00,20.04,-22.68,18.59,-22.05,0.00,0.01,-1.29,40.95,1100,1100,1100,1100,1018,1501,1509,11021,811
185692,9,-3.72,-1.17,2.88,0.035,-0.044,0.848,-3.52,5.05,0.00,0.00,3.52,-5.05,0.00,12.31,-17.67,16.03,-16.50,0.00,2.03,-1.07,-51.34,1100,1100,1100,1100,1018,1501,1509,11021,811
185704,9,3.14,-11.04,-0.54,0.032,-0.119,0.924,-5.32,5.29,0.00,0.00,5.32,-5.29,0.00,18.61,-18.51,15.48,-7.47,0.00,-0.61,3.62,6.90,1100,1100,1100,1100,1018,1501,1509,11012,811
185716,9,5.20,4.89,-0.66,-0.200,-0.434,1.171,-5.94,4.28,0.00,0.00,5.94,-4.28,0.00,20.81,-14.98,15.61,-19.88,0.00,-1.97,-3.44,18.79,1100,1100,1100,1100,1018,1501,1509,11016,811
185729,9,-4.98,2.05,0.92,-0.021,0.036,0.825,-3.68,3.54,0.00,0.00,3.68,-3.54,0.00,12.86,-12.40,17.84,-14.44,0.00,3.06,-2.70,-17.43,1100,1100,1100,1100,1019,1501,1508,11016,811
185741,9,-0.17,0.33,-1.17,0.067,0.101,1.212,-3.53,2.19,0.00,0.00,3.53,-2.19,0.00,12.37,-7.67,12.54,-8.00,0.00,0.50,-0.08,25.43,1100,1100,1100,1100,1019,1501,1509,11021,809
185753,9,-4.91,3.41,3.04,0.252,0.081,0.756,-1.13,10.88,0.00,0.00,1.13,-10.88,0.00,3.96,-38.08,8.87,-41.49,0.00,2.03,-3.59,-56.77,1100,1100,1100,1100,1019,1501,1509,11012,809
185764,9,1.31,-10.80,0.43,0.406,-0.312,0.739,-6.56,14.57,0.00,2.43,6.56,-12.14,0.00,22.96,-42.51,21.65,-31.71,0.00,0.64,3.10,-8.39,1100,1100,1100,1100,1001,1501,1527,11012,809
185777,9,-0.27,13.66,-0.61,-0.274,-0.597,1.145,-6.19,8.95,0.00,2.43,6.19,-6.52,0.00,21.67,-22.82,21.94,-36.48,0.00,0.76,-7.72,23.48,1100,1100,1100,1100,1001,1501,1527,11004,809
185789,9,-10.68,13.35,0.42,-0.315,0.223,1.112,-0.61,5.76,0.00,0.00,0.61,-5.76,0.00,2.14,-20.17,12.82,-33.52,0.00,5.24,-7.94,-2.42,1100,1100,1100,1100,1021,1501,1507,11008,809
185801,9,4.62,-1.37,-0.52,0.044,0.093,1.228,-2.42,0.10,0.00,0.00,2.42,-0.10,0.00,8.48,-0.36,3.86,1.00,0.00,-1.85,2.68,15.93,1100,1100,1100,1100,1019,1501,1509,11012,809
185812,9,-6.67,-2.72,0.99,0.075,-0.353,0.645,-4.13,4.15,0.00,0.00,4.13,-4.15,0.00,14.46,-14.54,21.13,-11.82,0.00,3.29,1.46,-15.26,1100,1100,1100,1100,1019,1501,1509,11021,809
185824,9,3.65,-6.36,-2.05,0.338,0.079,0.843,-3.84,9.37,0.00,0.00,3.84,-9.37,0.00,13.46,-32.81,9.81,-26.45,0.00,-0.90,2.29,38.79,1100,1100,1100,1100,1021,1501,1507,11012,809
185836,9,6.99,12.56,1.31,-0.175,-0.428,1.162,-6.85,2.65,0.00,0.00,6.85,-2.65,0.00,23.96,-9.29,16.97,-21.85,0.00,-2.75,-5.70,-23.01,1100,1100,1100,1100,1021,1500,1507,11012,809
185849,9,-3.15,-6.51,1.05,-0.008,0.197,0.896,-0.82,5.26,0.00,0.00,0.82,-5.26,0.00,2.85,-18.42,6.00,-11.90,0.00,1.95,2.04,-21.29,1100,1100,1100,1100,1020,1500,1508,11016,809
185861,9,9.14,-8.42,-0.73,-0.013,-0.214,1.187,-6.35,3.67,0.00,0.00,6.35,-3.67,0.00,22.24,-12.83,13.10,-4.41,0.00,-3.23,4.42,12.53,1100,1100,1100,1100,1021,1501,1507,11012,809
185872,9,-4.25,-5.04,-0.33,0.129,-0.327,0.858,-4.04,8.82,0.00,0.00,4.04,-8.82,0.00,14.14,-30.89,18.39,-25.84,0.00,2.57,0.80,0.85,1100,1100,1100,1100,1021,1501,1507,11016,809
185884,9,4.08,-10.37,-0.97,0.322,0.427,1.055,-0.48,9.10,0.00,0.00,0.48,-9.10,0.00,1.69,-31.85,-2.39,-21.48,0.00,-1.48,4.03,13.29,1100,1100,1100,1100,1020,1500,1509,11016,809
185896,9,9.13,-2.75,2.45,0.227,-0.510,0.980,-9.81,11.33,0.00,0.00,9.81,-11.33,0.00,34.34,-39.67,25.21,-36.92,0.00,-3.53,-0.16,-47.73,1100,1100,1100,1100,1020,1500,1509,11012,809
185909,9,-4.56,0.78,1.68,-0.397,-0.040,1.132,-5.86,3.61,0.00,0.00,5.86,-3.61,0.00,20.52,-12.65,25.08,-13.43,0.00,2.97,-0.23,-28.09,1100,1100,1100,1100,1021,1500,1508,11012,809
185921,9,5.17,4.58,-0.71,-0.412,-0.442,1.432,-7.95,-5.38,0.00,0.00,7.95,5.38,0.00,27.81,18.81,22.64,14.23,0.00,-1.18,0.34,30.85,1100,1100,1100,1100,1020,1500,1509,11012,809
185932,9,-9.47,9.81,-1.69,-0.353,-0.053,1.250,-0.57,-3.10,0.00,0.00,0.57,3.10,0.00,1.99,10.84,11.46,1.02,0.00,3.99,-2.98,41.07,1100,1100,1100,1100,1020,1500,1509,11012,809
185944,9,0.43,-9.97,-1.38,0.284,0.163,0.844,-1.21,1.38,0.00,0.00,1.21,-1.38,0.00,4.24,-4.82,3.81,5.15,0.00,0.32,5.94,30.62,1100,1100,1100,1100,1021,1500,1508,11008,809
185957,9,10.69,-3.22,2.00,0.184,-0.122,0.980,-1.47,-0.58,0.00,0.00,1.47,0.58,0.00,5.14,2.02,-5.55,5.24,0.00,-5.41,2.98,-48.85,1100,1100,1100,1100,1021,1502,1508,11008,809
185969,9,-5.25,-1.63,-0.03,-0.267,0.105,1.182,1.71,0.24,0.00,2.25,-1.71,2.01,0.00,-5.97,7.02,-0.72,8.65,0.00,2.55,1.22,-3.19,1100,1100,1100,1100,1002,1502,1525,11012,809
185981,9,6.01,-2.54,0.39,0.212,-0.177,0.963,-2.85,1.85,0.00,0.00,2.85,-1.85,0.00,9.98,-6.46,3.96,-3.93,0.00,-2.09,2.17,-9.21,1100,1100,1100,1100,1020,1500,1509,11012,809
185992,9,-6.34,11.99,-2.20,-0.148,0.002,1.033,1.02,5.17,0.00,0.00,-1.02,-5.17,0.00,-3.56,-18.11,2.78,-30.10,0.00,2.49,-6.87,38.65,1100,1100,1100,1100,1020,1500,1509,11012,809
186005,9,-3.26,-8.47,-0.49,0.394,0.139,0.865,-0.40,10.25,0.00,0.00,0.40,-10.25,0.00,1.39,-35.86,4.65,-27.40,0.00,2.21,2.00,9.96,1100,1100,1100,1100,1020,1500,1509,11012,809
186016,9,5.15,-0.69,0.01,0.047,-0.017,1.075,-2.26,5.79,0.00,0.00,2.26,-5.79,0.00,7.90,-20.27,2.75,-19.58,0.00,-2.48,-0.75,-2.52,1100,1100,1100,1100,1020,1500,1509,11008,809
186029,9,-5.42,-4.75,1.09,-0.029,-0.001,0.851,-0.63,7.41,0.00,0.00,0.63,-7.41,0.00,2.19,-25.92,7.61,-21.17,0.00,2.79,-0.09,-18.35,1100,1100,1100,1100,1020,1500,1509,11008,809
186041,9,8.63,-4.76,1.43,-0.048,-0.261,1.157,-3.90,2.26,0.00,0.00,3.90,-2.26,0.00,13.64,-7.90,5.01,-3.15,0.00,-3.25,1.88,-24.68,1100,1100,1100,1100,1021,1500,1508,11008,809
186052,9,-6.51,17.38,-1.40,-0.447,-0.262,1.242,-3.10,2.39,0.00,0.00,3.10,-2.39,0.00,10.84,-8.37,17.35,-25.74,0.00,3.12,-9.21,34.88,1100,1100,1100,1100,1021,1500,1508,11008,809
186064,9,-4.85,-1.03,-0.22,0.323,0.330,0.882,0.82,5.55,0.00,0.00,-0.82,-5.55,0.00,-2.88,-19.42,1.97,-18.39,0.00,2.70,-0.07,6.85,1100,1100,1100,1100,1009,1500,1520,11004,809
186076,9,7.15,1.00,0.67,0.106,-0.038,0.870,-2.36,1.89,0.00,0.00,2.36,-1.89,0.00,8.26,-6.61,1.11,-7.61,0.00,-3.19,-0.10,-16.00,1100,1100,1100,1100,1009,1500,1520,11012,809
186089,9,-6.42,2.60,0.43,0.043,0.128,0.898,0.34,9.57,0.00,0.00,-0.34,-9.57,0.00,-1.18,-33.48,5.25,-36.08,0.00,2.97,-3.28,-2.36,1100,1100,1100,1100,1021,1500,1509,11008,809
186101,9,6.23,-1.12,0.71,0.199,-0.103,0.983,-3.37,4.47,0.00,0.00,3.37,-4.47,0.00,11.80,-15.64,5.57,-14.52,0.00,-2.07,0.71,-8.98,1100,1100,1100,1100,1022,1500,1508,11008,809
186112,9,-0.35,10.59,-3.07,-0.281,-0.239,1.126,-2.80,-0.70,0.00,0.00,2.80,0.70,0.00,9.82,2.46,10.17,-8.13,0.00,0.32,-3.96,63.45,1100,1100,1100,1100,1022,1500,1508,10996,809
186125,9,-3.32,-10.61,1.82,0.454,0.278,0.871,-2.48,9.98,0.00,0.00,2.48,-9.98,0.00,8.67,-34.95,11.99,-24.33,0.00,2.41,3.13,-29.87,1100,1100,1100,1100,1023,1501,1507,10996,809
186136,9,3.73,-3.34,2.80,-0.039,-0.055,0.923,-5.04,3.46,0.00,0.00,5.04,-3.46,0.00,17.65,-12.10,13.91,-8.76,0.00,-1.38,1.09,-62.01,1100,1100,1100,1100,1023,1500,1507,10996,809
186149,9,-9.85,2.56,-2.91,0.080,0.054,0.900,-2.84,5.75,0.00,0.00,2.84,-5.75,0.00,9.95,-20.13,19.80,-22.69,0.00,4.99,-3.28,61.87,1100,1100,1100,1100,1023,1500,1507,11004,811
186161,9,3.97,-4.10,3.33,0.212,-0.226,0.886,-7.63,7.57,0.00,2.34,7.63,-5.23,0.00,26.70,-18.30,22.73,-14.20,0.00,-0.56,0.33,-62.97,1100,1100,1100,1100,1004,1500,1526,11008,811
186172,9,1.20,1.98,-1.30,-0.038,-0.313,1.109,-6.21,4.98,0.00,2.34,6.21,-2.64,0.00,21.75,-9.24,20.55,-11.23,0.00,-0.21,-2.02,21.51,1100,1100,1100,1100,1004,1500,1526,11012,811
186184,9,0.66,-4.86,0.15,-0.011,0.157,1.042,-4.13,6.10,0.00,0.00,4.13,-6.10,0.00,14.45,-21.33,13.80,-16.48,0.00,0.57,0.28,5.29,1100,1100,1100,1100,1023,1500,1508,11016,811
186196,9,1.61,1.65,1.15,-0.096,-0.106,1.000,-4.89,1.89,0.00,0.00,4.89,-1.89,0.00,17.11,-6.61,15.50,-8.26,0.00,-0.09,-0.96,-28.68,1100,1100,1100,1100,1023,1500,1508,11016,811
186209,9,-6.33,5.47,-3.02,0.031,0.021,1.064,-4.11,2.50,0.00,0.00,4.11,-2.50,0.00,14.38,-8.75,20.71,-14.22,0.00,3.58,-3.03,65.27,1100,1100,1100,1100,1038,1500,1507,11012,811
186221,9,4.16,-4.51,2.36,0.005,-0.003,0.820,-5.05,-0.11,0.00,0.00,5.05,0.11,0.00,17.66,0.38,13.50,4.89,0.00,-1.30,2.61,-45.69,1100,1100,1100,1100,1038,1500,1507,11021,811
186232,9,2.10,3.60,-1.19,-0.149,-0.270,1.126,-6.26,-0.95,0.00,0.00,6.26,0.95,0.00,21.90,3.32,19.81,-0.28,0.00,-0.45,-1.19,22.48,1100,1100,1100,1100,1038,1500,1507,11021,811
186244,9,0.16,-0.68,2.54,-0.291,-0.198,1.275,-4.74,-4.21,0.00,0.00,4.74,4.21,0.00,16.57,14.73,16.41,15.40,0.00,0.71,1.82,-43.31,1100,1100,1100,1100,1038,1500,1507,11012,811
186256,9,1.41,1.61,0.78,-0.119,0.110,1.154,-2.79,-2.30,0.00,0.00,2.79,2.30,0.00,9.76,8.05,8.35,6.44,0.00,-0.32,0.26,-16.82,1100,1100,1100,1100,1038,1501,1507,11016,811
186269,9,-3.72,2.02,-1.76,0.118,0.130,1.037,-0.53,-1.37,0.00,0.00,0.53,1.37,0.00,1.87,4.81,5.59,2.78,0.00,1.87,0.06,46.18,1100,1100,1100,1100,1027,1501,1517,11012,811
186281,9,0.60,1.06,1.23,0.199,0.004,0.734,-1.71,1.21,0.00,0.00,1.71,-1.21,0.00,5.98,-4.22,5.38,-5.29,0.00,0.03,-0.09,-22.45,1100,1100,1100,1100,1039,1503,1504,11012,811
186292,9,-0.80,-2.77,-2.06,0.025,-0.179,1.111,-2.63,7.52,0.00,0.00,2.63,-7.52,0.00,9.21,-26.31,10.00,-23.54,0.00,0.74,-0.34,38.91,1100,1100,1100,1100,1039,1503,1504,11016,811
186304,9,-1.96,-4.65,1.07,0.080,-0.250,0.868,-4.84,8.40,0.00,0.00,4.84,-8.40,0.00,16.94,-29.40,18.90,-24.75,0.00,1.87,0.11,-17.12,1100,1100,1100,1100,1038,1503,1504,11016,811
186316,9,0.54,5.08,-1.34,-0.356,-0.020,1.245,-2.41,1.45,0.00,0.00,2.41,-1.45,0.00,8.42,-5.08,7.88,-10.15,0.00,0.14,-2.66,23.08,1100,1100,1100,1100,1038,1503,1504,11012,811
186329,9,-4.25,1.32,-1.82,0.252,0.155,0.970,-0.46,2.66,0.00,0.00,0.46,-2.66,0.00,1.62,-9.32,5.87,-10.64,0.00,2.00,-0.85,39.58,1100,1100,1100,1100,1038,1503,1504,11016,811
186341,9,1.50,-0.80,1.39,0.135,-0.057,0.651,-3.24,4.76,0.00,0.00,3.24,-4.76,0.00,11.33,-16.65,9.83,-15.85,0.00,-0.18,-0.18,-29.79,1100,1100,1100,1100,1038,1503,1504,11021,811
186352,9,5.64,4.53,-0.07,-0.245,0.053,1.177,-1.76,2.26,0.00,0.00,1.76,-2.26,0.00,6.15,-7.92,0.50,-12.45,0.00,-2.56,-1.90,-0.04,1100,1100,1100,1100,1038,1503,1504,11012,811
186365,9,1.55,-2.50,3.32,-0.117,-0.097,0.983,-4.47,0.12,0.00,0.00,4.47,-0.12,0.00,15.65,-0.43,14.10,2.07,0.00,-0.01,1.10,-55.02,1100,1100,1100,1100,1038,1503,1504,11012,811
186376,9,0.58,-3.23,-1.57,0.019,-0.106,0.934,-2.72,-0.11,0.00,0.00,2.72,0.11,0.00,9.51,0.39,8.93,3.63,0.00,0.21,1.82,27.55,1100,1100,1100,1100,1038,1503,1504,11012,811
186389,9,-5.05,7.45,-2.25,0.051,0.119,1.228,-2.70,-2.25,0.00,0.00,2.70,2.25,0.00,9.44,7.86,14.49,0.42,0.00,2.83,-2.63,52.28,1100,1100,1100,1100,1038,1503,1504,11004,811
186401,9,-2.91,0.29,3.61,0.242,-0.220,0.642,-5.99,4.20,0.00,0.00,5.99,-4.20,0.00,20.96,-14.70,23.87,-14.99,0.00,2.34,-0.46,-72.66,1100,1100,1100,1100,1038,1503,1504,11012,811
186412,9,-3.20,12.79,-2.78,-0.045,-0.140,1.067,-5.68,1.90,0.00,0.00,5.68,-1.90,0.00,19.90,-6.65,23.10,-19.44,0.00,2.10,-5.43,54.00,1100,1100,1100,1100,1038,1503,1504,11004,811
186424,9,-0.30,11.17,1.51,-0.348,0.091,1.201,-4.13,2.09,0.00,0.00,4.13,-2.09,0.00,14.47,-7.30,14.76,-18.46,0.00,0.69,-5.17,-18.40,1100,1100,1100,1100,1045,1502,1504,11008,811
186437,9,-1.87,-10.29,1.07,0.366,-0.104,0.750,-2.84,6.15,0.00,0.00,2.84,-6.15,0.00,9.95,-21.54,11.82,-11.25,0.00,1.43,5.11,-22.61,1100,1100,1100,1100,1045,1502,1504,11008,811
186449,9,0.86,3.76,-2.19,-0.042,-0.122,1.138,-1.72,1.71,0.00,0.00,1.72,-1.71,0.00,6.00,-5.97,5.14,-9.73,0.00,-0.20,-1.00,54.23,1100,1100,1100,1100,1047,1502,1505,11012,815
186461,9,0.52,0.30,0.98,-0.139,-0.035,0.833,0.72,7.46,0.00,0.00,-0.72,-7.46,0.00,-2.51,-26.11,-3.03,-26.41,0.00,-0.26,-1.65,-23.55,1100,1100,1100,1100,1032,1502,1519,11008,815
186472,9,-1.78,-0.17,-2.41,0.045,-0.216,1.017,-3.77,5.10,0.00,0.00,3.77,-5.10,0.00,13.19,-17.87,14.97,-17.70,0.00,1.48,-0.62,38.42,1100,1100,1100,1100,1032,1502,1519,11000,815
186485,9,-8.41,10.60,0.94,-0.124,-0.479,1.046,-4.58,3.18,0.00,0.00,4.58,-3.18,0.00,16.03,-11.12,24.44,-21.73,0.00,4.52,-5.76,-15.16,1100,1100,1100,1100,1042,1502,1509,11004,815
186496,9,7.02,-11.38,-0.88,0.080,0.266,0.956,-1.22,3.48,0.00,0.00,1.22,-3.48,0.00,4.28,-12.17,-2.74,-0.79,0.00,-3.33,5.20,15.71,1100,1100,1100,1100,1042,1502,1509,11012,815
186509,9,6.76,-9.23,-1.83,0.188,-0.036,1.125,-3.64,5.06,0.00,0.00,3.64,-5.06,0.00,12.76,-17.73,6.00,-8.50,0.00,-2.87,3.66,33.97,1100,1100,1100,1100,1046,1502,1504,11012,815
186521,9,-0.65,1.54,0.95,-0.080,-0.051,0.876,-2.04,7.50,0.00,0.00,2.04,-7.50,0.00,7.12,-26.25,7.77,-27.78,0.00,0.78,-3.50,-32.58,1100,1100,1100,1100,1044,1502,1506,11012,815
186532,9,-7.82,8.09,-3.68,-0.071,-0.194,1.257,-5.02,4.19,0.00,0.00,5.02,-4.19,0.00,17.59,-14.67,25.41,-22.76,0.00,4.66,-4.22,54.93,1100,1100,1100,1100,1044,1502,1506,11012,815
186544,9,-8.05,13.67,0.90,0.026,-0.049,0.889,-2.35,-1.43,0.00,0.00,2.35,1.43,0.00,8.23,5.01,16.28,-8.67,0.00,3.87,-5.24,-27.32,1100,1100,1100,1100,1044,1502,1506,11012,811
186556,9,-0.63,-2.57,2.89,0.176,-0.045,0.759,-2.73,4.46,0.00,0.00,2.73,-4.46,0.00,9.55,-15.61,10.18,-13.03,0.00,0.69,1.24,-64.08,1100,1100,1100,1100,1044,1502,1506,11012,811
186569,9,14.46,3.30,-1.25,-0.337,-0.264,1.307,-3.92,4.65,0.00,0.00,3.92,-4.65,0.00,13.72,-16.29,-0.74,-19.58,0.00,-6.60,-1.54,22.90,1100,1100,1100,1100,1031,1502,1519,11000,811
186581,9,-8.51,1.16,-0.00,-0.432,-0.010,1.120,-2.27,2.66,0.00,0.00,2.27,-2.66,0.00,7.94,-9.31,16.45,-10.47,0.00,4.44,-1.78,3.00,1100,1100,1100,1100,1030,1502,1520,10996,811
186592,9,-9.28,-1.55,-0.13,0.125,-0.305,1.248,-8.31,6.33,0.00,0.00,8.31,-6.33,0.00,29.07,-22.15,38.35,-20.60,0.00,5.73,-0.42,5.65,1100,1100,1100,1100,1030,1502,1520,11000,811
186604,9,-9.77,13.52,-1.18,-0.069,-0.268,0.799,-6.07,0.07,0.00,0.00,6.07,-0.07,0.00,21.23,-0.25,31.01,-13.78,0.00,5.12,-6.16,23.58,1100,1100,1100,1100,1044,1502,1506,11000,811
186616,9,2.62,1.52,0.62,0.041,0.232,0.851,-1.87,1.61,0.00,0.00,1.87,-1.61,0.00,6.53,-5.64,3.91,-7.16,0.00,-0.93,-1.04,-15.91,1100,1100,1100,1100,1044,1502,1506,11000,811
186629,9,9.82,5.29,0.14,-0.330,-0.274,1.419,-4.88,0.62,0.00,0.00,4.88,-0.62,0.00,17.07,-2.16,7.26,-7.45,0.00,-4.16,-2.39,1.15,1100,1100,1100,1100,1044,1502,1506,11004,811
186641,9,-6.99,-0.69,1.48,-0.144,-0.134,0.880,-2.63,-2.17,0.00,0.00,2.63,2.17,0.00,9.21,7.59,16.20,8.29,0.00,3.36,0.78,-16.24,1100,1100,1100,1100,1044,1502,1506,11012,809
186652,9,0.81,-8.42,0.72,0.020,-0.182,1.269,-5.69,-1.47,0.00,0.00,5.69,1.47,0.00,19.90,5.15,19.09,13.57,0.00,0.68,4.16,-3.23,1100,1100,1100,1100,1044,1502,1506,11012,809
186664,9,1.03,10.97,0.61,-0.150,-0.277,0.942,-7.78,-3.29,0.00,0.00,7.78,3.29,0.00,27.23,11.51,26.19,0.54,0.00,-0.07,-4.26,-3.43,1100,1100,1100,1100,1045,1502,1506,11021,809
186677,9,-4.11,-0.24,0.49,0.112,0.501,0.913,-1.17,1.29,0.00,0.00,1.17,-1.29,0.00,4.08,-4.50,8.19,-4.27,0.00,2.30,-0.50,-11.42,1100,1100,1100,1100,1045,1502,1506,11012,809
186689,9,11.59,-3.67,-1.57,0.102,0.148,1.087,-2.38,3.48,0.00,0.00,2.38,-3.48,0.00,8.34,-12.19,-3.25,-8.52,0.00,-5.10,1.54,30.97,1100,1100,1100,1100,1043,1502,1508,11016,809
186701,9,-9.04,2.99,0.24,-0.066,0.010,0.914,-0.21,5.81,0.00,0.00,0.21,-5.81,0.00,0.74,-20.32,9.78,-23.32,0.00,4.15,-2.74,-3.72,1100,1100,1100,1100,1045,1502,1506,11016,809
186712,9,2.48,-9.12,-0.50,0.129,-0.188,1.058,-3.06,2.55,0.00,0.00,3.06,-2.55,0.00,10.69,-8.92,8.21,0.20,0.00,-0.19,4.51,6.75,1100,1100,1100,1100,1045,1502,1506,11029,809
186724,9,1.90,15.19,-0.97,-0.423,-0.316,1.117,-2.34,-5.11,0.00,0.00,2.34,5.11,0.00,8.19,17.87,6.29,2.68,0.00,-1.16,-4.75,13.17,1100,1100,1100,1100,1046,1501,1506,11025,809
186736,9,-1.66,-12.02,-0.75,0.364,0.160,0.686,-2.14,10.26,0.00,0.00,2.14,-10.26,0.00,7.51,-35.89,9.16,-23.87,0.00,1.29,3.69,4.89,1100,1100,1100,1100,1046,1501,1506,11021,809
186749,9,14.12,-15.29,0.27,0.284,-0.164,0.826,-7.22,13.83,0.00,0.00,7.22,-13.83,0.00,25.28,-48.40,11.17,-33.12,0.00,-5.80,4.95,-8.10,1100,1100,1100,1100,1046,1501,1506,11012,814
186761,9,-14.35,13.15,-0.28,-0.036,0.039,0.896,-1.25,12.22,0.00,0.00,1.25,-12.22,0.00,4.39,-42.78,18.74,-55.92,0.00,6.78,-9.92,15.42,1100,1100,1100,1100,1045,1501,1507,11008,814
186773,9,3.99,-6.69,2.18,-0.011,0.040,1.233,-4.79,10.65,0.00,0.00,4.79,-10.65,0.00,16.76,-37.29,12.76,-30.60,0.00,-0.78,0.40,-36.26,1100,1100,1100,1100,1045,1501,1507,10996,814
186784,9,5.72,6.25,0.16,0.101,-0.361,0.865,-6.80,6.75,0.00,0.00,6.80,-6.75,0.00,23.78,-23.62,18.06,-29.88,0.00,-2.34,-3.47,-7.48,1100,1100,1100,1100,1045,1502,1507,10987,814
186796,9,-6.76,-1.12,-0.88,0.047,0.092,0.990,-3.06,5.78,0.00,0.00,3.06,-5.78,0.00,10.70,-20.23,17.46,-19.11,0.00,4.23,-0.70,18.82,1100,1100,1100,1100,1045,1501,1507,10996,814
186809,9,1.69,-4.83,-0.36,0.279,-0.242,1.074,-8.97,10.82,0.00,0.00,8.97,-10.82,0.00,31.40,-37.89,29.71,-33.06,0.00,0.47,0.70,8.05,1100,1100,1100,1100,1047,1501,1506,10996,814
186821,9,-7.73,3.88,-1.67,0.334,0.005,0.628,-2.64,15.99,0.00,0.00,2.64,-15.99,0.00,9.23,-55.96,16.96,-59.84,0.00,3.71,-4.84,38.14,1100,1100,1100,1100,1047,1501,1506,10996,814
186832,9,7.08,-4.12,0.98,0.348,0.328,1.053,-1.87,10.01,0.00,0.00,1.87,-10.01,0.00,6.56,-35.03,-0.52,-30.91,0.00,-2.69,1.00,-14.27,1100,1100,1100,1100,1047,1501,1506,11000,814
186845,9,5.80,-2.78,-0.13,0.077,-0.451,0.804,-4.63,11.30,0.00,0.00,4.63,-11.30,0.00,16.21,-39.56,10.41,-36.79,0.00,-2.59,0.16,-2.51,1100,1100,1100,1100,1047,1501,1506,10996,815
186856,9,-5.93,2.26,-0.38,-0.183,-0.128,1.077,-2.86,8.79,0.00,0.00,2.86,-8.79,0.00,10.01,-30.76,15.94,-33.02,0.00,3.71,-2.35,6.52,1100,1100,1100,1100,1047,1501,1506,11000,815
186869,9,4.92,3.90,2.32,-0.339,-0.222,1.300,-4.94,1.45,0.00,2.07,4.94,0.62,0.00,17.29,2.16,12.37,-1.75,0.00,-1.67,-1.05,-40.14,1100,1100,1100,1100,1030,1501,1523,10996,815
186881,9,-8.07,6.19,-1.20,-0.061,0.277,0.958,1.12,-0.95,0.00,0.00,-1.12,0.95,0.00,-3.93,3.34,4.14,-2.86,0.00,3.41,-2.35,28.26,1100,1100,1100,1100,1039,1502,1520,11000,815
186892,9,8.69,-10.78,-1.67,0.333,0.168,0.803,-1.37,3.01,0.00,0.00,1.37,-3.01,0.00,4.80,-10.54,-3.89,0.24,0.00,-3.56,4.95,32.43,1100,1100,1100,1100,1039,1502,1520,10996,815
186904,9,5.45,2.07,1.56,-0.093,-0.463,1.185,-2.78,6.81,0.00,0.00,2.78,-6.81,0.00,9.73,-23.83,4.28,-25.90,0.00,-2.46,-2.45,-39.97,1100,1100,1100,1100,1054,1500,1507,10996,815
186916,9,-8.22,-1.52,0.06,-0.112,0.060,1.214,-1.37,0.70,0.00,0.00,1.37,-0.70,0.00,4.78,-2.47,12.99,-0.95,0.00,4.59,0.47,-0.66,1100,1100,1100,1100,1054,1500,1507,10996,815
186929,9,3.21,-1.73,1.67,-0.112,0.094,1.105,-1.71,0.91,0.00,0.00,1.71,-0.91,0.00,5.99,-3.17,2.78,-1.45,0.00,-1.32,1.01,-40.90,1100,1100,1100,1100,1057,1500,1507,10996,815
186941,9,-6.56,-0.41,-2.30,0.379,0.113,0.725,1.38,7.20,0.00,0.00,-1.38,-7.20,0.00,-4.83,-25.20,1.73,-24.79,0.00,2.84,-1.44,37.44,1100,1100,1100,1100,1057,1500,1507,10996,818
186952,9,8.44,-2.54,-0.03,0.101,-0.076,0.894,-2.87,5.77,0.00,0.00,2.87,-5.77,0.00,10.04,-20.20,1.60,-17.66,0.00,-3.14,0.39,-0.49,1100,1100,1100,1100,1057,1500,1507,10987,818
186964,9,-3.65,13.84,-1.23,-0.304,-0.149,1.238,-0.82,2.72,0.00,0.00,0.82,-2.72,0.00,2.87,-9.53,6.52,-23.37,0.00,1.51,-7.10,12.55,1100,1100,1100,1100,1057,1500,1507,11000,818
186977,9,-8.72,-9.24,-0.49,0.162,0.225,0.936,0.02,4.29,0.00,0.00,-0.02,-4.29,0.00,-0.07,-15.03,8.65,-5.79,0.00,4.61,3.46,6.55,1100,1100,1100,1100,1057,1501,1507,11008,818
186989,9,6.72,-1.87,1.97,-0.003,0.008,0.888,-2.39,5.19,0.00,2.61,2.39,-2.58,0.00,8.35,-9.02,1.63,-7.14,0.00,-2.97,0.45,-43.13,1100,1100,1100,1100,1034,1501,1529,11008,818
187001,9,-14.23,19.48,-1.90,-0.408,-0.558,1.279,-4.32,0.90,0.00,0.00,4.32,-0.90,0.00,15.12,-3.15,29.35,-22.63,0.00,7.26,-9.74,41.95,1100,1100,1100,1100,1056,1500,1508,11008,818
187012,9,4.73,-3.83,1.08,-0.029,-0.253,1.020,-5.72,-0.06,0.00,0.00,5.72,0.06,0.00,20.03,0.19,15.30,4.02,0.00,-1.11,1.79,-15.98,1100,1100,1100,1100,1056,1500,1508,11004,818
187024,9,-1.94,6.79,-2.66,-0.110,-0.206,1.023,-4.14,4.23,0.00,0.00,4.14,-4.23,0.00,14.49,-14.79,16.43,-21.58,0.00,1.18,-4.35,44.79,1100,1100,1100,1100,1058,1500,1506,11004,818
187036,9,-3.61,-6.31,0.71,0.216,0.372,0.957,0.56,8.34,0.00,0.00,-0.56,-8.34,0.00,-1.94,-29.20,1.66,-22.89,0.00,1.86,1.09,-18.61,1100,1100,1100,1100,1058,1500,1506,11008,818
187049,9,2.15,-1.53,2.89,0.098,-0.040,0.863,-1.99,4.91,0.00,0.00,1.99,-4.91,0.00,6.98,-17.18,4.83,-15.66,0.00,-0.72,-0.26,-63.54,1100,1100,1100,1100,1058,1500,1506,11012,809
187061,9,-5.30,5.40,-2.55,-0.090,-0.411,0.832,-4.33,5.10,0.00,0.00,4.33,-5.10,0.00,15.16,-17.84,20.45,-23.24,0.00,2.96,-3.99,55.12,1100,1100,1100,1100,1056,1500,1508,11012,809
187072,9,-0.92,1.84,0.54,0.208,-0.294,0.870,-5.99,9.71,0.00,0.00,5.99,-9.71,0.00,20.97,-33.98,21.89,-35.83,0.00,1.59,-3.02,-9.86,1100,1100,1100,1100,1056,1500,1508,11004,809
187085,9,2.66,-4.05,-1.84,0.314,0.232,0.818,-1.44,13.82,0.00,0.00,1.44,-13.82,0.00,5.03,-48.37,2.37,-44.31,0.00,-1.28,-0.86,24.40,1100,1100,1100,1100,1054,1500,1510,11008,809
187096,9,-4.70,-13.01,0.20,0.373,0.261,0.714,-2.36,19.63,0.00,0.00,2.36,-19.63,0.00,8.26,-68.70,12.96,-55.69,0.00,2.73,1.80,-4.29,1100,1100,1100,1100,1054,1500,1510,11008,809
187109,9,4.74,-1.75,1.40,0.042,-0.092,0.955,-2.79,10.83,0.00,0.00,2.79,-10.83,0.00,9.77,-37.92,5.03,-36.17,0.00,-1.87,-1.40,-25.05,1100,1100,1100,1100,1071,1500,1508,11012,809
187121,9,-5.31,6.19,-3.29,0.087,-0.404,1.021,-5.57,9.65,0.00,0.00,5.57,-9.65,0.00,19.49,-33.78,24.80,-39.97,0.00,3.14,-5.01,67.79,1100,1100,1100,1100,1078,1500,1506,11008,809
187132,9,-4.54,-3.92,-0.46,0.336,-0.239,0.580,-8.29,14.42,0.00,0.00,8.29,-14.42,0.00,29.00,-50.46,33.54,-46.55,0.00,3.53,-0.81,-0.47,1100,1100,1100,1100,1078,1500,1506,11008,809
187144,9,-0.53,7.25,0.17,-0.082,0.189,1.109,-3.86,7.70,0.00,0.00,3.86,-7.70,0.00,13.52,-26.95,14.05,-34.20,0.00,0.33,-4.77,-15.58,1100,1100,1100,1100,1087,1500,1508,11004,811
187157,9,2.58,-10.67,1.36,0.228,0.215,0.878,-5.28,8.50,0.00,0.00,5.28,-8.50,0.00,18.49,-29.73,15.91,-19.06,0.00,-0.50,2.60,-15.24,1100,1100,1100,1100,1087,1500,1508,11000,811
187169,9,7.62,-9.96,0.20,0.287,-0.108,0.837,-5.84,11.17,0.00,3.15,5.84,-8.02,0.00,20.44,-28.07,12.81,-18.11,0.00,-2.73,2.31,0.93,1100,1100,1100,1100,1060,1500,1535,11008,811
187181,9,-2.95,7.34,-3.30,-0.207,-0.322,1.372,-6.96,5.05,0.00,0.00,6.96,-5.05,0.00,24.35,-17.67,27.30,-25.01,0.00,2.20,-4.73,63.98,1100,1100,1100,1100,1081,1500,1514,11004,811
187192,9,-2.77,-3.96,3.91,0.304,-0.153,0.623,-8.57,11.73,0.00,0.00,8.57,-11.73,0.00,29.99,-41.05,32.76,-37.10,0.00,2.33,-0.41,-79.63,1100,1100,1100,1100,1081,1500,1514,11008,811
187204,9,0.09,-4.01,1.19,0.266,0.167,0.906,-5.34,12.09,0.00,0.00,5.34,-12.09,0.00,18.69,-42.33,18.60,-38.32,0.00,0.48,-0.91,-27.18,1100,1100,1100,1100,1085,1500,1511,11012,811
187216,9,2.52,-4.57,-1.31,-0.156,-0.044,1.074,-7.77,11.41,0.00,0.00,7.77,-11.41,0.00,27.18,-39.94,24.65,-35.36,0.00,-0.22,-0.92,35.69,1100,1100,1100,1100,1085,1500,1511,11008,811
187229,9,1.67,0.13,-0.66,0.180,0.092,0.778,-4.61,7.03,0.00,0.00,4.61,-7.03,0.00,16.14,-24.62,14.48,-24.75,0.00,-0.30,-1.61,9.73,1100,1100,1100,1100,1085,1500,1511,11000,811
187241,9,-5.00,6.10,-2.20,0.151,-0.467,1.162,-7.82,6.51,0.00,0.00,7.82,-6.51,0.00,27.37,-22.79,32.37,-28.89,0.00,3.38,-4.48,36.58,1100,1100,1100,1100,1086,1501,1513,10996,811
187252,9,-2.59,-5.51,3.02,0.093,-0.123,0.780,-5.16,8.37,0.00,0.00,5.16,-8.37,0.00,18.05,-29.31,20.64,-23.80,0.00,2.01,0.72,-63.16,1100,1100,1100,1100,1086,1501,1513,11004,811
187264,9,-0.23,-1.90,0.50,0.024,0.211,1.046,-3.39,7.35,0.00,0.00,3.39,-7.35,0.00,11.87,-25.71,12.10,-23.81,0.00,0.49,-1.09,-15.71,1100,1100,1100,1100,1086,1501,1513,11004,811
187276,9,2.01,2.81,-0.76,-0.220,-0.336,1.262,-5.41,4.52,0.00,0.00,5.41,-4.52,0.00,18.95,-15.81,16.93,-18.62,0.00,-0.36,-3.05,17.86,1100,1100,1100,1100,1086,1501,1513,10996,811
187289,9,-0.63,0.38,-1.05,0.065,-0.134,0.723,-4.40,4.29,0.00,0.00,4.40,-4.29,0.00,15.41,-15.03,16.05,-15.42,0.00,0.96,-0.92,16.66,1100,1100,1100,1100,1093,1501,1507,11000,811
187301,9,-2.86,0.19,-2.53,0.160,-0.238,1.111,-7.25,10.56,0.00,0.00,7.25,-10.56,0.00,25.37,-36.95,28.24,-37.14,0.00,2.33,-2.55,39.70,1100,1100,1100,1100,1092,1501,1508,11012,811
187312,9,-3.24,-9.76,3.14,0.455,-0.156,0.648,-6.01,20.40,0.00,0.00,6.01,-20.40,0.00,21.05,-71.38,24.29,-61.62,0.00,2.23,-0.11,-64.17,1100,1100,1100,1100,1092,1501,1508,11004,811
187324,9,1.66,-8.65,2.33,0.072,0.049,1.066,-4.49,15.16,0.00,0.00,4.49,-15.16,0.00,15.73,-53.05,14.06,-44.40,0.00,-0.09,-0.10,-44.47,1100,1100,1100,1100,1094,1500,1506,11004,811
187336,9,5.30,-3.74,-0.52,-0.134,-0.089,1.237,-5.91,9.97,0.00,0.00,5.91,-9.97,0.00,20.68,-34.89,15.37,-31.15,0.00,-1.77,-1.47,21.87,1100,1100,1100,1100,1094,1500,1506,11008,811
187349,9,-5.16,3.12,-0.58,0.033,-0.098,0.761,-5.05,4.66,0.00,0.00,5.05,-4.66,0.00,17.68,-16.30,22.84,-19.42,0.00,3.28,-2.97,14.81,1100,1100,1100,1100,1098,1500,1507,11000,810
187361,9,-3.11,7.05,-2.87,0.122,-0.324,1.232,-4.69,1.75,0.00,0.00,4.69,-1.75,0.00,16.42,-6.12,19.53,-13.17,0.00,2.28,-3.03,52.25,1100,1100,1100,1100,1099,1502,1504,10996,810
187372,9,-2.79,-0.97,2.90,0.211,-0.014,0.714,-3.34,9.09,0.00,0.00,3.34,-9.09,0.00,11.67,-31.82,14.46,-30.84,0.00,1.48,-1.01,-51.28,1100,1100,1100,1100,1099,1502,1504,10996,810
187384,9,3.01,-7.92,3.31,0.101,0.094,0.864,-2.27,11.44,0.00,0.00,2.27,-11.44,0.00,7.96,-40.05,4.95,-32.13,0.00,-0.76,1.37,-66.14,1100,1100,1100,1100,1103,1502,1503,10996,810
187396,9,7.32,4.03,-2.47,-0.215,-0.496,1.344,-4.11,7.42,0.00,0.00,4.11,-7.42,0.00,14.38,-25.96,7.06,-29.99,0.00,-3.04,-3.71,58.55,1100,1100,1100,1100,1103,1502,1503,10987,810
187409,9,-2.68,2.95,-0.76,-0.156,0.109,0.938,0.55,7.02,0.00,0.00,-0.55,-7.02,0.00,-1.94,-24.58,0.74,-27.53,0.00,1.25,-3.14,20.99,1100,1100,1100,1100,1089,1502,1519,10996,810
187421,9,-0.96,-10.73,-0.91,0.537,0.127,0.902,-0.25,12.64,0.00,0.00,0.25,-12.64,0.00,0.87,-44.26,1.82,-33.52,0.00,0.86,3.18,14.99,1100,1100,1100,1100,1105,1502,1503,10996,810
187432,9,-0.10,-6.02,2.34,0.230,0.050,0.817,0.73,11.08,0.00,0.00,-0.73,-11.08,0.00,-2.57,-38.78,-2.47,-32.76,0.00,-0.33,0.73,-43.15,1100,1100,1100,1100,1105,1502,1503,10996,810
187444,9,7.02,-13.82,0.10,0.205,0.246,0.904,-0.36,9.55,0.00,0.00,0.36,-9.55,0.00,1.27,-33.43,-5.75,-19.61,0.00,-3.12,4.39,-12.18,1100,1100,1100,1100,1113,1502,1503,11000,805
187456,9,12.72,7.24,-2.51,-0.368,-0.258,1.379,-3.38,1.30,0.00,0.00,3.38,-1.30,0.00,11.82,-4.54,-0.90,-11.78,0.00,-5.76,-3.05,45.22,1100,1100,1100,1100,1113,1502,1503,11012,805
187469,9,-4.36,-1.76,1.80,0.017,0.030,0.866,-0.29,4.84,0.00,0.00,0.29,-4.84,0.00,1.03,-16.93,5.39,-15.18,0.00,2.33,0.11,-40.35,1100,1100,1100,1100,1100,1502,1516,11012,805
187481,9,-4.12,-4.85,-1.95,0.056,-0.324,1.230,-5.68,4.16,0.00,0.00,5.68,-4.16,0.00,19.89,-14.54,24.01,-9.69,0.00,3.24,2.29,40.73,1100,1100,1100,1100,1125,1502,1503,11012,805
187493,9,-3.20,5.10,-0.25,0.048,0.014,0.783,1.02,5.64,0.00,0.00,-1.02,-5.64,0.00,-3.56,-19.76,-0.35,-24.86,0.00,1.00,-3.63,-0.51,1100,1100,1100,1100,1125,1502,1503,11016,805
187504,9,2.53,-7.43,0.41,0.078,0.285,0.972,-0.32,4.46,0.00,3.24,0.32,-1.22,0.00,1.11,-4.28,-1.43,3.15,0.00,-0.87,2.82,-21.58,1100,1100,1100,1100,1093,1501,1536,11012,805
187516,9,7.54,5.27,-0.65,-0.242,-0.531,1.350,-5.62,-1.29,0.00,3.24,5.62,4.53,0.00,19.68,15.86,12.15,10.59,0.00,-3.03,-1.24,7.32,1100,1100,1100,1100,1093,1502,1536,11021,805
187529,9,-8.20,2.75,-0.14,0.013,-0.041,0.786,-2.29,5.21,0.00,0.00,2.29,-5.21,0.00,8.00,-18.22,16.20,-20.97,0.00,4.25,-2.67,3.63,1100,1100,1100,1100,1125,1502,1503,11021,805
187541,9,4.35,-2.04,-0.39,0.010,-0.008,1.371,-6.39,6.62,0.00,0.00,6.39,-6.62,0.00,22.35,-23.17,18.00,-21.13,0.00,-0.94,0.01,8.26,1100,1100,1100,1100,1126,1502,1504,11021,805
187552,9,-4.50,-1.81,-1.57,0.133,-0.237,0.686,-5.91,6.33,0.00,0.00,5.91,-6.33,0.00,20.69,-22.15,25.19,-20.34,0.00,2.35,-0.46,30.42,1100,1100,1100,1100,1126,1502,1504,11008,805
187564,9,1.16,-11.72,-0.63,0.222,0.333,0.820,-2.03,9.06,0.00,0.00,2.03,-9.06,0.00,7.11,-31.71,5.95,-20.00,0.00,0.04,3.34,3.14,1100,1100,1100,1100,1131,1502,1503,11008,805
187576,9,9.78,8.30,1.91,-0.090,-0.169,1.394,-5.66,7.92,0.00,0.00,5.66,-7.92,0.00,19.80,-27.70,10.02,-36.00,0.00,-4.20,-5.47,-42.16,1100,1100,1100,1100,1131,1502,1503,11000,805
187589,9,-9.17,5.17,2.76,-0.114,-0.091,1.017,-2.15,7.04,0.00,3.06,2.15,-3.98,0.00,7.52,-13.92,16.70,-19.09,0.00,4.83,-3.46,-56.09,1100,1100,1100,1100,1106,1502,1534,10996,805
187601,9,-0.98,-4.82,-1.56,0.132,-0.189,1.104,-6.72,0.74,0.00,2.97,6.72,2.23,0.00,23.53,7.82,24.51,12.65,0.00,1.80,3.08,27.90,1100,1100,1100,1100,1110,1500,1533,10996,805
187612,9,-3.31,7.03,-2.40,-0.077,-0.230,0.887,-2.71,3.53,0.00,2.97,2.71,-0.56,0.00,9.50,-1.96,12.81,-8.99,0.00,1.15,-3.70,44.50,1100,1100,1100,1100,1110,1500,1533,10996,805
187624,9,-1.70,-3.67,0.93,-0.067,0.156,1.071,-2.99,3.01,0.00,0.00,2.99,-3.01,0.00,10.48,-10.52,12.18,-6.86,0.00,1.56,1.53,-25.41,1100,1100,1100,1100,1139,1501,1503,10996,805
187636,9,2.71,9.72,2.07,0.056,-0.354,1.139,-7.56,5.10,0.00,0.00,7.56,-5.10,0.00,26.46,-17.86,23.75,-27.58,0.00,-0.58,-5.04,-36.57,1100,1100,1100,1100,1139,1501,1503,10991,805
187649,9,-2.83,-0.14,1.66,-0.041,0.258,1.039,-0.33,5.64,0.00,0.00,0.33,-5.64,0.00,1.15,-19.75,3.98,-19.61,0.00,1.33,-1.22,-25.83,1100,1100,1100,1100,1140,1501,1505,10996,806
187661,9,2.36,-6.59,-0.02,-0.005,-0.029,1.195,-5.48,2.77,0.00,0.00,5.48,-2.77,0.00,19.17,-9.69,16.81,-3.10,0.00,-0.01,2.96,3.21,1100,1100,1100,1100,1140,1501,1505,10996,806
187672,9,-7.43,8.55,-1.48,0.150,-0.360,0.840,-4.67,3.29,0.00,0.00,4.67,-3.29,0.00,16.34,-11.51,23.78,-20.05,0.00,3.80,-4.65,32.82,1100,1100,1100,1100,1140,1501,1505,11000,806
187684,9,0.45,0.06,0.79,-0.010,0.275,1.017,-1.38,5.09,0.00,0.00,1.38,-5.09,0.00,4.85,-17.81,4.40,-17.87,0.00,0.70,-1.90,-5.88,1100,1100,1100,1100,1155,1501,1503,11012,806
187697,9,12.18,-3.05,0.77,0.060,-0.105,1.099,-4.06,4.68,0.00,0.00,4.06,-4.68,0.00,14.22,-16.37,2.04,-13.31,0.00,-5.55,0.78,-16.85,1100,1100,1100,1100,1155,1500,1503,11004,806
187709,9,-10.33,-3.76,-1.88,-0.037,0.220,0.937,1.80,2.81,0.00,3.42,-1.80,0.61,0.00,-6.29,2.15,4.05,5.91,0.00,4.71,1.14,32.82,1100,1100,1100,1100,1121,1500,1538,11000,806
187721,9,7.42,-10.10,0.63,0.312,-0.274,0.895,-5.19,3.03,0.00,0.00,5.19,-3.03,0.00,18.18,-10.60,10.76,-0.49,0.00,-2.46,4.93,-23.45,1100,1100,1100,1100,1171,1501,1503,10996,806
187732,9,2.32,20.47,0.82,-0.246,-0.324,1.107,-3.31,3.83,0.00,0.00,3.31,-3.83,0.00,11.58,-13.39,9.26,-33.86,0.00,-1.18,-10.39,-24.41,1100,1100,1100,1100,1171,1501,1503,10996,806
187744,9,-10.26,2.74,0.72,-0.059,0.084,1.168,-2.94,5.94,0.00,0.00,2.94,-5.94,0.00,10.28,-20.80,20.54,-23.54,0.00,5.95,-2.36,-5.42,1233,1119,1119,1213,1171,1501,1503,10983,805
187756,9,-0.42,5.01,-0.30,0.088,-0.338,1.001,-6.79,1.93,0.00,0.00,6.79,-1.93,0.00,23.78,-6.76,24.20,-11.77,0.00,0.95,-1.51,6.38,1233,1119,1119,1213,1171,1501,1503,10966,805
187769,9,-15.44,11.44,-5.88,-0.292,-0.401,1.059,-3.64,0.52,0.00,0.00,3.64,-0.52,0.00,12.73,-1.83,28.17,-13.27,0.00,7.25,-5.55,107.05,1233,1119,1119,1213,1155,1501,1520,10954,805
187781,9,0.53,-19.28,-0.40,0.512,0.084,0.594,-3.30,10.96,0.00,0.00,3.30,-10.96,0.00,11.55,-38.35,11.03,-19.07,0.00,0.76,6.34,-0.66,1233,1119,1119,1213,1175,1501,1504,10954,805
187792,9,7.18,-1.21,1.84,0.395,0.112,0.597,-1.72,12.73,0.00,0.00,1.72,-12.73,0.00,6.01,-44.55,-1.17,-43.34,0.00,-3.61,-1.89,-41.29,1233,1119,1119,1213,1175,1501,1504,10946,805
187805,9,-21.56,3.96,-4.04,0.463,-0.018,0.446,-2.44,18.20,0.00,0.00,2.44,-18.20,0.00,8.52,-63.71,30.08,-67.67,0.00,10.20,-5.47,82.96,1233,1119,1119,1213,1177,1503,1502,10937,805
187817,9,4.65,-19.94,-2.98,0.676,0.478,0.503,2.48,21.10,0.00,0.00,-2.48,-21.10,0.00,-8.69,-73.84,-13.35,-53.91,0.00,-1.98,4.77,61.87,1233,1119,1119,1213,1177,1501,1502,10950,805
187829,9,6.42,-3.18,0.49,0.286,0.181,0.758,-0.45,16.10,0.00,0.00,0.45,-16.10,0.00,1.57,-56.36,-4.85,-53.18,0.00,-3.12,-1.95,-18.36,1233,1119,1119,1213,1189,1501,1504,10916,805
187841,9,-2.08,13.98,-0.36,0.104,-0.120,1.046,-0.26,8.63,0.00,0.00,0.26,-8.63,0.00,0.91,-30.19,2.99,-44.18,0.00,0.52,-8.38,-0.07,1181,1197,1181,1197,1189,1501,1505,10891,804
187852,9,10.92,-33.20,3.60,0.141,0.371,0.797,0.53,11.28,0.00,0.00,-0.53,-11.28,0.00,-1.87,-39.48,-12.79,-6.28,0.00,-4.91,13.38,-64.57,1181,1197,1181,1197,1189,1501,1505,10887,804
187865,9,14.68,-45.69,7.57,0.788,0.254,-0.320,27.39,25.59,0.00,0.00,-27.39,-25.59,0.00,-95.88,-89.56,-110.56,-43.86,0.00,-11.08,17.14,-146.28,1181,1197,1181,1197,1191,1501,1504,10887,804
187877,9,0.26,-5.50,0.64,0.990,0.451,-0.585,39.57,21.61,0.00,0.00,-39.57,-21.61,0.00,-138.50,-75.64,-138.77,-70.14,0.00,-6.48,-0.33,-24.88,1181,1197,1181,1197,1191,1501,1504,10867,804
187889,9,2.60,19.54,-8.07,0.762,0.089,0.680,18.28,14.82,0.00,0.00,-18.28,-14.82,0.00,-63.97,-51.86,-66.57,-71.40,0.00,-3.29,-10.80,143.55,1181,1197,1181,1197,1191,1501,1504,10875,804
187901,9,-11.12,8.66,-0.33,-1.178,-0.186,2.107,22.58,14.37,0.00,0.00,-22.58,-14.37,0.00,-79.05,-50.31,-67.93,-58.97,0.00,1.90,-8.98,64.07,1181,1197,1181,1197,1193,1500,1508,10883,804
187912,9,8.57,-26.10,9.19,-0.250,0.766,1.335,-2.26,28.67,0.00,0.00,2.26,-28.67,0.00,7.92,-100.35,-0.65,-74.26,0.00,-4.26,5.25,-126.61,1181,1197,1181,1197,1193,1500,1508,10887,804
187924,9,-1.79,-6.51,0.19,0.671,0.573,1.279,-5.27,18.05,0.00,0.00,5.27,-18.05,0.00,18.46,-63.16,20.25,-56.65,0.00,3.13,-1.30,-15.47,1181,1197,1181,1197,1196,1500,1505,10858,804
187937,9,38.51,-21.77,-4.19,1.173,0.624,-0.054,15.17,19.87,0.00,0.00,-15.17,-19.87,0.00,-53.09,-69.54,-91.60,-47.77,0.00,-19.70,5.86,104.64,1181,1197,1181,1197,1196,1500,1505,10854,804
187949,1,9.64,22.04,4.01,-0.744,-1.234,1.163,-1.46,3.60,0.00,0.00,1.46,-3.60,0.00,5.10,-12.60,-4.55,-34.65,0.00,-6.49,-9.12,-68.09,1107,1297,1299,1121,1206,1500,1505,10842,805
187961,1,-54.70,13.13,-2.98,-0.866,-0.509,1.305,15.74,10.31,0.00,0.00,-15.74,-10.31,0.00,-55.12,-36.11,-0.42,-49.24,0.00,22.45,-8.00,36.02,1107,1297,1299,1121,1208,1500,1503,10850,805
187972,1,-37.53,-17.22,-6.98,0.622,1.048,0.963,17.28,11.27,0.00,0.00,-17.28,-11.27,0.00,-60.53,-39.49,-23.00,-22.27,0.00,18.01,7.91,131.08,1107,1297,1299,1121,1208,1500,1503,10867,805
187984,1,58.17,17.39,2.17,0.503,1.182,1.219,-0.18,12.61,0.00,0.00,0.18,-12.61,0.00,0.59,-44.16,-57.58,-61.55,0.00,-25.61,-10.63,-44.11,1107,1297,1299,1121,1211,1500,1503,10858,805
187997,1,63.10,19.59,5.17,1.030,-2.227,0.453,-22.06,10.29,0.00,0.00,22.06,-10.29,0.00,77.17,-36.08,14.07,-55.68,0.00,-29.14,-11.42,-113.05,1107,1297,1299,1121,1211,1500,1503,10875,805
188009,1,-19.10,-15.76,-1.54,0.578,-1.836,0.264,-15.76,4.16,0.00,0.00,15.76,-4.16,0.00,55.13,-14.63,74.23,1.13,0.00,7.20,7.04,21.67,1107,1297,1299,1121,1205,1500,1512,10875,805
188021,1,-73.30,-7.76,-1.85,-1.172,-0.330,1.425,-9.62,-8.88,0.00,0.00,9.62,8.88,0.00,33.67,31.02,106.97,38.78,0.00,36.68,9.37,14.60,1107,1297,1299,1121,1208,1500,1511,10858,805
188032,1,-29.83,-10.58,-13.07,-0.239,0.286,1.135,-4.90,8.66,0.00,0.00,4.90,-8.66,0.00,17.15,-30.37,46.97,-19.78,0.00,17.55,4.66,204.90,1107,1297,1299,1121,1208,1500,1511,10858,805
188044,1,25.57,46.85,-5.22,-1.167,0.705,2.277,-8.39,1.28,0.00,0.00,8.39,-1.28,0.00,29.38,-4.55,3.81,-51.40,0.00,-9.88,-20.01,66.83,1346,1104,1100,1350,1213,1500,1511,10858,801
188057,1,34.88,-24.91,-5.62,0.837,-0.387,0.166,-23.47,19.14,0.00,0.00,23.47,-19.14,0.00,82.17,-67.07,47.29,-42.16,0.00,-14.11,11.66,52.60,1346,1104,1100,1350,1213,1501,1511,10829,801
188069,9,6.33,34.52,-3.30,-0.497,-0.797,1.916,-7.41,8.88,0.00,3.24,7.41,-5.64,0.00,25.94,-19.75,19.60,-54.27,0.00,-2.71,-18.50,13.05,1346,1104,1100,1350,1187,1501,1536,10808,801
188081,1,-18.62,2.76,1.10,1.185,-0.493,-0.132,-22.10,13.77,0.00,0.00,22.10,-13.77,0.00,77.34,-48.18,95.96,-50.94,0.00,12.12,-1.76,-86.80,1346,1104,1100,1350,1218,1500,1514,10821,801
188092,1,4.15,-20.19,1.69,0.696,1.181,0.383,-1.43,15.83,0.00,0.00,1.43,-15.83,0.00,5.04,-55.41,0.88,-35.22,0.00,-1.55,5.05,-94.01,1346,1104,1100,1350,1218,1500,1514,10833,801
188105,1,17.63,-4.72,2.07,-0.208,-0.003,1.005,-2.46,2.70,0.00,0.00,2.46,-2.70,0.00,8.61,-9.49,-9.02,-4.77,0.00,-7.58,2.24,-80.85,1346,1104,1100,1350,1221,1500,1511,10846,801
188116,1,-4.76,-18.00,-4.26,0.028,-0.968,1.246,-12.26,8.01,0.00,0.00,12.26,-8.01,0.00,42.93,-28.06,47.68,-10.06,0.00,4.40,7.52,62.66,1346,1104,1100,1350,1221,1500,1511,10854,801
188129,1,1.11,2.32,-5.50,-0.401,0.047,1.251,-1.83,2.59,0.00,0.00,1.83,-2.59,0.00,6.44,-9.10,5.33,-11.43,0.00,-0.94,0.15,125.18,1346,1104,1100,1350,1228,1500,1506,10858,801
188141,1,11.76,-3.92,-1.83,-0.384,-0.502,1.245,1.68,6.11,0.00,0.00,-1.68,-6.11,0.00,-5.87,-21.43,-17.63,-17.51,0.00,-6.64,2.37,27.72,1211,1261,1253,1195,1230,1500,1511,10854,801
188152,1,-15.40,24.41,1.72,-0.688,-0.921,1.513,1.30,4.40,0.00,0.00,-1.30,-4.40,0.00,-4.52,-15.47,10.88,-39.88,0.00,7.28,-12.02,-37.20,1211,1261,1253,1195,1230,1500,1511,10854,801
188164,1,-26.24,18.93,3.58,0.245,-0.286,0.733,3.18,6.69,0.00,0.00,-3.18,-6.69,0.00,-11.12,-23.47,15.11,-42.39,0.00,13.30,-9.96,-83.83,1211,1261,1253,1195,1231,1500,1511,10846,801
188176,1,-2.31,16.75,6.09,0.345,0.634,0.676,1.21,11.13,0.00,0.00,-1.21,-11.13,0.00,-4.22,-39.04,-1.91,-55.79,0.00,1.88,-11.77,-98.80,1211,1261,1253,1195,1231,1500,1511,10842,801
188189,1,17.59,-28.45,1.30,1.046,0.523,-0.038,19.45,15.35,0.00,0.00,-19.45,-15.35,0.00,-68.06,-53.81,-85.65,-25.35,0.00,-10.44,10.33,-31.59,1211,1261,1253,1195,1235,1500,1511,10837,801
188201,1,1.67,-3.39,2.23,-0.592,-0.330,1.690,0.84,6.02,0.00,0.00,-0.84,-6.02,0.00,-2.93,-21.17,-4.59,-17.78,0.00,-0.93,-1.56,-42.68,1211,1261,1253,1195,1237,1500,1510,10833,801
188212,1,1.19,0.39,-8.04,0.054,-0.322,0.902,-2.08,-0.10,0.00,0.00,2.08,0.10,0.00,7.29,0.27,6.10,-0.12,0.00,-0.36,3.24,132.87,1211,1261,1253,1195,1237,1500,1510,10817,801
188224,1,-10.68,20.78,-7.52,-1.474,-0.337,2.107,11.59,-1.16,0.00,0.00,-11.59,1.16,0.00,-40.58,3.94,-29.90,-16.84,0.00,3.06,-7.70,122.84,1211,1261,1253,1195,1237,1500,1511,10825,801
188236,1,-0.11,2.82,-5.79,0.133,0.314,1.219,9.35,-1.14,0.00,0.00,-9.35,1.14,0.00,-32.76,3.89,-32.65,1.07,0.00,-1.40,2.92,96.97,1211,1261,1253,1195,1237,1500,1511,10825,801
188249,1,9.62,-14.60,-1.40,0.276,0.150,0.879,3.18,8.53,0.00,0.00,-3.18,-8.53,0.00,-11.15,-29.98,-20.77,-15.38,0.00,-4.73,6.62,30.83,1318,1170,1188,1280,1239,1500,1510,10817,801
188261,1,12.10,-4.67,3.35,0.665,-0.459,0.865,-3.02,19.82,0.00,0.00,3.02,-19.82,0.00,10.52,-69.51,-1.58,-64.84,0.00,-4.96,-1.69,-43.46,1318,1170,1188,1280,1244,1500,1510,10825,801
188272,1,-0.16,24.16,2.02,-0.033,-0.518,1.090,-2.49,8.96,0.00,0.00,2.49,-8.96,0.00,8.69,-31.52,8.85,-55.68,0.00,0.75,-12.07,-23.54,1318,1170,1188,1280,1244,1500,1510,10825,801
188284,1,-1.31,7.96,4.35,0.218,-0.534,0.826,-7.21,7.71,0.00,0.00,7.21,-7.71,0.00,25.19,-27.15,26.51,-35.11,0.00,1.55,-4.00,-83.07,1318,1170,1188,1280,1251,1501,1505,10837,801
188297,1,3.49,-1.80,3.61,0.316,0.078,0.581,-3.66,9.40,0.00,0.00,3.66,-9.40,0.00,12.79,-33.07,9.30,-31.28,0.00,-1.58,0.68,-81.02,1318,1170,1188,1280,1251,1501,1505,10817,801
188309,1,6.33,-7.87,1.57,-0.083,-0.161,0.408,-6.74,3.05,0.00,0.00,6.74,-3.05,0.00,23.55,-10.84,17.22,-2.97,0.00,-2.57,5.64,-51.98,1318,1170,1188,1280,1247,1501,1510,10787,801
188321,1,9.84,-10.03,3.04,-0.606,-0.268,0.995,-7.78,-5.20,0.00,2.25,7.78,7.45,0.00,27.22,25.90,17.38,35.93,0.00,-4.67,7.27,-71.61,1318,1170,1188,1280,1235,1501,1525,10771,801
188332,1,2.06,-10.62,2.53,-0.244,-0.230,1.231,-2.82,5.80,0.00,2.25,2.82,-3.55,0.00,9.85,-12.59,7.79,-1.97,0.00,-0.89,3.13,-48.32,1318,1170,1188,1280,1235,1501,1525,10762,801
188344,1,-7.98,20.66,-5.09,-0.392,-0.065,1.807,-0.70,3.60,0.00,0.00,0.70,-3.60,0.00,2.43,-12.76,10.41,-33.42,0.00,4.16,-11.40,92.58,1192,1326,1324,1178,1255,1501,1505,10746,801
188357,1,-4.97,-14.06,-10.05,0.765,-0.345,0.369,-8.59,18.48,0.00,0.00,8.59,-18.48,0.00,30.05,-64.86,35.02,-50.80,0.00,3.71,4.27,172.01,1192,1326,1324,1178,1255,1500,1505,10750,801
188369,1,0.28,-14.05,-10.54,0.016,-0.457,0.931,-34.11,22.27,0.00,2.97,34.11,-19.30,0.00,119.42,-67.77,119.14,-53.73,0.00,4.26,0.97,174.15,1192,1326,1324,1178,1236,1500,1533,10787,801
188381,1,2.92,2.01,-12.30,-0.601,-0.576,1.453,-17.84,5.46,0.00,0.00,17.84,-5.46,0.00,62.49,-19.34,59.58,-21.35,0.00,1.00,-1.06,190.91,1192,1326,1324,1178,1260,1501,1509,10779,801
188392,1,-5.98,-16.96,-7.76,-0.220,-0.661,0.936,-19.75,23.00,0.00,0.00,19.75,-23.00,0.00,69.19,-80.75,75.17,-63.79,0.00,6.03,3.19,109.93,1192,1326,1324,1178,1260,1501,1509,10771,801
188404,1,-20.67,9.37,-4.35,-1.558,-0.949,1.903,-0.32,15.72,0.00,0.00,0.32,-15.72,0.00,1.20,-55.31,21.87,-64.68,0.00,9.43,-9.65,52.77,1192,1326,1324,1178,1260,1504,1506,10775,801
188417,1,-36.03,43.68,-0.23,-1.926,-0.618,2.116,0.88,0.43,0.00,0.00,-0.88,-0.43,0.00,-3.01,-1.79,33.02,-45.48,0.00,16.61,-19.27,-12.19,1192,1326,1324,1178,1260,1500,1506,10758,801
188429,1,-29.96,30.41,1.25,-0.768,0.160,1.300,6.38,0.29,0.00,0.00,-6.38,-0.29,0.00,-22.27,-1.30,7.69,-31.71,0.00,13.41,-10.66,-39.91,1192,1326,1324,1178,1266,1500,1505,10754,801
188441,1,-30.02,17.79,0.71,0.666,0.742,0.301,20.40,16.06,0.00,0.00,-20.40,-16.06,0.00,-71.33,-56.52,-41.31,-74.31,0.00,12.66,-8.94,-38.15,1279,1219,1227,1319,1261,1504,1506,10754,806
188452,1,-20.67,18.42,1.77,0.816,1.223,0.227,30.51,26.86,0.00,0.00,-30.51,-26.86,0.00,-106.76,-94.33,-86.08,-112.75,0.00,7.41,-16.74,-62.26,1279,1219,1227,1319,1261,1504,1506,10742,806
188464,1,-1.59,17.72,0.47,0.306,1.701,0.907,25.72,17.99,0.00,1.89,-25.72,-16.10,0.00,-89.98,-56.70,-88.40,-74.42,0.00,-0.84,-16.59,-46.58,1279,1219,1227,1319,1257,1504,1521,10754,806
188477,1,8.42,21.34,-0.89,0.278,1.439,1.224,15.88,4.20,0.00,1.89,-15.88,-2.31,0.00,-55.56,-8.44,-63.98,-29.78,0.00,-4.48,-13.03,-20.86,1279,1219,1227,1319,1257,1504,1521,10750,806
188489,1,27.33,24.35,0.41,1.030,1.333,0.754,12.25,2.76,0.00,0.00,-12.25,-2.76,0.00,-42.86,-10.03,-70.19,-34.38,0.00,-13.36,-10.05,-52.51,1279,1219,1227,1319,1271,1504,1507,10758,806
188501,1,41.54,-10.71,-0.22,2.111,1.242,0.291,12.13,7.71,0.00,0.00,-12.13,-7.71,0.00,-42.47,-27.32,-84.01,-16.61,0.00,-20.48,7.03,-44.59,1279,1219,1227,1319,1279,1503,1506,10750,806
188512,1,48.55,-24.00,0.08,2.271,0.966,0.210,15.19,16.40,0.00,0.00,-15.19,-16.40,0.00,-53.19,-57.77,-101.74,-33.77,0.00,-23.96,10.16,-67.29,1279,1219,1227,1319,1279,1503,1506,10767,806
188524,1,59.15,-42.90,-0.61,2.456,1.498,0.002,13.58,14.61,0.00,0.00,-13.58,-14.61,0.00,-47.54,-51.49,-106.70,-8.59,0.00,-30.71,17.69,-75.29,1279,1219,1227,1319,1275,1500,1513,10771,806
188537,1,62.37,-31.96,2.92,1.708,0.947,0.224,20.45,26.64,0.00,0.00,-20.45,-26.64,0.00,-71.64,-93.65,-134.00,-61.69,0.00,-33.27,6.15,-146.89,1279,1219,1227,1319,1275,1503,1513,10754,806
188549,1,60.38,-51.92,3.99,1.368,0.505,0.132,25.23,26.58,0.00,0.00,-25.23,-26.58,0.00,-88.37,-93.47,-148.75,-41.55,0.00,-34.38,15.27,-161.17,1248,1286,1302,1288,1281,1503,1507,10746,805
188561,1,60.51,-56.84,3.32,0.925,0.003,0.069,14.35,25.67,0.00,0.00,-14.35,-25.67,0.00,-50.32,-90.30,-110.83,-33.46,0.00,-33.72,18.96,-133.22,1248,1286,1302,1288,1282,1503,1506,10746,805
188572,1,49.74,-45.27,2.01,-0.388,-0.861,1.075,1.82,2.58,0.00,0.00,-1.82,-2.58,0.00,-6.49,-9.49,-56.24,35.78,0.00,-26.97,20.51,-94.26,1248,1286,1302,1288,1282,1503,1506,10746,805
188584,1,47.91,-58.48,-0.39,0.308,-0.223,0.502,-2.03,0.48,0.00,0.00,2.03,-0.48,0.00,6.99,-2.12,-40.92,56.36,0.00,-26.41,26.88,-59.74,1248,1286,1302,1288,1289,1503,1502,10746,805
188597,1,35.07,-43.91,-2.86,-0.872,-1.115,1.223,-5.87,-13.58,0.00,0.00,5.87,13.58,0.00,20.41,47.10,-14.66,91.01,0.00,-18.35,26.53,-23.24,1248,1286,1302,1288,1289,1503,1502,10746,805
188609,1,-1.40,-34.47,-2.15,-1.183,-2.694,2.030,-3.92,-11.67,0.00,0.00,3.92,11.67,0.00,13.58,40.41,14.98,74.88,0.00,-0.52,22.89,-57.96,1248,1286,1302,1288,1284,1503,1508,10742,805
188621,1,-21.96,-27.21,-0.37,-0.436,-1.776,1.426,0.10,0.64,0.00,0.00,-0.10,-0.64,0.00,-0.47,-2.67,21.49,24.54,0.00,10.18,15.91,-86.40,1248,1286,1302,1288,1294,1503,1502,10713,805
188632,1,-44.95,-1.68,-1.07,-1.939,-0.590,1.743,-12.38,5.87,0.00,0.00,12.38,-5.87,0.00,43.23,-21.00,88.18,-19.32,0.00,23.45,-0.45,-50.34,1248,1286,1302,1288,1294,1503,1502,10692,805
188644,1,-44.35,11.49,-2.08,-2.034,0.700,1.784,-8.84,2.40,0.00,0.00,8.84,-2.40,0.00,30.86,-8.86,75.21,-20.35,0.00,22.63,-7.67,-12.54,1264,1330,1268,1298,1290,1503,1506,10725,805
188657,1,-30.01,12.14,-4.29,-2.247,1.367,1.519,0.58,-0.19,0.00,0.00,-0.58,0.19,0.00,-2.12,0.20,27.89,-11.95,0.00,15.14,-7.60,40.88,1264,1330,1268,1298,1290,1503,1506,10725,805
188669,1,-7.84,20.71,-6.49,-1.984,1.280,1.499,9.22,0.07,0.00,2.79,-9.22,2.72,0.00,-32.33,9.03,-24.48,-11.68,0.00,3.92,-10.50,81.39,1264,1330,1268,1298,1271,1503,1531,10721,805
188681,1,8.32,35.00,-12.15,-1.662,1.108,1.799,13.93,0.72,0.00,0.00,-13.93,-0.72,0.00,-48.84,-2.98,-57.16,-37.98,0.00,-3.84,-17.14,164.59,1264,1330,1268,1298,1298,1503,1506,10721,805
188692,1,18.62,38.31,-14.36,-1.075,1.056,1.805,2.25,5.91,0.00,0.00,-2.25,-5.91,0.00,-7.97,-21.17,-26.60,-59.49,0.00,-6.71,-20.08,180.44,1264,1330,1268,1298,1298,1503,1506,10713,805
188704,1,24.97,46.03,-16.30,-1.174,0.858,1.930,-3.64,4.94,0.00,0.00,3.64,-4.94,0.00,12.66,-17.79,-12.31,-63.82,0.00,-9.33,-22.33,188.52,1264,1330,1268,1298,1300,1503,1506,10721,805
188717,1,31.32,58.32,-16.15,-0.586,0.750,2.108,-4.09,10.05,0.00,0.00,4.09,-10.05,0.00,14.24,-35.69,-17.07,-94.01,0.00,-12.89,-29.30,177.02,1264,1330,1268,1298,1300,1503,1506,10729,805
188729,1,20.73,41.70,-13.31,-0.374,-0.051,1.652,-5.38,9.68,0.00,0.00,5.38,-9.68,0.00,18.77,-34.37,-1.97,-76.07,0.00,-8.19,-21.91,133.44,1264,1330,1268,1298,1305,1503,1502,10721,805
188741,1,12.81,46.32,-11.30,0.239,-0.751,1.018,-9.69,12.80,0.00,0.00,9.69,-12.80,0.00,33.84,-45.33,21.03,-91.65,0.00,-4.63,-24.35,123.75,1157,1451,1395,1197,1300,1503,1506,10729,805
188752,1,10.54,27.72,-11.25,0.705,-0.960,0.337,-14.96,14.56,0.00,0.00,14.96,-14.56,0.00,52.31,-51.49,41.76,-79.20,0.00,-3.25,-14.44,155.86,1157,1451,1395,1197,1300,1503,1506,10721,805
188764,1,1.82,19.12,-13.08,-0.367,-0.223,1.015,-7.37,1.84,0.00,0.00,7.37,-1.84,0.00,25.73,-6.98,23.90,-26.11,0.00,-1.18,-8.04,197.44,1157,1451,1395,1197,1301,1503,1506,10708,805
188777,1,-1.54,6.59,-9.97,0.053,-0.229,0.777,-7.82,-1.48,0.00,0.00,7.82,1.48,0.00,27.33,4.65,28.86,-1.95,0.00,0.56,0.94,139.63,1157,1451,1395,1197,1301,1503,1506,10708,805
188789,1,-21.20,5.54,-9.13,-0.294,-0.809,1.018,-7.04,-0.87,0.00,0.00,7.04,0.87,0.00,24.57,2.51,45.77,-3.03,0.00,9.51,0.25,124.65,1157,1451,1395,1197,1307,1503,1496,10725,805
188801,1,-23.73,-23.56,-11.92,0.877,-0.397,0.310,-4.52,17.99,0.00,0.00,4.52,-17.99,0.00,15.77,-63.49,39.50,-39.94,0.00,10.32,9.68,179.31,1157,1451,1395,1197,1308,1502,1496,10725,805
188812,1,-26.21,-10.74,-12.08,0.645,-0.924,0.491,-8.34,29.66,0.00,0.00,8.34,-29.66,0.00,29.13,-104.40,55.34,-93.66,0.00,12.88,-2.47,179.33,1157,1451,1395,1197,1308,1502,1496,10721,805
188825,1,-33.76,-30.77,-13.12,0.431,-1.327,0.213,-17.50,31.97,0.00,0.00,17.50,-31.97,0.00,61.22,-112.52,94.98,-81.75,0.00,18.48,2.36,202.17,1157,1451,1395,1197,1305,1502,1497,10725,805
188837,1,-51.34,-22.94,-12.41,0.017,-1.465,0.695,-21.42,25.66,0.00,0.00,21.42,-25.66,0.00,74.97,-90.47,126.31,-67.53,0.00,28.00,-4.08,189.56,1157,1451,1395,1197,1305,1502,1497,10721,805
188849,1,-52.43,7.70,-12.24,-1.399,-0.740,1.887,-15.92,12.34,0.00,0.00,15.92,-12.34,0.00,55.73,-43.87,108.16,-51.57,0.00,28.67,-16.24,191.30,1387,1243,1233,1361,1306,1502,1496,10717,806
188861,1,-49.37,5.09,-8.88,-0.749,-0.977,1.353,-11.42,0.43,0.00,0.00,11.42,-0.43,0.00,40.00,-2.20,89.37,-7.29,0.00,27.15,-8.07,119.04,1387,1243,1233,1361,1305,1502,1495,10721,806
188872,1,-54.07,50.29,-8.47,-2.022,0.297,2.175,-3.74,-10.81,0.00,0.00,3.74,10.81,0.00,13.15,37.15,67.22,-13.14,0.00,27.96,-23.91,101.88,1387,1243,1233,1361,1305,1502,1495,10708,806
188884,1,-52.29,33.78,-8.58,-0.804,1.115,1.083,6.83,-9.25,0.00,0.00,-6.83,9.25,0.00,-23.84,31.70,28.45,-2.08,0.00,25.89,-11.55,78.62,1387,1243,1233,1361,1306,1502,1495,10704,806
188897,1,-44.01,25.64,-8.59,-0.941,1.699,1.262,10.68,-9.10,0.00,0.00,-10.68,9.10,0.00,-37.34,31.19,6.67,5.55,0.00,22.44,-4.55,57.68,1387,1243,1233,1361,1306,1502,1495,10704,806
188909,1,-33.84,29.02,-4.40,-0.630,2.304,0.691,11.80,-2.58,0.00,0.00,-11.80,2.58,0.00,-41.24,8.36,-7.40,-20.66,0.00,17.36,-5.61,-23.75,1387,1243,1233,1361,1304,1502,1496,10704,806
188921,1,-22.86,16.23,-6.35,-0.447,2.692,0.389,8.84,7.40,0.00,0.00,-8.84,-7.40,0.00,-30.91,-26.57,-8.05,-42.80,0.00,12.92,-3.58,14.96,1387,1243,1233,1361,1306,1502,1490,10692,806
188932,1,-11.57,11.97,-3.75,-0.059,3.190,0.386,2.10,14.32,0.00,0.00,-2.10,-14.32,0.00,-7.29,-50.79,4.29,-62.76,0.00,8.11,-5.66,-35.66,1387,1243,1233,1361,1306,1502,1490,10704,806
188944,1,16.53,6.82,-1.92,0.899,3.571,-0.431,0.19,19.73,0.00,0.00,-0.19,-19.73,0.00,-0.60,-69.74,-17.14,-76.55,0.00,-4.63,-5.79,-75.49,1377,1295,1195,1333,1300,1502,1496,10700,806
188956,1,30.59,25.85,-0.99,0.872,3.644,0.377,-3.94,21.64,0.00,0.00,3.94,-21.64,0.00,13.87,-76.45,-16.72,-102.31,0.00,-10.74,-17.89,-92.42,1377,1295,1195,1333,1300,1497,1496,10671,806
188969,1,54.67,15.32,-3.35,1.401,3.316,0.437,-8.89,24.93,0.00,0.00,8.89,-24.93,0.00,31.24,-88.01,-23.44,-103.32,0.00,-21.59,-17.04,-50.35,1377,1295,1195,1333,1306,1497,1489,10667,806
188981,1,72.64,16.98,-7.08,1.303,3.406,0.405,-4.80,17.73,0.00,0.00,4.80,-17.73,0.00,16.91,-62.82,-55.73,-79.80,0.00,-30.58,-17.13,16.51,1377,1295,1195,1333,1306,1497,1487,10658,806
188992,1,83.16,3.42,-6.15,1.668,3.296,0.586,0.26,13.51,0.00,0.00,-0.26,-13.51,0.00,-0.77,-48.06,-83.93,-51.48,0.00,-36.55,-11.61,-20.74,1377,1295,1195,1333,1306,1497,1487,10638,806
189004,1,90.72,37.79,-8.57,0.549,2.371,1.682,1.22,5.25,0.00,0.00,-1.22,-5.25,0.00,-4.12,-19.16,-94.83,-56.95,0.00,-40.19,-26.77,21.27,1377,1295,1195,1333,1305,1497,1486,10638,806
189017,1,93.80,20.55,-7.73,0.280,1.747,1.576,1.68,-2.69,0.00,0.00,-1.68,2.69,0.00,-5.75,8.63,-99.55,-11.92,0.00,-42.49,-12.96,6.16,1377,1295,1195,1333,1305,1497,1486,10650,806
189029,1,60.80,4.02,-10.05,1.197,3.353,1.096,9.42,-5.79,0.00,0.00,-9.42,5.79,0.00,-32.82,19.51,-93.62,15.48,0.00,-30.22,-0.82,65.68,1377,1295,1195,1333,1305,1497,1486,10633,806
189041,1,77.74,35.60,-6.42,-0.283,1.430,2.005,6.44,-11.21,0.00,0.00,-6.44,11.21,0.00,-22.40,38.48,-100.15,2.88,0.00,-39.96,-14.51,9.22,1297,1343,1237,1247,1281,1497,1512,10633,829
189052,1,59.88,3.46,-7.26,0.903,0.895,1.064,3.49,-4.91,0.00,0.00,-3.49,4.91,0.00,-12.11,16.46,-71.99,13.00,0.00,-31.33,2.01,38.12,1297,1343,1237,1247,1281,1497,1512,10633,829
189064,1,47.39,-5.40,-12.10,0.753,0.181,1.316,-4.97,0.53,0.00,0.00,4.97,-0.53,0.00,17.53,-2.58,-29.86,2.82,0.00,-24.58,5.02,148.75,1297,1343,1237,1247,1307,1497,1486,10646,829
189077,1,42.11,-0.93,-14.29,0.599,-0.343,1.114,-8.01,-0.06,0.00,0.00,8.01,0.06,0.00,28.15,-0.53,-13.96,0.39,0.00,-21.42,4.69,184.98,1297,1343,1237,1247,1307,1496,1486,10650,829
189089,1,33.92,4.61,-13.21,-0.094,-0.956,1.439,-3.72,-9.18,0.00,0.00,3.72,9.18,0.00,13.16,31.40,-20.77,26.79,0.00,-17.27,3.36,149.15,1297,1343,1237,1247,1309,1496,1484,10650,829
189101,1,30.86,-17.39,-13.36,0.705,-1.284,0.868,-1.96,-4.14,0.00,0.00,1.96,4.14,0.00,6.97,13.79,-23.89,31.18,0.00,-14.74,12.21,139.18,1297,1343,1237,1247,1308,1496,1486,10650,829
189112,1,30.33,-7.07,-12.66,0.842,-1.671,0.780,-2.24,-1.04,0.00,0.00,2.24,1.04,0.00,7.98,2.96,-22.35,10.03,0.00,-13.57,3.47,111.73,1297,1343,1237,1247,1308,1496,1486,10650,829
189124,1,23.37,-2.74,-14.81,0.908,-1.215,1.008,2.15,6.61,0.00,0.00,-2.15,-6.61,0.00,-7.41,-23.84,-30.79,-21.10,0.00,-10.06,-1.59,148.03,1297,1343,1237,1247,1308,1496,1486,10650,829
189137,1,19.26,9.26,-16.14,0.766,-0.683,1.407,7.83,10.71,0.00,0.00,-7.83,-10.71,0.00,-27.30,-38.21,-46.56,-47.47,0.00,-7.92,-7.82,171.07,1297,1343,1237,1247,1308,1497,1486,10638,829
189149,1,6.81,-7.15,-8.59,1.019,-0.786,0.767,3.93,14.73,0.00,0.00,-3.93,-14.73,0.00,-13.66,-52.27,-20.47,-45.12,0.00,-1.98,1.15,47.11,1227,1345,1309,1263,1286,1497,1507,10667,832
189161,1,-1.39,-27.91,-14.34,0.371,0.460,0.415,18.42,8.76,0.00,0.00,-18.42,-8.76,0.00,-64.38,-31.38,-62.98,-3.47,0.00,-1.23,13.38,164.64,1227,1345,1309,1263,1308,1496,1486,10671,832
189172,1,-23.22,-17.35,-17.18,0.163,0.220,0.604,18.15,6.09,0.00,0.00,-18.15,-6.09,0.00,-63.48,-22.04,-40.26,-4.70,0.00,8.82,6.97,222.46,1227,1345,1309,1263,1308,1496,1486,10675,832
189184,1,-25.44,-8.50,-21.84,-0.647,0.895,1.414,21.56,-4.51,0.00,0.00,-21.56,4.51,0.00,-75.41,15.07,-49.97,23.57,0.00,9.02,6.85,320.66,1227,1345,1309,1263,1308,1496,1486,10683,832
189197,1,-24.31,-13.45,-23.07,-0.148,0.530,1.053,26.61,-1.78,0.00,0.00,-26.61,1.78,0.00,-93.12,5.52,-68.81,18.97,0.00,8.61,9.70,327.95,1227,1345,1309,1263,1308,1496,1486,10708,832
189209,1,-29.02,11.69,-18.40,-0.675,0.212,1.432,23.33,-6.76,0.00,0.00,-23.33,6.76,0.00,-81.67,22.95,-52.65,11.25,0.00,12.68,0.36,232.48,1227,1345,1309,1263,1308,1496,1487,10737,832
189221,1,-29.03,5.37,-10.56,-0.639,-1.430,0.644,0.73,-10.69,0.00,0.00,-0.73,10.69,0.00,-2.60,36.72,26.43,31.35,0.00,15.71,5.47,78.40,1227,1345,1309,1263,1309,1496,1486,10733,832
189233,1,-35.80,27.64,-11.19,-1.117,-1.058,1.038,-2.20,-16.42,0.00,0.00,2.20,16.42,0.00,7.65,56.77,43.45,29.13,0.00,19.97,-3.85,120.52,1227,1345,1309,1263,1309,1496,1486,10708,832
189244,1,-43.64,28.49,-12.22,-1.439,-0.902,1.111,-1.15,-17.46,0.00,0.00,1.15,17.46,0.00,4.00,60.44,47.64,31.95,0.00,23.62,-5.57,148.70,1301,1311,1313,1303,1307,1495,1489,10704,833
189257,1,-53.63,13.87,-14.91,-1.050,-0.929,0.579,-6.65,-20.82,0.00,0.00,6.65,20.82,0.00,23.25,72.21,76.89,58.34,0.00,28.49,1.48,202.91,1301,1311,1313,1303,1307,1496,1489,10683,833
189269,1,-55.09,18.32,-18.91,-1.371,-0.732,1.085,-6.64,-22.52,0.00,0.00,6.64,22.52,0.00,23.20,78.20,78.28,59.88,0.00,28.60,-1.29,266.82,1301,1311,1313,1303,1310,1496,1486,10667,833
189281,1,-57.70,35.17,-23.08,-2.135,-0.884,1.690,-8.45,-19.65,0.00,0.00,8.45,19.65,0.00,29.54,68.17,87.24,33.01,0.00,29.82,-12.13,331.09,1301,1311,1313,1303,1309,1496,1487,10646,833
189292,1,-63.70,29.76,-25.50,-1.454,-0.875,1.403,-11.05,-9.23,0.00,0.00,11.05,9.23,0.00,38.68,31.70,102.38,1.94,0.00,32.15,-13.15,350.00,1301,1311,1313,1303,1309,1496,1487,10646,833
189304,1,-63.09,35.85,-26.05,-1.715,-0.618,1.855,-17.41,-1.80,0.00,0.00,17.41,1.80,0.00,60.96,5.70,124.06,-30.15,0.00,32.68,-19.67,350.00,1301,1311,1313,1303,1309,1496,1487,10633,833
189317,1,-60.93,22.93,-23.41,-1.259,-0.819,1.751,-20.56,3.60,0.00,0.00,20.56,-3.60,0.00,72.02,-13.22,132.96,-36.15,0.00,31.82,-16.95,296.39,1301,1311,1313,1303,1309,1496,1487,10617,833
189329,1,-55.85,32.50,-19.93,-1.716,-0.839,2.460,-20.73,3.73,0.00,0.00,20.73,-3.73,0.00,72.65,-13.66,128.50,-46.16,0.00,28.97,-21.92,220.71,1301,1311,1313,1303,1308,1496,1487,10600,833
189341,1,-61.47,-6.61,-19.19,-1.192,-1.114,2.028,-17.78,7.49,0.00,0.00,17.78,-7.49,0.00,62.36,-26.86,123.83,-20.25,0.00,30.85,-4.55,202.57,1100,1455,1500,1111,1279,1497,1515,10633,841
189352,1,-57.22,-22.29,-18.29,-0.770,-1.374,1.453,-15.48,9.81,0.00,0.00,15.48,-9.81,0.00,54.33,-34.99,111.55,-12.70,0.00,28.57,3.34,172.70,1100,1455,1500,1111,1279,1497,1515,10650,841
189364,1,-41.18,-8.42,-14.20,-1.322,-1.762,2.291,-15.70,7.27,0.00,0.00,15.70,-7.27,0.00,55.12,-26.10,96.30,-17.68,0.00,21.14,-1.49,88.92,1100,1455,1500,1111,1310,1496,1486,10667,841
189377,1,-38.03,-24.28,-10.52,-0.638,-2.209,1.721,-14.62,11.08,0.00,0.00,14.62,-11.08,0.00,51.36,-39.47,89.39,-15.19,0.00,18.97,7.91,13.14,1100,1455,1500,1111,1310,1495,1486,10667,841
189389,1,-35.47,-13.55,-7.08,-0.825,-2.671,1.023,-15.10,8.60,0.00,0.00,15.10,-8.60,0.00,53.05,-30.81,88.52,-17.26,0.00,17.15,8.35,-38.54,1100,1455,1500,1111,1310,1495,1486,10671,841
189401,1,-36.14,1.31,-4.35,-1.156,-2.633,1.574,-11.86,-1.84,0.00,0.00,11.86,1.84,0.00,41.73,5.73,77.87,4.43,0.00,16.12,7.52,-81.24,1100,1455,1500,1111,1311,1495,1486,10667,841
189412,1,-40.94,-26.43,-3.28,-0.242,-2.186,0.651,-10.85,-5.65,0.00,0.00,10.85,5.65,0.00,38.20,19.06,79.14,45.49,0.00,17.11,21.37,-98.58,1100,1455,1500,1111,1311,1495,1486,10667,841
189424,1,-42.89,12.18,-5.20,-0.878,-1.220,1.645,-6.96,-16.84,0.00,0.00,6.96,16.84,0.00,24.58,58.24,67.47,46.06,0.00,16.60,6.26,-63.67,1100,1455,1500,1111,1311,1495,1486,10663,841
189437,1,-37.79,1.82,-4.72,-0.431,-1.003,1.790,-4.26,-12.06,0.00,0.00,4.26,12.06,0.00,15.12,41.53,52.91,39.70,0.00,13.11,5.26,-78.37,1100,1455,1500,1111,1311,1495,1486,10663,841
189449,1,-34.48,-2.30,-5.39,-0.475,-0.405,1.963,-13.30,-8.86,0.00,0.00,13.30,8.86,0.00,46.79,30.36,81.27,32.65,0.00,12.71,2.19,-55.82,1154,1480,1470,1132,1309,1495,1488,10646,856
189461,1,-29.31,1.12,-6.86,-0.420,-0.106,1.892,-16.49,3.24,0.00,0.00,16.49,-3.24,0.00,57.95,-12.01,87.26,-13.13,0.00,11.31,-2.13,-37.09,1154,1480,1470,1132,1311,1495,1486,10646,856
189472,1,-15.32,4.85,-8.22,-1.212,0.530,2.584,-24.96,1.30,0.00,0.00,24.96,-1.30,0.00,87.64,-5.22,102.96,-10.07,0.00,6.85,-4.99,-10.25,1154,1480,1470,1132,1311,1495,1486,10638,856
189484,1,-8.32,-6.58,-12.03,-0.744,0.864,2.179,-26.52,-5.89,0.00,0.00,26.52,5.89,0.00,93.15,19.96,101.47,26.54,0.00,4.91,2.35,62.70,1154,1480,1470,1132,1312,1495,1486,10650,856
189496,1,-15.66,2.51,-14.19,-0.414,1.100,2.278,-39.10,5.37,0.00,0.00,39.10,-5.37,0.00,137.23,-19.46,152.90,-21.97,0.00,10.58,-6.99,105.82,1154,1480,1470,1132,1312,1495,1486,10663,856
189509,1,-11.91,14.65,-16.53,-0.182,0.963,1.794,-42.11,18.24,0.00,0.00,42.11,-18.24,0.00,147.83,-64.55,159.74,-79.20,0.00,9.18,-14.60,142.34,1154,1480,1470,1132,1312,1495,1486,10667,856
189521,1,-17.93,-6.62,-16.49,0.059,0.951,1.522,-0.98,24.89,0.00,0.00,0.98,-24.89,0.00,3.87,-87.84,21.80,-81.22,0.00,6.44,-6.29,121.25,1154,1480,1470,1132,1311,1495,1487,10671,856
189532,1,-13.56,3.75,-13.95,-0.139,1.263,1.550,14.00,25.40,0.00,0.00,-14.00,-25.40,0.00,-48.56,-89.66,-35.00,-93.41,0.00,2.28,-10.44,54.44,1154,1480,1470,1132,1311,1495,1487,10667,856
189545,1,-17.54,2.05,-12.03,0.298,1.434,1.013,39.56,26.31,0.00,0.00,-39.56,-26.31,0.00,-138.04,-92.89,-120.49,-94.93,0.00,0.72,-11.11,6.01,1386,1274,1244,1312,1304,1495,1494,10658,931
189557,1,-24.19,-0.61,-10.99,0.653,1.601,0.850,16.96,32.50,0.00,0.00,-16.96,-32.50,0.00,-58.95,-114.58,-34.76,-113.97,0.00,6.98,-13.73,-21.27,1386,1274,1244,1312,1304,1495,1494,10658,931
189569,1,5.86,-19.36,-7.48,2.237,1.600,-0.526,6.60,41.47,0.00,0.00,-6.60,-41.47,0.00,-22.68,-146.02,-28.54,-126.67,0.00,-5.79,-8.44,-87.20,1386,1274,1244,1312,1311,1495,1487,10633,931
189581,1,24.98,34.11,-8.35,0.515,2.704,0.403,4.12,29.68,0.00,0.00,-4.12,-29.68,0.00,-14.02,-104.80,-39.00,-138.91,0.00,-12.48,-29.59,-59.88,1386,1274,1244,1312,1296,1495,1502,10638,931
189592,1,43.07,95.60,-11.10,-1.576,3.223,2.679,-1.03,3.97,0.00,0.00,1.03,-3.97,0.00,4.03,-14.81,-39.05,-110.42,0.00,-18.58,-48.13,-12.56,1386,1274,1244,1312,1296,1495,1502,10667,931
189604,1,69.59,-0.01,-2.36,0.775,2.043,0.423,-1.88,3.89,0.00,0.00,1.88,-3.89,0.00,7.00,-14.53,-62.59,-14.51,0.00,-30.22,0.05,-194.43,1386,1274,1244,1312,1311,1495,1487,10654,931
189617,1,74.89,-9.70,-6.43,1.463,0.911,0.502,0.40,5.02,0.00,0.00,-0.40,-5.02,0.00,-0.97,-18.50,-75.86,-8.80,0.00,-33.91,-0.01,-94.74,1386,1274,1244,1312,1311,1495,1487,10646,931
189629,1,103.39,7.24,-11.82,2.840,0.201,0.231,3.75,14.85,0.00,0.00,-3.75,-14.85,0.00,-12.68,-52.88,-116.08,-60.12,0.00,-48.41,-13.73,-7.75,1386,1274,1244,1312,1311,1495,1487,10646,931
189641,1,116.25,-5.12,-17.13,3.536,-0.527,-0.619,-28.97,22.82,0.00,0.00,28.97,-22.82,0.00,101.84,-80.80,-14.41,-75.68,0.00,-49.06,-10.60,91.29,1260,1462,1344,1182,1312,1495,1487,10654,937
189652,5,118.28,-21.03,-18.62,3.875,-0.334,-1.311,-49.85,25.86,0.00,0.00,49.85,-25.86,0.00,375.00,-91.48,256.72,-70.46,0.00,-39.32,-3.92,113.36,1260,1462,1344,1182,1312,1495,1487,10638,937
189664,5,95.90,-43.99,-13.80,3.750,-0.994,-1.218,-54.20,29.20,0.00,0.00,54.20,-29.20,0.00,375.00,-103.20,279.10,-59.21,0.00,-29.14,5.44,-5.18,1260,1462,1344,1182,1312,1494,1487,10650,937
189677,5,66.50,-67.49,-11.84,2.956,-1.585,-0.530,-47.95,28.77,0.00,0.00,47.95,-28.77,0.00,375.00,-101.71,308.50,-34.21,0.00,-15.99,15.05,-46.09,1260,1462,1344,1182,1312,1495,1487,10642,937
189689,1,30.84,-75.42,-8.12,1.339,-2.232,0.138,-40.25,18.38,0.00,0.00,40.25,-18.38,0.00,141.49,-65.36,110.65,10.06,0.00,-9.73,21.54,-94.83,1260,1462,1344,1182,1311,1495,1485,10663,937
189701,1,-4.35,-49.86,-5.81,0.658,-2.574,0.222,-28.41,6.32,0.00,0.00,28.41,-6.32,0.00,100.08,-23.18,104.43,26.68,0.00,4.86,19.09,-120.96,1260,1462,1344,1182,1313,1495,1485,10650,937
189712,1,-21.49,-28.59,-5.28,-0.318,-1.665,0.696,-17.61,-3.60,0.00,0.00,17.61,3.60,0.00,62.27,11.54,83.75,40.12,0.00,11.59,14.56,-127.61,1260,1462,1344,1182,1313,1495,1485,10638,937
189724,1,-24.33,-48.05,-2.49,-0.323,-0.824,0.917,-8.15,-5.48,0.00,0.00,8.15,5.48,0.00,29.15,18.14,53.48,66.20,0.00,12.61,22.46,-176.24,1260,1462,1344,1182,1313,1495,1484,10621,937
189737,1,-16.96,-37.80,-0.23,-0.499,0.346,0.516,3.96,-15.61,0.00,0.00,-3.96,15.61,0.00,-13.21,53.58,3.74,91.38,0.00,7.87,20.25,-212.31,1260,1462,1344,1182,1313,1495,1484,10621,937
189749,1,-3.20,-54.63,0.08,0.842,0.660,0.131,14.56,7.29,0.00,0.00,-14.56,-7.29,0.00,-50.33,-26.56,-47.13,28.07,0.00,1.44,20.57,-196.27,1100,1500,1500,1100,1312,1495,1484,10625,801
189761,1,6.86,-53.88,-1.78,1.465,0.785,-0.286,20.75,13.16,0.00,0.00,-20.75,-13.16,0.00,-72.00,-47.09,-78.86,6.79,0.00,-3.44,15.39,-163.63,1100,1500,1500,1100,1311,1496,1484,10642,801
189772,1,11.65,-27.94,-6.16,1.546,0.411,-0.066,19.68,22.78,0.00,0.00,-19.68,-22.78,0.00,-68.27,-80.80,-79.92,-52.86,0.00,-5.26,0.79,-76.78,1100,1500,1500,1100,1311,1496,1484,10638,801
189784,1,22.99,-38.59,-3.70,1.291,0.124,-0.224,29.16,37.43,0.00,0.00,-29.16,-37.43,0.00,-101.44,-132.12,-124.44,-93.53,0.00,-11.85,3.57,-125.77,1100,1500,1500,1100,1312,1496,1483,10638,801
189797,1,40.98,0.93,-3.76,1.356,0.709,0.213,23.80,29.85,0.00,0.00,-23.80,-29.85,0.00,-82.73,-105.59,-123.71,-106.53,0.00,-20.02,-11.14,-131.97,1100,1500,1500,1100,1312,1496,1483,10663,801
189809,1,50.42,-0.49,-1.12,1.196,0.816,0.215,15.72,31.03,0.00,0.00,-15.72,-31.03,0.00,-54.47,-109.78,-104.89,-109.29,0.00,-22.88,-11.26,-178.45,1100,1500,1500,1100,1312,1496,1485,10663,801
189821,1,56.83,21.85,-1.16,1.099,0.920,0.543,11.06,24.64,0.00,0.00,-11.06,-24.64,0.00,-38.15,-87.42,-94.98,-109.27,0.00,-24.59,-17.83,-176.54,1100,1500,1500,1100,1314,1496,1483,10642,801
189832,1,57.87,32.38,-4.02,1.037,1.375,0.763,7.55,24.41,0.00,0.00,-7.55,-24.41,0.00,-25.86,-86.65,-83.73,-119.03,0.00,-24.30,-21.13,-124.34,1100,1500,1500,1100,1314,1496,1483,10633,801
189845,1,57.01,52.46,-8.18,0.874,2.033,1.184,5.91,16.93,0.00,0.00,-5.91,-16.93,0.00,-20.14,-60.48,-77.15,-112.94,0.00,-22.55,-25.53,-50.81,1369,1271,1279,1333,1313,1494,1486,10600,806
189857,1,10.20,68.57,-13.83,-0.326,2.815,1.170,-4.66,13.61,0.00,0.00,4.66,-13.61,0.00,16.87,-48.86,6.67,-117.43,0.00,2.73,-28.94,69.83,1369,1271,1279,1333,1313,1494,1486,10596,806
189869,1,9.07,94.42,-12.40,-1.280,2.473,2.156,-8.88,6.26,0.00,0.00,8.88,-6.26,0.00,31.66,-23.15,22.59,-117.56,0.00,2.47,-38.78,44.87,1369,1271,1279,1333,1291,1494,1508,10629,806
189881,1,5.30,98.24,-11.46,-1.624,2.202,2.222,-24.23,6.36,0.00,0.00,24.23,-6.36,0.00,85.43,-23.50,80.13,-121.75,0.00,7.15,-37.21,35.37,1369,1271,1279,1333,1312,1494,1486,10654,806
189892,1,-4.12,79.57,-11.04,-1.240,2.000,1.653,-30.77,6.54,0.00,0.00,30.77,-6.54,0.00,108.33,-24.15,112.45,-103.72,0.00,12.62,-27.27,39.82,1369,1271,1279,1333,1312,1494,1486,10663,806
189904,1,-7.21,59.23,-9.40,-1.109,2.251,1.256,-25.78,5.82,0.00,0.00,25.78,-5.82,0.00,90.93,-21.65,98.14,-80.88,0.00,12.70,-17.35,18.16,1369,1271,1279,1333,1312,1494,1486,10671,806
189917,1,-1.69,65.20,-6.34,-1.129,2.385,1.066,-19.57,5.59,0.00,0.00,19.57,-5.59,0.00,69.21,-20.86,70.89,-86.06,0.00,8.05,-18.63,-36.51,1369,1271,1279,1333,1312,1494,1486,10675,806
189929,1,-0.06,73.95,-6.91,-0.796,2.449,1.323,-11.65,7.63,0.00,0.00,11.65,-7.63,0.00,41.52,-27.98,41.58,-101.92,0.00,5.05,-23.20,-19.98,1369,1271,1279,1333,1311,1494,1487,10658,806
189941,1,-5.02,59.00,-7.33,-0.829,2.802,1.095,-13.44,10.05,0.00,0.00,13.44,-10.05,0.00,47.84,-36.47,52.85,-95.47,0.00,7.24,-18.01,-10.90,1297,1313,1291,1347,1312,1494,1486,10667,805
189953,1,-1.44,66.51,-9.35,-0.910,2.808,1.430,-12.89,9.51,0.00,0.00,12.89,-9.51,0.00,45.92,-34.60,47.35,-101.11,0.00,5.35,-23.13,18.10,1297,1313,1291,1347,1312,1494,1486,10650,805
189964,1,-9.63,66.18,-9.72,-1.344,3.489,1.769,-21.15,12.61,0.00,-2.07,21.15,-14.68,0.00,74.86,-52.72,84.49,-118.91,0.00,9.36,-28.18,28.31,1297,1313,1291,1347,1321,1493,1477,10638,805
189977,1,-14.11,64.33,-7.82,-1.065,3.763,1.703,-19.35,10.68,0.00,-2.07,19.35,-12.75,0.00,68.60,-45.96,82.71,-110.30,0.00,10.52,-26.70,-8.47,1297,1313,1291,1347,1321,1493,1477,10633,805
189989,1,-7.85,56.33,-9.80,-0.493,4.167,1.494,-19.14,11.70,0.00,0.00,19.14,-11.70,0.00,67.91,-42.32,75.76,-98.65,0.00,6.51,-23.01,35.46,1297,1313,1291,1347,1311,1493,1486,10617,805
190001,1,-11.56,34.56,-12.17,0.169,3.970,0.875,-21.04,14.84,0.00,0.00,21.04,-14.84,0.00,74.57,-53.30,86.14,-87.86,0.00,6.85,-14.92,75.85,1297,1313,1291,1347,1312,1493,1486,10588,805
190012,1,-20.47,36.75,-12.32,0.673,4.198,0.608,-15.87,16.69,0.00,0.00,15.87,-16.69,0.00,56.54,-59.79,77.01,-96.54,0.00,8.67,-17.01,76.61,1297,1313,1291,1347,1312,1493,1486,10592,805
190024,1,-21.45,45.03,-14.26,0.809,4.362,0.743,-14.91,18.95,0.00,0.00,14.91,-18.95,0.00,53.20,-67.73,74.64,-112.76,0.00,7.38,-22.75,105.35,1297,1313,1291,1347,1312,1493,1486,10604,805
190036,1,-20.94,31.20,-15.09,1.013,3.696,0.508,-15.06,22.29,0.00,0.00,15.06,-22.29,0.00,53.76,-79.46,74.70,-110.66,0.00,6.23,-16.99,104.47,1297,1313,1291,1347,1312,1493,1486,10613,805
190049,1,-24.73,44.13,-15.22,0.560,2.961,0.650,-13.37,22.31,0.00,0.00,13.37,-22.31,0.00,47.88,-79.55,72.61,-123.68,0.00,6.93,-23.18,103.08,1258,1292,1368,1334,1313,1493,1485,10621,806
190061,1,-19.31,32.44,-13.88,1.124,2.600,0.384,-10.05,22.70,0.00,-1.89,10.05,-24.59,0.00,36.28,-87.55,55.59,-119.99,0.00,3.23,-18.32,83.29,1258,1292,1368,1334,1317,1494,1479,10629,806
190072,1,-9.45,39.59,-10.98,0.462,2.305,0.662,-7.16,21.05,0.00,-1.89,7.16,-22.94,0.00,26.16,-81.79,35.62,-121.38,0.00,-3.22,-22.20,43.30,1258,1292,1368,1334,1317,1494,1479,10633,806
190084,1,4.89,39.69,-11.77,-0.061,1.935,1.147,-4.25,13.20,0.00,-2.07,4.25,-15.27,0.00,16.02,-54.96,11.13,-94.64,0.00,-11.36,-22.15,74.59,1258,1292,1368,1334,1320,1493,1477,10633,806
190096,1,15.28,42.32,-10.77,-0.162,1.427,1.442,-8.26,8.78,0.00,-2.07,8.26,-10.85,0.00,30.07,-39.51,14.78,-81.84,0.00,-16.31,-26.89,67.77,1258,1292,1368,1334,1320,1493,1477,10617,806
190109,1,16.89,43.87,-14.16,-0.048,1.548,1.731,-8.44,5.05,0.00,0.00,8.44,-5.05,0.00,30.71,-19.22,13.82,-63.09,0.00,-17.78,-30.06,142.33,1258,1292,1368,1334,1311,1493,1486,10629,806
190121,1,18.90,55.73,-14.68,-0.902,1.941,2.308,-7.46,-1.87,0.00,0.00,7.46,1.87,0.00,27.29,5.00,8.39,-50.73,0.00,-19.79,-35.80,157.65,1258,1292,1368,1334,1311,1493,1486,10633,806
190132,1,17.79,22.92,-10.64,0.501,1.373,0.949,-4.01,1.37,0.00,0.00,4.01,-1.37,0.00,15.22,-6.34,-2.57,-29.26,0.00,-19.99,-18.31,79.26,1258,1292,1368,1334,1311,1493,1486,10629,806
190144,1,12.49,29.59,-11.61,0.501,1.201,1.295,-2.63,0.49,0.00,0.00,2.63,-0.49,0.00,10.39,-3.23,-2.10,-32.81,0.00,-18.60,-21.96,117.64,1473,1145,1205,1421,1311,1493,1486,10633,805
190157,1,17.42,1.77,-9.85,1.280,0.858,0.439,0.41,8.89,0.00,0.00,-0.41,-8.89,0.00,-0.25,-32.64,-17.67,-34.41,0.00,-22.34,-8.58,93.61,1473,1145,1205,1421,1311,1494,1486,10625,805
190169,1,20.04,1.19,-11.21,1.448,0.320,0.384,-0.92,15.35,0.00,0.00,0.92,-15.35,0.00,4.43,-55.25,-15.61,-56.44,0.00,-23.98,-7.71,126.35,1473,1145,1205,1421,1315,1494,1481,10629,805
190181,1,22.50,-0.01,-11.94,1.521,-0.189,0.365,-12.54,18.10,0.00,0.00,12.54,-18.10,0.00,45.09,-64.90,22.59,-64.89,0.00,-23.50,-7.01,133.28,1473,1145,1205,1421,1311,1493,1486,10629,805
190192,1,19.95,-0.14,-12.08,1.873,-0.500,0.190,-25.51,19.16,0.00,0.00,25.51,-19.16,0.00,90.48,-68.62,70.53,-68.48,0.00,-20.12,-7.54,124.46,1473,1145,1205,1421,1311,1493,1486,10633,805
190204,1,17.74,-3.12,-11.84,1.859,-0.420,0.019,-34.72,20.78,0.00,0.00,34.72,-20.78,0.00,122.78,-74.28,105.04,-71.16,0.00,-17.35,-6.21,106.10,1473,1145,1205,1421,1311,1493,1486,10638,805
190216,1,21.44,12.48,-9.91,1.519,-0.118,0.292,-26.30,20.80,0.00,0.00,26.30,-20.80,0.00,93.33,-74.39,71.89,-86.87,0.00,-20.17,-13.32,59.78,1473,1145,1205,1421,1311,1493,1486,10629,805
190229,1,27.23,24.34,-9.79,1.073,-0.137,0.702,-18.80,16.90,0.00,0.00,18.80,-16.90,0.00,67.10,-60.76,39.87,-85.09,0.00,-23.65,-19.06,55.60,1473,1145,1205,1421,1311,1493,1486,10617,805
190241,1,26.71,11.40,-10.26,1.249,-0.258,0.458,-19.82,18.48,0.00,0.00,19.82,-18.48,0.00,70.67,-66.29,43.96,-77.70,0.00,-22.92,-13.90,65.07,1256,1412,1342,1238,1312,1493,1486,10613,806
190252,1,30.81,7.47,-11.45,0.811,0.053,0.825,-13.91,15.35,0.00,0.00,13.91,-15.35,0.00,50.00,-55.36,19.19,-62.83,0.00,-25.56,-12.55,96.19,1256,1412,1342,1238,1312,1493,1486,10613,806
190264,1,44.90,4.07,-12.35,1.086,0.193,0.326,-6.11,19.29,0.00,-2.07,6.11,-21.36,0.00,22.73,-76.40,-22.17,-80.47,0.00,-33.09,-10.45,111.50,1256,1412,1342,1238,1320,1493,1477,10621,806
190277,1,52.94,7.19,-12.02,0.924,0.259,0.436,-0.86,17.44,0.00,-2.07,0.86,-19.51,0.00,4.36,-69.95,-48.58,-77.14,0.00,-37.43,-10.80,104.44,1256,1412,1342,1238,1320,1493,1477,10617,806
190289,1,63.49,11.10,-12.12,0.539,0.652,0.896,3.61,8.05,0.00,0.00,-3.61,-8.05,0.00,-11.31,-29.82,-74.80,-40.92,0.00,-42.42,-10.36,105.65,1256,1412,1342,1238,1310,1493,1486,10617,806
190301,1,57.21,8.47,-9.37,0.209,0.898,0.984,5.95,-0.03,0.00,0.00,-5.95,0.03,0.00,-19.51,-1.54,-76.72,-10.02,0.00,-39.36,-9.29,59.05,1256,1412,1342,1238,1319,1497,1481,10596,806
190312,1,45.33,0.22,-9.44,0.355,0.826,1.300,5.29,-4.88,0.00,0.00,-5.29,4.88,0.00,-17.18,15.42,-62.51,15.21,0.00,-33.69,-6.13,65.58,1256,1412,1342,1238,1319,1497,1481,10604,806
190324,1,25.43,-33.52,-8.87,0.855,0.664,1.122,0.61,1.82,0.00,0.00,-0.61,-1.82,0.00,-0.81,-8.00,-26.24,25.52,0.00,-24.55,4.01,69.91,1256,1412,1342,1238,1312,1497,1481,10600,806
190337,1,7.26,-46.10,-8.94,0.528,0.152,1.076,-6.53,1.22,0.00,0.00,6.53,-1.22,0.00,24.19,-5.93,16.92,40.17,0.00,-16.55,8.28,79.59,1256,1412,1342,1238,1312,1497,1481,10608,806
190349,1,1.73,-95.78,-10.01,2.143,-0.433,-0.515,-41.75,14.42,0.00,0.00,41.75,-14.42,0.00,147.48,-52.10,145.75,43.68,0.00,-9.65,26.48,100.65,1164,1438,1418,1228,1312,1497,1481,10621,806
190361,5,-4.97,-86.57,-11.59,2.651,-0.692,-0.788,-53.15,20.08,0.00,0.00,53.15,-20.08,0.00,375.00,-71.94,379.97,14.63,0.00,1.68,16.94,120.49,1164,1438,1418,1228,1318,1494,1480,10650,806
190372,5,-13.25,-79.41,-11.63,2.755,-1.146,-1.052,-51.01,20.93,0.00,0.00,51.01,-20.93,0.00,375.00,-74.92,388.25,4.49,0.00,4.77,11.22,102.94,1164,1438,1418,1228,1318,1494,1480,10642,806
190384,1,-20.15,-66.31,-13.60,2.739,-1.418,-0.826,-42.42,20.04,0.00,0.00,42.42,-20.04,0.00,149.96,-71.82,170.11,-5.51,0.00,-1.85,3.46,125.75,1164,1438,1418,1228,1312,1497,1481,10633,806
190397,1,-23.96,-27.30,-16.27,1.110,-1.444,0.887,-19.96,16.28,0.00,0.00,19.96,-16.28,0.00,71.38,-58.68,95.33,-31.38,0.00,-4.74,-16.17,168.76,1164,1438,1418,1228,1312,1497,1481,10633,806
190409,1,-39.31,-26.51,-14.34,0.086,-1.470,2.081,3.87,13.92,0.00,0.00,-3.87,-13.92,0.00,-12.04,-50.47,27.27,-23.95,0.00,-2.86,-17.87,132.66,1164,1438,1418,1228,1313,1497,1482,10617,806
190421,1,-58.77,-34.03,-12.18,-0.770,-1.324,2.529,18.79,12.33,0.00,0.00,-18.79,-12.33,0.00,-64.29,-44.91,-5.52,-10.88,0.00,2.84,-14.12,99.96,1164,1438,1418,1228,1313,1497,1481,10617,806
190432,1,-64.55,-25.05,-13.91,1.061,-5.256,2.198,12.53,5.52,0.00,0.00,-12.53,-5.52,0.00,-42.42,-21.07,22.13,3.99,0.00,5.84,-12.15,139.65,1164,1438,1418,1228,1313,1497,1481,10600,806
190444,1,21.76,125.10,0.26,0.882,-1.635,1.494,-6.95,2.39,0.00,0.00,6.95,-2.39,0.00,25.76,-10.11,4.00,-135.21,0.00,-26.44,-65.80,-139.95,1147,1425,1500,1119,1314,1497,1481,10596,805
190457,1,-15.95,59.82,-10.27,-0.857,-0.071,2.129,-1.83,-11.67,0.00,0.00,1.83,11.67,0.00,7.86,39.09,23.81,-20.73,0.00,-0.11,-19.09,87.96,1147,1425,1500,1119,1314,1497,1481,10600,805
190469,1,-6.41,67.60,-5.36,-0.105,1.009,1.625,-1.23,-6.72,0.00,0.00,1.23,6.72,0.00,5.74,21.78,12.14,-45.83,0.00,2.89,-20.47,2.92,1147,1425,1500,1119,1293,1497,1502,10567,805
190481,1,-23.60,48.28,-6.91,-1.068,1.270,1.602,8.18,-13.52,0.00,0.00,-8.18,13.52,0.00,-27.17,45.61,-3.57,-2.67,0.00,14.00,-10.18,-3.38,1147,1425,1500,1119,1319,1497,1482,10571,805
190492,1,-27.93,78.90,-15.49,-1.739,1.719,2.288,11.76,-14.16,0.00,0.00,-11.76,14.16,0.00,-39.72,47.87,-11.79,-31.03,0.00,17.54,-21.48,154.31,1147,1425,1500,1119,1319,1497,1482,10567,805
190504,1,-37.25,96.54,-18.73,-1.993,1.703,2.283,14.19,-10.73,0.00,0.00,-14.19,10.73,0.00,-48.24,35.85,-10.99,-60.69,0.00,22.99,-24.73,194.82,1147,1425,1500,1119,1319,1496,1483,10583,805
190516,1,-56.52,61.08,-26.14,-2.593,-0.287,2.117,9.70,-18.08,0.00,0.00,-9.70,18.08,0.00,-32.52,61.62,24.00,0.54,0.00,31.46,-5.98,292.84,1147,1425,1500,1119,1319,1498,1483,10600,805
190529,1,-45.17,20.29,-22.70,-1.812,-1.171,1.671,2.27,-21.12,0.00,0.00,-2.27,21.12,0.00,-6.53,72.26,38.64,51.97,0.00,28.32,8.50,219.52,1147,1425,1500,1119,1319,1498,1485,10608,805
190541,1,-40.62,12.86,-19.90,-1.041,-1.809,1.945,-3.24,-13.20,0.00,0.00,3.24,13.20,0.00,12.77,44.55,53.39,31.69,0.00,27.78,5.40,156.31,1143,1445,1500,1187,1321,1498,1483,10600,805
190552,1,-24.30,5.10,-17.62,-1.001,-2.637,2.190,-15.29,-2.98,0.00,0.00,15.29,2.98,0.00,54.95,8.77,79.25,3.67,0.00,22.84,4.87,120.00,1143,1445,1500,1187,1321,1498,1483,10608,805
190565,1,-9.81,-25.67,-12.42,-1.158,-2.840,1.974,-29.86,4.72,0.00,0.00,29.86,-4.72,0.00,105.97,-18.16,115.79,7.51,0.00,18.26,15.05,28.98,1143,1445,1500,1187,1322,1499,1483,10613,805
190576,1,-14.12,-34.56,-9.19,-0.857,-3.066,1.351,-17.43,2.68,0.00,0.00,17.43,-2.68,0.00,62.51,-11.05,76.63,23.51,0.00,18.86,21.06,-21.62,1143,1445,1500,1187,1322,1499,1483,10604,805
190589,1,-15.82,-33.82,-5.65,-1.058,-3.462,1.286,-11.25,-0.84,0.00,0.00,11.25,0.84,0.00,40.89,1.27,56.71,35.09,0.00,18.67,20.79,-76.05,1143,1445,1500,1187,1315,1499,1490,10621,805
190601,1,-15.35,-52.75,-5.83,0.200,-3.148,0.576,-8.10,1.28,0.00,0.00,8.10,-1.28,0.00,29.84,-6.15,45.20,46.60,0.00,17.88,27.96,-68.72,1143,1445,1500,1187,1322,1499,1483,10613,805
190612,1,-15.39,-43.08,-5.96,-0.328,-2.397,0.466,-7.89,3.32,0.00,0.00,7.89,-3.32,0.00,29.11,-13.30,44.50,29.78,0.00,17.41,22.16,-65.51,1143,1445,1500,1187,1322,1499,1483,10592,805
190624,1,-17.14,-26.86,-5.42,-0.674,-1.907,0.621,-12.18,-5.31,0.00,0.00,12.18,5.31,0.00,44.15,16.89,61.29,43.76,0.00,19.53,18.89,-89.05,1143,1445,1500,1187,1319,1496,1486,10575,805
190636,1,-12.68,-45.74,-4.21,-0.399,-1.569,0.610,-12.36,-6.11,0.00,0.00,12.36,6.11,0.00,44.76,19.70,57.45,65.44,0.00,18.63,24.04,-116.02,1143,1445,1500,1187,1319,1496,1486,10583,805
190649,1,-5.38,-41.14,-5.03,-0.082,-1.256,0.118,-17.71,-8.02,0.00,0.00,17.71,8.02,0.00,63.51,26.40,68.89,67.54,0.00,17.18,20.34,-102.50,1179,1500,1465,1121,1320,1496,1485,10571,805
190661,1,-5.22,-25.80,-4.19,0.191,-1.146,0.787,-19.55,2.75,0.00,0.00,19.55,-2.75,0.00,69.95,-11.29,75.17,14.51,0.00,17.39,6.21,-102.48,1179,1500,1465,1121,1320,1496,1480,10558,805
190672,1,0.56,-27.86,-5.62,1.164,-0.663,0.534,-30.88,23.46,0.00,0.00,30.88,-23.46,0.00,109.64,-83.82,109.08,-55.96,0.00,16.48,-1.04,-70.99,1179,1500,1465,1121,1320,1496,1480,10558,805
190684,1,2.64,-3.73,-6.85,-0.356,0.183,1.685,-20.07,15.53,0.00,0.00,20.07,-15.53,0.00,71.84,-56.06,69.20,-52.34,0.00,13.92,-10.23,-57.92,1179,1500,1465,1121,1292,1496,1508,10571,805
190697,1,2.97,-33.68,-5.59,-0.302,0.624,0.854,-1.58,-2.28,0.00,0.00,1.58,2.28,0.00,7.14,6.27,4.17,39.95,0.00,11.78,9.34,-95.90,1179,1500,1465,1121,1292,1488,1508,10571,805
190709,1,8.11,-35.80,-7.60,0.476,0.833,0.274,13.53,-4.00,0.00,0.00,-13.53,4.00,0.00,-45.74,12.29,-53.85,48.09,0.00,7.35,9.83,-51.97,1179,1500,1465,1121,1310,1488,1489,10600,805
190721,1,11.47,-53.56,-9.35,0.785,0.817,0.197,23.40,10.30,0.00,0.00,-23.40,-10.30,0.00,-80.31,-37.78,-91.78,15.79,0.00,4.11,8.83,-8.60,1179,1500,1465,1121,1310,1488,1489,10625,805
190732,1,30.59,-63.04,-8.28,1.228,0.559,0.022,41.02,29.74,0.00,0.00,-41.02,-29.74,0.00,-141.99,-105.83,-172.57,-42.80,0.00,-7.69,4.87,-30.90,1179,1500,1465,1121,1310,1488,1489,10667,805
190744,1,47.88,-33.00,-6.30,1.098,0.458,0.823,42.81,38.45,0.00,0.00,-42.81,-38.45,0.00,-148.32,-136.37,-196.20,-103.37,0.00,-16.44,-16.44,-69.14,1451,1233,1227,1333,1311,1489,1488,10663,806
190757,1,60.27,-9.97,-8.38,1.092,0.565,1.323,-5.29,39.12,0.00,0.00,5.29,-39.12,0.00,20.06,-138.75,-40.21,-128.78,0.00,-15.43,-29.06,-37.32,1451,1233,1227,1333,1311,1489,1488,10654,806
190769,1,80.47,27.36,-12.00,0.781,1.007,2.088,-8.35,27.03,0.00,0.00,8.35,-27.03,0.00,30.76,-96.47,-49.71,-123.83,0.00,-24.53,-43.32,15.23,1451,1233,1227,1333,1311,1489,1488,10638,806
190781,1,103.27,-5.50,-17.12,0.686,0.506,1.797,-8.20,12.24,0.00,-2.16,8.20,-14.40,0.00,30.25,-52.28,-73.02,-46.79,0.00,-32.47,-17.45,110.60,1451,1233,1227,1333,1320,1488,1476,10633,806
190792,1,151.54,23.45,-12.38,0.651,2.203,0.796,0.46,7.62,0.00,-2.16,-0.46,-9.78,0.00,-0.06,-36.10,-151.60,-59.55,0.00,-52.49,-21.05,14.06,1451,1233,1227,1333,1320,1488,1476,10613,806
190804,1,130.16,-13.13,-18.08,1.018,1.205,0.297,2.97,10.25,0.00,0.00,-2.97,-10.25,0.00,-8.85,-37.76,-139.01,-24.63,0.00,-39.46,0.70,134.74,1451,1233,1227,1333,1307,1488,1489,10600,806
190816,1,121.04,8.77,-19.71,0.092,0.433,0.999,-10.46,5.91,0.00,0.00,10.46,-5.91,0.00,38.19,-22.56,-82.85,-31.33,0.00,-32.30,-6.89,187.64,1451,1233,1227,1333,1307,1480,1489,10592,806
190829,1,93.02,-21.87,-20.78,0.537,-0.626,0.875,-33.67,6.83,0.00,0.00,33.67,-6.83,0.00,119.46,-25.82,26.44,-3.94,0.00,-14.67,9.33,199.63,1451,1233,1227,1333,1303,1480,1497,10600,806
190841,1,74.23,6.06,-22.37,0.990,-0.781,0.626,-30.81,21.29,-1.89,0.00,28.92,-21.29,0.00,102.87,-76.41,28.64,-82.47,0.00,-6.36,-8.79,222.84,1100,1500,1500,1100,1299,1479,1501,10613,807
190852,1,44.43,33.64,-21.98,-0.505,-0.253,1.808,-10.30,18.29,-1.89,0.00,8.41,-18.29,0.00,31.06,-65.94,-13.37,-99.58,0.00,4.14,-22.71,201.78,1100,1500,1500,1100,1299,1479,1501,10617,807
190864,1,13.42,-1.42,-15.79,-1.099,0.025,1.701,5.28,15.62,-2.16,0.00,-7.44,-15.62,0.00,-24.41,-56.62,-37.84,-55.20,0.00,14.72,-6.43,83.60,1100,1500,1500,1100,1300,1476,1500,10633,807
190877,1,6.03,-44.11,-10.55,0.184,0.950,-0.222,33.77,21.12,-1.98,0.00,-35.75,-21.12,0.00,-123.53,-75.89,-129.56,-31.78,0.00,12.93,11.93,-15.71,1100,1500,1500,1100,1300,1478,1500,10629,807
190889,1,22.52,-24.90,-8.28,-0.156,1.588,0.239,34.13,14.90,-1.98,0.00,-36.11,-14.90,0.00,-124.82,-54.14,-147.34,-29.24,0.00,4.08,0.54,-46.29,1100,1500,1500,1100,1314,1478,1485,10642,807
190901,1,69.70,18.44,-8.28,0.492,0.890,1.042,36.02,23.35,-1.98,0.00,-38.00,-23.35,0.00,-131.46,-83.76,-201.16,-102.21,0.00,-18.97,-27.72,-30.29,1100,1500,1500,1100,1302,1478,1498,10654,807
190912,1,78.90,8.59,-14.10,1.417,-0.527,0.904,24.06,39.22,-1.98,0.00,-26.04,-39.22,0.00,-89.64,-139.32,-168.54,-147.92,0.00,-20.20,-26.32,102.35,1100,1500,1500,1100,1302,1478,1498,10663,807
190924,1,91.06,76.64,-6.42,2.086,1.523,0.923,15.84,30.38,-1.98,0.00,-17.82,-30.38,0.00,-60.88,-108.43,-151.93,-185.07,0.00,-24.45,-45.41,8.79,1100,1500,1500,1100,1302,1478,1498,10654,807
190937,1,65.27,40.80,7.74,2.594,2.861,-0.608,21.77,25.36,-1.98,0.00,-23.75,-25.36,0.00,-81.66,-90.88,-146.93,-131.67,0.00,-20.73,-15.40,-137.31,1100,1500,1500,1100,1302,1478,1498,10650,807
190949,1,79.28,19.93,23.52,4.640,-0.111,-1.364,-29.68,24.99,-1.98,0.00,27.70,-24.99,0.00,98.42,-89.59,19.14,-109.52,0.00,-26.80,-0.35,-350.00,1248,1296,1308,1356,1302,1478,1498,10658,806
190961,1,72.47,-58.56,18.01,4.057,0.105,-1.910,6.75,33.80,-1.98,0.00,-8.73,-33.80,0.00,-29.06,-120.49,-101.54,-61.93,0.00,-33.79,29.62,-170.73,1248,1296,1308,1356,1302,1478,1497,10650,806
190973,1,58.91,-23.84,19.43,2.398,-0.698,-0.523,-27.07,30.25,-1.98,0.00,25.09,-30.25,0.00,89.29,-108.09,30.38,-84.24,0.00,-24.57,20.17,-186.36,1248,1296,1308,1356,1302,1478,1497,10646,806
190984,1,45.14,-21.14,15.17,1.993,-1.276,-0.421,-38.11,24.04,0.00,0.00,38.11,-24.04,0.00,134.89,-86.36,89.75,-65.23,0.00,-16.39,22.99,-92.27,1248,1296,1308,1356,1313,1480,1484,10617,806
190996,1,46.41,22.87,4.65,1.429,-2.236,0.172,-30.79,18.69,-1.98,0.00,28.81,-18.69,0.00,102.39,-67.68,55.98,-90.54,0.00,-17.56,2.50,94.04,1248,1296,1308,1356,1313,1478,1484,10600,806
191009,1,53.35,10.88,-0.17,1.056,-1.045,-0.017,-35.37,24.86,-1.98,0.00,33.39,-24.86,0.00,118.44,-89.30,65.09,-100.18,0.00,-19.04,6.47,175.61,1248,1296,1308,1356,1303,1478,1498,10629,806
191021,1,45.80,73.36,-6.66,-0.557,-0.815,1.313,-26.74,8.33,-1.98,0.00,24.76,-8.33,0.00,88.26,-31.44,42.46,-104.80,0.00,-14.55,-17.99,294.76,1248,1296,1308,1356,1303,1478,1498,10638,806
191032,1,28.19,59.47,-10.12,-0.808,-0.915,1.333,-28.20,-0.00,-1.98,0.00,26.22,0.00,0.00,93.40,-2.30,65.21,-61.77,0.00,-4.09,-10.87,350.00,1248,1296,1308,1356,1303,1478,1498,10638,806
191044,1,33.18,22.66,-6.15,0.571,1.199,0.765,-14.23,8.18,-1.89,0.00,12.34,-8.18,0.00,44.83,-30.94,11.65,-53.60,0.00,-6.75,-2.20,244.60,1352,1238,1292,1326,1302,1479,1497,10638,807
191056,1,6.48,65.82,10.37,0.068,0.673,1.538,-2.48,14.54,-1.89,0.00,0.59,-14.54,0.00,3.69,-53.21,-2.79,-119.03,0.00,4.36,-32.02,-97.20,1352,1238,1292,1326,1302,1479,1497,10638,807
191069,1,-20.62,44.13,30.33,1.444,-0.336,0.862,-18.63,37.53,-1.89,0.00,16.74,-37.53,0.00,60.22,-133.70,80.84,-177.82,0.00,16.51,-23.66,-350.00,1352,1238,1292,1326,1302,1479,1497,10621,807
191081,1,-13.88,38.09,18.53,0.955,1.333,-0.507,0.56,39.36,0.00,0.00,-0.56,-39.36,0.00,-0.31,-140.16,13.58,-178.25,0.00,7.19,-14.36,-101.12,1352,1238,1292,1326,1298,1480,1500,10625,807
191092,1,0.23,35.45,26.36,0.099,0.491,1.112,-4.56,16.48,0.00,0.00,4.56,-16.48,0.00,17.63,-60.11,17.40,-95.56,0.00,-1.55,-7.21,-246.38,1352,1238,1292,1326,1298,1480,1500,10633,807
191104,1,12.79,86.48,36.06,-1.983,-0.225,2.504,-8.31,-5.92,0.00,0.00,8.31,5.92,0.00,30.78,18.30,17.99,-68.18,0.00,-8.04,-22.21,-350.00,1352,1238,1292,1326,1303,1480,1496,10608,807
191117,1,10.19,16.90,33.08,-0.612,1.182,0.586,7.36,-20.06,-1.89,0.00,-9.25,20.06,0.00,-30.69,67.79,-40.88,50.89,0.00,-8.95,20.05,-350.00,1352,1238,1292,1326,1303,1479,1496,10621,807
191129,1,-13.53,14.43,30.77,0.718,0.631,0.368,13.12,-13.22,-1.89,0.00,-15.01,13.22,0.00,-50.85,43.90,-37.32,29.48,0.00,3.19,15.21,-328.20,1352,1238,1292,1326,1302,1479,1497,10658,807
191141,1,-25.62,36.13,15.39,-0.384,0.294,1.223,2.15,-11.68,-1.89,0.00,-4.04,11.68,0.00,-12.45,38.50,13.17,2.38,0.00,12.22,-1.25,-13.00,1304,1282,1304,1330,1305,1479,1496,10654,801
191152,1,-31.35,98.80,4.12,-4.029,0.411,3.990,-0.50,-27.39,-1.89,0.00,-1.39,27.39,0.00,-3.18,93.52,28.17,-5.28,0.00,16.67,-22.97,191.06,1304,1282,1304,1330,1305,1479,1496,10650,801
191164,1,-61.90,13.81,4.90,-0.079,0.054,1.831,-6.46,-13.24,-1.98,0.00,4.48,13.24,0.00,17.37,44.01,79.27,30.20,0.00,29.69,12.95,213.22,1304,1282,1304,1330,1303,1478,1497,10663,801
191177,1,-32.70,27.16,10.02,0.533,1.024,0.512,-3.31,3.46,-1.89,0.00,1.42,-3.46,0.00,6.67,-14.42,39.38,-41.58,0.00,12.34,1.97,157.11,1304,1282,1304,1330,1303,1479,1497,10654,801
191189,1,9.58,83.36,15.25,-2.811,0.895,3.304,-22.40,-7.57,-1.89,-1.98,20.51,5.59,0.00,73.53,17.25,63.95,-66.11,0.00,-6.39,-22.63,35.55,1304,1282,1304,1330,1320,1479,1478,10663,801
191201,1,25.79,15.81,18.64,-1.212,-0.156,1.825,-18.85,-21.80,-2.07,0.00,16.78,21.80,0.00,60.49,74.00,34.70,58.19,0.00,-13.93,16.08,-47.35,1304,1282,1304,1330,1302,1477,1498,10654,801
191212,1,51.27,13.24,22.73,-0.105,-0.123,0.878,-6.12,-11.30,-2.07,0.00,4.05,11.30,0.00,15.96,37.28,-35.32,24.05,0.00,-23.45,8.22,-182.87,1304,1282,1304,1330,1302,1477,1498,10658,801
191224,1,50.38,45.26,25.37,-0.929,-0.058,0.686,-4.56,-21.21,-2.07,0.00,2.49,21.21,0.00,10.49,71.99,-39.88,26.73,0.00,-19.61,-0.94,-271.07,1304,1282,1304,1330,1302,1477,1498,10646,801
191236,1,41.20,51.21,20.04,-2.718,-0.106,2.040,-1.51,-30.93,-2.07,0.00,-0.56,30.93,0.00,-0.20,106.03,-41.41,54.82,0.00,-14.23,0.57,-214.32,1304,1282,1304,1330,1302,1477,1498,10633,801
191249,1,21.18,55.07,21.79,-2.585,0.508,2.336,3.13,-35.83,-2.07,0.00,-5.20,35.83,0.00,-16.44,123.20,-37.62,68.14,0.00,-7.04,0.15,-266.00,1164,1458,1478,1156,1314,1477,1498,10650,806
191261,1,-5.45,37.89,20.16,0.130,0.759,1.684,3.74,-18.76,-2.07,0.00,-5.81,18.76,0.00,-18.60,63.49,-13.15,25.60,0.00,3.37,1.12,-219.06,1164,1458,1478,1156,1315,1477,1497,10650,806
191272,1,-46.48,111.13,20.85,-0.765,-0.003,2.616,0.61,-13.68,-2.07,0.00,-2.68,13.68,0.00,-7.63,45.74,38.85,-65.39,0.00,20.72,-29.92,-183.55,1164,1458,1478,1156,1315,1477,1497,10650,806
191285,1,-48.09,76.27,5.06,-2.324,-0.102,2.943,-0.58,-14.40,-2.61,0.00,-2.03,14.40,0.00,-5.37,48.27,42.72,-27.99,0.00,19.71,-11.65,164.63,1164,1458,1478,1156,1331,1471,1483,10650,806
191297,1,-58.54,33.74,-2.70,0.338,-0.152,1.315,-1.00,0.90,-2.61,0.00,-1.61,-0.90,0.00,-3.87,-5.27,54.67,-39.00,0.00,26.69,0.60,316.28,1164,1458,1478,1156,1331,1471,1483,10654,806
191309,1,-25.06,7.89,-5.53,2.289,-0.059,0.096,-11.97,35.15,-2.61,0.00,9.36,-35.15,0.00,34.51,-125.18,59.57,-133.07,0.00,15.63,-0.90,327.75,1164,1458,1478,1156,1309,1471,1504,10638,806
191321,1,-12.54,2.00,0.65,0.899,-0.891,0.656,-27.40,43.05,-2.61,0.00,24.79,-43.05,0.00,88.58,-150.00,101.12,-152.00,0.00,13.00,-4.71,194.52,1164,1458,1478,1156,1308,1471,1504,10633,806
191332,1,0.57,-9.41,6.97,0.911,-2.213,0.784,-40.07,32.13,-2.61,0.00,37.46,-32.13,0.00,132.96,-114.71,132.39,-105.30,0.00,10.58,3.08,66.14,1164,1458,1478,1156,1308,1471,1504,10633,806
191344,1,38.95,-83.10,10.75,2.209,-1.884,-0.653,-33.65,38.39,-2.70,0.00,30.95,-38.39,0.00,110.20,-136.65,71.25,-53.54,0.00,-5.91,30.17,-24.46,1127,1469,1500,1139,1310,1470,1505,10638,806
191357,1,86.48,-110.86,16.95,3.429,-1.272,-1.725,-41.83,37.02,-2.61,0.00,39.22,-37.02,0.00,139.17,-131.90,52.69,-21.04,0.00,-25.03,35.69,-171.02,1127,1469,1500,1139,1310,1471,1505,10621,806
191369,1,92.85,-33.74,29.80,0.502,-0.683,0.340,-28.66,28.29,-2.61,0.00,26.05,-28.29,0.00,93.09,-101.39,0.24,-67.65,0.00,-32.60,-0.58,-350.00,1127,1469,1500,1139,1310,1471,1504,10633,806
191381,1,83.42,-15.36,28.06,0.409,0.962,0.236,-5.80,17.54,-2.97,0.00,2.83,-17.54,0.00,11.87,-63.78,-71.55,-48.42,0.00,-33.63,1.74,-331.09,1127,1469,1500,1139,1309,1467,1508,10621,806
191392,1,85.57,94.82,37.32,-2.517,1.708,2.506,-1.36,-0.39,-2.97,0.00,-1.61,0.39,0.00,-3.70,-1.04,-89.26,-95.86,0.00,-37.72,-40.81,-350.00,1127,1469,1500,1139,1309,1467,1508,10608,806
191404,1,57.62,158.19,23.70,-2.016,1.337,3.179,-1.18,-12.50,-3.33,0.00,-2.15,12.50,0.00,-5.59,41.35,-63.21,-116.84,0.00,-25.06,-54.99,-136.68,1127,1469,1500,1139,1304,1463,1512,10596,806
191417,1,46.94,106.89,15.13,-1.648,1.726,2.170,-0.55,-4.97,-3.33,0.00,-2.78,4.97,0.00,-7.79,15.02,-54.73,-91.87,0.00,-19.94,-34.46,22.95,1127,1469,1500,1139,1304,1463,1512,10592,806
191429,1,19.76,84.16,18.49,-1.246,0.771,1.168,-7.69,-4.75,-3.33,0.00,4.36,4.75,0.00,17.19,14.24,-2.56,-69.92,0.00,-3.66,-25.11,-76.73,1127,1469,1500,1139,1305,1463,1510,10604,806
191441,1,-23.13,41.53,10.17,-0.426,0.341,0.248,6.08,-4.93,-3.42,0.00,-9.50,4.93,0.00,-31.29,14.88,-8.16,-26.66,0.00,17.54,-6.34,66.66,1215,1359,1381,1261,1304,1462,1512,10621,807
191452,1,-89.05,-24.26,14.93,0.429,-1.503,1.840,-7.02,-1.45,-3.42,0.00,3.60,1.45,0.00,14.54,2.70,103.59,26.96,0.00,50.94,17.02,-38.13,1215,1359,1381,1261,1304,1462,1512,10617,807
191464,1,-38.70,-50.72,19.48,-0.604,-1.775,2.016,-5.52,8.68,-3.42,0.00,2.10,-8.68,0.00,9.30,-32.77,48.00,17.94,0.00,23.54,18.97,-146.77,1215,1359,1381,1261,1304,1462,1512,10621,807
191477,1,-10.66,-91.25,17.43,0.146,-2.628,1.093,-16.50,11.46,-3.42,0.00,13.08,-11.46,0.00,47.75,-42.50,58.41,48.74,0.00,10.16,29.65,-109.51,1215,1359,1381,1261,1304,1462,1512,10629,807
191489,1,9.98,-97.67,14.95,1.197,-1.795,0.491,-18.72,4.67,-3.42,0.00,15.30,-4.67,0.00,55.52,-18.77,45.54,78.90,0.00,-0.81,42.26,-35.03,1215,1359,1381,1261,1336,1462,1480,10633,807
191501,1,10.30,-16.15,18.10,1.085,-1.343,-0.470,-28.40,2.28,-3.42,0.00,24.98,-2.28,0.00,89.40,-10.40,79.11,5.75,0.00,-0.75,10.78,-70.64,1215,1359,1381,1261,1325,1462,1491,10621,807
191512,1,22.95,11.13,17.29,0.775,0.388,-0.413,14.48,5.09,-3.42,0.00,-17.90,-5.09,0.00,-60.65,-20.21,-83.60,-31.35,0.00,-13.48,-4.15,-55.19,1215,1359,1381,1261,1325,1462,1491,10613,807
191524,1,17.34,31.86,19.13,-0.128,1.593,1.545,16.48,-1.10,-3.42,0.00,-19.90,1.10,0.00,-67.69,1.43,-85.03,-30.44,0.00,-10.03,-14.86,-90.11,1215,1359,1381,1261,1304,1462,1512,10633,807
191536,1,12.71,63.52,19.66,-1.035,3.727,2.004,10.35,-3.76,-3.42,0.00,-13.77,3.76,0.00,-46.24,10.75,-58.95,-52.77,0.00,-6.76,-27.60,-103.73,1215,1359,1381,1261,1304,1462,1512,10633,807
191549,1,2.77,29.69,23.60,-0.493,2.908,1.629,-10.36,3.36,-3.42,0.00,6.94,-3.36,0.00,26.26,-14.15,23.49,-43.84,0.00,1.18,-17.57,-205.94,1222,1342,1436,1216,1304,1462,1512,10617,806
191561,1,-24.13,-27.59,18.11,0.249,0.499,-0.489,20.84,17.83,-3.42,0.00,-24.26,-17.83,0.00,-82.95,-64.81,-58.82,-37.22,0.00,8.23,6.01,-83.78,1222,1342,1436,1216,1305,1462,1511,10617,806
191572,1,-44.74,-65.23,14.43,0.318,-0.575,0.009,-5.64,25.54,-3.42,0.00,2.22,-25.54,0.00,9.71,-91.85,54.45,-26.62,0.00,21.66,19.12,-25.07,1222,1342,1436,1216,1305,1462,1511,10600,806
191585,1,-24.88,-42.24,23.40,0.592,-0.950,0.962,-5.43,30.16,-3.42,0.00,2.01,-30.16,0.00,8.98,-108.05,33.86,-65.81,0.00,12.96,6.93,-208.45,1222,1342,1436,1216,1334,1462,1482,10608,806
191596,1,1.22,-27.35,21.13,-0.056,-1.685,1.043,-12.49,22.20,-3.42,0.00,9.07,-22.20,0.00,33.71,-80.21,32.49,-52.86,0.00,3.38,2.95,-194.28,1222,1342,1436,1216,1334,1462,1482,10596,806
191609,1,13.37,-58.20,8.28,2.138,-1.829,0.276,-13.89,28.39,-3.42,0.00,10.47,-28.39,0.00,38.62,-101.90,25.25,-43.71,0.00,0.03,13.03,39.97,1222,1342,1436,1216,1329,1462,1487,10600,806
191621,1,30.73,-55.04,-3.99,1.971,-1.017,-0.161,-36.97,44.91,-3.42,0.00,33.55,-44.91,0.00,119.42,-150.00,88.69,-94.96,0.00,-3.75,-0.12,278.60,1222,1342,1436,1216,1304,1462,1512,10608,806
191632,5,34.07,-34.50,-9.26,0.238,-0.625,0.245,-38.07,48.10,-3.42,0.00,34.65,-48.10,0.00,123.30,-375.00,89.23,-340.50,0.00,-5.39,-18.45,350.00,1222,1342,1436,1216,1304,1462,1512,10629,806
191644,1,27.18,20.86,-4.57,-1.316,-0.142,0.815,-18.92,9.76,-3.42,-1.98,15.50,-11.74,0.00,56.27,-43.78,29.09,-64.63,0.00,-4.71,-24.89,264.69,1310,1316,1288,1434,1337,1462,1478,10638,802
191657,1,25.82,15.22,11.84,-1.173,-0.087,1.514,-1.12,-16.74,-3.42,-1.98,-2.30,14.76,0.00,-6.01,48.99,-31.83,33.77,0.00,-6.33,-16.36,-96.40,1310,1316,1288,1434,1337,1462,1478,10617,802
191669,1,31.23,30.46,21.82,-1.325,0.805,2.452,3.20,-20.27,-3.42,0.00,-6.62,20.27,0.00,-21.14,68.29,-52.37,37.83,0.00,-9.06,-15.72,-287.81,1310,1316,1288,1434,1304,1462,1512,10629,802
191681,1,26.29,57.39,17.89,-0.571,1.925,1.065,13.69,-24.80,-3.60,0.00,-17.29,24.80,0.00,-58.52,84.18,-84.81,26.79,0.00,-6.53,-14.84,-237.36,1310,1316,1288,1434,1333,1460,1481,10629,802
191693,1,22.55,19.59,8.41,0.693,1.063,1.616,13.68,-15.50,-3.60,0.00,-17.28,15.50,0.00,-58.48,51.65,-81.03,32.06,0.00,-2.95,0.81,-93.88,1310,1316,1288,1434,1333,1460,1481,10633,802
191704,1,-10.45,-3.81,2.32,1.247,1.483,0.189,39.01,17.52,-3.69,0.00,-42.70,-17.52,0.00,-147.50,-63.92,-137.04,-60.11,0.00,10.05,-2.05,11.57,1310,1316,1288,1434,1318,1459,1497,10633,802
191717,1,-43.49,-33.32,-4.08,1.651,1.829,-0.819,16.17,30.68,-4.50,0.00,-20.67,-30.68,0.00,-70.40,-110.01,-26.92,-76.69,0.00,28.33,12.59,158.56,1310,1316,1288,1434,1318,1450,1497,10638,802
191729,5,-60.18,-15.58,-7.20,1.267,0.470,-0.624,32.14,45.27,-4.50,0.00,-36.64,-45.27,0.00,-126.29,-375.00,-66.12,-359.42,0.00,32.81,-9.29,229.07,1310,1316,1288,1434,1333,1450,1480,10604,802
191741,1,-28.80,-1.82,5.24,-2.493,-0.199,2.428,3.99,13.50,-4.86,0.00,-8.85,-13.50,0.00,-29.06,-49.98,-0.27,-48.16,0.00,18.36,1.91,7.31,1305,1317,1355,1339,1329,1446,1484,10596,806
191752,1,-3.07,-19.42,13.63,0.783,-0.860,0.632,-15.39,18.09,-4.86,0.00,10.53,-18.09,0.00,38.79,-66.04,41.87,-46.63,0.00,7.55,8.19,-155.54,1305,1317,1355,1339,1329,1446,1484,10592,806
191764,1,-4.70,0.47,19.21,0.419,-1.185,-0.110,-33.70,19.20,-8.55,0.00,25.15,-19.20,0.00,89.97,-69.96,94.68,-70.43,0.00,11.06,-0.44,-278.94,1305,1317,1355,1339,1337,1405,1483,10596,806
191776,1,-12.45,25.91,8.47,1.084,-1.414,0.651,-28.25,10.40,-10.17,0.00,18.08,-10.40,0.00,65.24,-39.18,77.69,-65.09,0.00,15.71,-7.73,-86.31,1305,1317,1355,1339,1337,1387,1483,10592,806
191789,1,-23.29,19.41,-6.99,1.937,-1.121,0.950,-20.45,37.77,-10.17,0.00,10.28,-37.77,0.00,37.94,-134.99,61.23,-154.40,0.00,21.83,-15.67,185.85,1305,1317,1355,1339,1317,1387,1500,10583,806
191801,1,-14.83,42.38,-29.22,-0.576,-0.759,1.738,-0.03,20.53,-15.39,-2.34,-15.36,-22.87,0.00,-51.80,-82.87,-36.97,-125.25,0.00,14.16,-15.02,350.00,1305,1317,1355,1339,1337,1329,1474,10575,806
191812,1,-17.18,63.07,-22.26,-2.007,-1.454,2.990,1.96,-1.80,-15.39,-2.34,-17.35,-0.54,0.00,-58.80,-4.74,-41.62,-67.80,0.00,14.80,-9.88,350.00,1305,1317,1355,1339,1337,1329,1474,10571,806
191825,1,3.28,53.15,-10.43,-3.684,-1.840,3.149,3.03,-21.09,-15.39,-2.16,-18.42,18.93,0.00,-62.58,63.40,-65.86,10.25,0.00,2.70,5.20,185.75,1305,1317,1355,1339,1335,1329,1476,10583,806
191836,1,10.04,-65.09,5.64,-1.489,-1.166,1.137,0.64,-31.70,-23.04,-2.16,-23.68,29.54,0.00,-81.00,100.58,-91.05,165.67,0.00,-3.47,59.67,-139.68,1305,1317,1355,1339,1335,1244,1476,10588,806
191849,1,11.90,-51.11,9.99,1.422,-1.268,-0.339,-18.46,-16.95,-23.04,-2.70,-4.58,14.25,0.00,-14.16,47.10,-26.06,98.22,0.00,-6.12,39.02,-219.75,1433,1227,1191,1409,1315,1244,1470,10608,813
191861,1,17.90,-61.95,13.22,2.523,-1.520,-1.743,-35.39,-4.97,-27.99,-5.94,7.40,-0.97,0.00,27.75,-6.16,9.85,55.79,0.00,-7.59,29.29,-287.63,1433,1227,1191,1409,1330,1189,1434,10625,813
191872,5,32.36,-15.14,7.18,2.975,-0.519,-0.957,-47.31,4.31,-27.99,-5.94,19.32,-10.25,0.00,375.00,-38.65,342.64,-23.51,0.00,0.85,1.26,-165.29,1433,1227,1191,1409,1330,1189,1434,10600,813
191885,1,38.08,36.79,3.89,1.330,-0.044,1.070,-18.26,10.65,-29.97,-7.38,-11.71,-18.03,0.00,-39.14,-65.87,-77.23,-102.66,0.00,-16.90,-31.19,-108.78,1433,1227,1191,1409,1336,1167,1418,10608,813
191897,1,35.75,9.67,-1.77,1.422,1.377,0.380,4.05,14.81,-30.51,-7.38,-34.56,-22.19,0.00,-119.16,-80.45,-154.92,-90.12,0.00,-16.80,-17.80,-8.35,1433,1227,1191,1409,1336,1161,1418,10604,813
191909,1,23.09,35.12,-3.67,-0.069,1.603,1.475,1.68,8.64,-30.51,-3.60,-32.19,-12.24,0.00,-110.90,-45.65,-133.99,-80.76,0.00,-8.31,-28.33,3.65,1433,1227,1191,1409,1288,1161,1460,10596,813
191921,1,10.66,9.38,-6.27,0.593,2.623,1.404,-8.78,14.66,-30.51,-6.84,-21.73,-21.50,0.00,-74.29,-78.06,-84.95,-87.44,0.00,0.92,-17.87,45.28,1433,1227,1191,1409,1324,1161,1424,10617,813
191932,1,-31.84,85.69,-3.69,-2.098,1.157,3.340,-1.51,6.94,-30.51,-6.84,-29.00,-13.78,0.00,-99.78,-51.09,-67.94,-136.78,0.00,19.06,-51.68,-1.13,1433,1227,1191,1409,1324,1161,1424,10629,813
191945,1,-46.36,41.56,-4.09,-1.527,1.209,1.856,9.37,5.26,-30.51,-6.84,-39.88,-12.10,0.00,-137.87,-45.23,-91.51,-86.79,0.00,22.16,-22.88,71.92,1420,1280,1220,1376,1324,1161,1424,10617,814
191956,1,-58.30,31.62,-5.25,-1.798,-0.039,1.598,4.57,-9.57,-30.51,-6.84,-35.08,2.73,0.00,-121.12,6.68,-62.82,-24.94,0.00,27.61,-12.41,112.64,1420,1280,1220,1376,1324,1161,1424,10608,814
191969,1,-46.39,20.03,-5.05,-2.315,0.177,2.476,2.83,-13.25,-30.51,-6.84,-33.34,6.41,0.00,-115.09,19.58,-68.70,-0.45,0.00,21.83,-8.83,115.30,1420,1280,1220,1376,1324,1161,1424,10613,814
191981,1,-36.77,-32.47,0.30,-1.772,-0.419,1.447,1.36,-11.75,-31.95,-5.40,-33.31,6.35,0.00,-115.00,19.37,-78.23,51.84,0.00,17.53,13.63,-34.57,1420,1280,1220,1376,1306,1145,1440,10596,814
191992,1,-29.43,-56.84,4.25,0.136,-1.136,0.171,-9.20,2.77,-31.95,-5.40,-22.75,-8.17,0.00,-78.07,-31.47,-48.64,25.37,0.00,15.95,19.30,-133.04,1420,1280,1220,1376,1306,1145,1440,10592,814
192004,1,-25.84,-21.33,7.07,-0.821,-1.404,1.172,-14.32,7.35,-31.95,-6.21,-17.63,-13.56,0.00,-60.19,-50.36,-34.36,-29.02,0.00,15.28,-1.43,-177.70,1420,1280,1220,1376,1315,1145,1431,10588,814
192016,1,-15.90,-29.38,8.56,-0.483,-1.935,1.167,-20.57,11.36,-35.01,-6.21,-14.44,-17.57,0.00,-49.02,-64.41,-33.13,-35.03,0.00,10.65,3.83,-188.91,1420,1280,1220,1376,1315,1111,1431,10588,814
192029,1,-29.26,9.62,4.52,-1.458,-3.105,1.582,-16.17,12.93,-35.01,-10.17,-18.84,-23.10,0.00,-64.44,-83.81,-35.18,-93.43,0.00,14.19,-11.12,-70.24,1420,1280,1220,1376,1310,1111,1387,10596,814
192041,1,-31.18,9.25,-1.54,-1.406,-2.473,1.632,3.67,7.30,-35.01,-10.17,-38.68,-17.47,0.00,-133.97,-64.14,-102.79,-73.39,0.00,9.28,-9.61,51.40,1241,1361,1361,1277,1310,1111,1387,10592,807
192052,1,-16.71,3.17,7.21,-1.374,-2.498,1.505,-0.27,-8.04,-35.01,-10.17,-34.74,-2.13,0.00,-120.23,-10.44,-103.52,-13.61,0.00,1.15,3.13,-108.68,1241,1361,1361,1277,1310,1111,1387,10588,807
192064,1,-6.55,-20.87,10.16,-0.951,-2.531,1.964,-1.78,-15.63,-34.65,-13.50,-32.87,2.13,0.00,-113.72,4.46,-107.17,25.33,0.00,-3.62,16.10,-142.87,1241,1361,1361,1277,1334,1115,1350,10592,807
192076,1,-0.54,-67.61,8.72,0.352,-2.137,0.671,-5.18,-10.98,-34.65,-13.50,-29.47,-2.52,0.00,-101.87,-11.83,-101.33,55.79,0.00,-5.89,34.70,-104.85,1241,1361,1361,1277,1334,1115,1350,10604,807
192089,1,-1.34,-68.31,6.55,0.661,-2.178,0.686,-9.33,-6.91,-34.65,-13.05,-25.32,-6.14,0.00,-87.38,-24.49,-86.04,43.82,0.00,-4.11,30.54,-79.23,1241,1361,1361,1277,1337,1115,1355,10575,807
192101,1,13.93,-72.93,0.63,1.192,-1.684,0.835,-8.36,-0.01,-33.75,-12.06,-25.39,-12.05,0.00,-87.67,-45.20,-101.60,27.73,0.00,-10.97,28.16,5.76,1241,1361,1361,1277,1337,1125,1366,10563,807
192112,1,36.29,-63.52,-2.28,1.461,-0.864,0.976,-9.67,6.28,-33.75,-12.06,-24.08,-18.34,0.00,-83.12,-67.23,-119.41,-3.71,0.00,-21.18,19.48,36.75,1241,1361,1361,1277,1337,1125,1366,10546,807
192124,1,49.54,-19.62,-5.67,0.456,-0.059,1.493,-4.38,2.47,-33.75,-11.43,-29.37,-13.90,0.00,-101.67,-51.69,-151.20,-32.07,0.00,-28.05,-0.83,101.77,1241,1361,1361,1277,1330,1125,1373,10538,807
192137,1,45.05,-41.64,-4.68,-0.351,0.942,0.934,0.42,-7.10,0.00,-11.43,-0.42,-4.33,0.00,-0.38,-18.23,-45.44,23.41,0.00,-22.11,9.97,94.45,1241,1361,1361,1277,1330,1498,1373,10550,807
192149,1,20.58,-53.31,-7.01,0.992,1.294,-0.718,14.82,-1.91,0.00,5.67,-14.82,7.58,0.00,-50.79,23.49,-71.36,76.80,0.00,-12.82,13.28,143.65,1265,1347,1395,1341,1337,1498,1563,10588,806
192161,1,-158.51,-155.82,14.11,1.177,-0.060,-1.837,-33.25,12.07,0.00,4.95,33.25,-7.12,0.00,117.48,-27.97,275.99,127.85,0.00,95.84,69.69,-144.65,1265,1347,1395,1341,1304,1502,1555,10608,806
