time_ms,flags,gyro_x,gyro_y,gyro_z,accel_x,accel_y,accel_z,roll,pitch,angle_sp_roll,angle_sp_pitch,angle_err_roll,angle_err_pitch,angle_i_roll,rate_sp_roll,rate_sp_pitch,rate_err_roll,rate_err_pitch,rate_i_roll,pid_roll,pid_pitch,pid_yaw,m1,m2,m3,m4,rc_thr,rc_roll,rc_pitch,battery_mv,loop_us
80569,9,0.02,0.03,-0.06,0.005,-0.069,1.000,-4.21,2.43,0.00,0.00,4.21,-2.43,0.00,14.72,-8.49,14.70,-8.52,0.00,0.58,-0.35,-34.12,1000,1000,1000,1000,1067,1500,1508,11204,808
80581,9,-0.04,0.03,0.05,0.004,-0.072,0.998,-4.26,2.46,0.00,3.15,4.26,0.69,0.00,14.91,2.41,14.95,2.38,0.00,0.61,0.10,-1.53,1000,1000,1000,1000,1011,1500,1535,11204,808
80592,9,0.02,0.08,0.00,0.004,-0.073,1.002,-4.35,2.45,0.00,3.15,4.35,0.70,0.00,15.22,2.46,15.20,2.37,0.00,0.60,0.07,-0.19,1000,1000,1000,1000,1011,1500,1535,11204,808
80605,9,0.02,-0.03,-0.11,0.004,-0.073,0.999,-4.37,2.44,0.00,1.89,4.37,-0.55,0.00,15.31,-1.92,15.29,-1.89,0.00,0.60,-0.05,2.04,1000,1000,1000,1000,1025,1500,1521,11204,808
80616,9,-0.04,0.03,0.00,0.000,-0.070,0.998,-4.33,2.38,0.00,1.89,4.33,-0.49,0.00,15.15,-1.72,15.19,-1.75,0.00,0.62,-0.07,-0.58,1000,1000,1000,1000,1025,1500,1521,11204,808
80629,9,-0.04,0.02,0.00,0.002,-0.069,1.003,-4.23,2.41,0.00,0.00,4.23,-2.41,0.00,14.80,-8.45,14.84,-8.47,0.00,0.60,-0.33,-0.59,1000,1000,1000,1000,1035,1500,1511,11204,808
80641,9,-0.04,-0.03,-0.00,0.011,-0.069,0.993,-4.24,2.49,0.00,0.00,4.24,-2.49,0.00,14.84,-8.70,14.88,-8.66,0.00,0.59,-0.32,-0.58,1100,1100,1100,1100,1035,1500,1511,11204,808
80652,9,-0.04,-0.03,0.00,0.004,-0.073,1.002,-4.29,2.46,0.00,0.00,4.29,-2.46,0.00,15.01,-8.60,15.04,-8.57,0.00,0.60,-0.32,-0.33,1100,1100,1100,1100,1035,1500,1511,11204,808
80665,9,0.13,-0.03,0.12,0.005,-0.073,0.998,-4.26,2.38,0.00,0.00,4.26,-2.38,0.00,14.90,-8.33,14.77,-8.30,0.00,0.51,-0.31,-1.91,1100,1100,1100,1100,1035,1500,1511,11204,808
80676,9,0.01,-0.03,-0.17,0.010,-0.071,0.992,-4.27,2.45,0.00,0.00,4.27,-2.45,0.00,14.94,-8.58,14.92,-8.55,0.00,0.56,-0.32,3.63,1100,1100,1100,1100,1035,1500,1511,11200,808
80689,9,-0.04,0.03,-0.06,0.007,-0.075,0.994,-4.30,2.52,0.00,0.00,4.30,-2.52,0.00,15.03,-8.83,15.07,-8.86,0.00,0.60,-0.35,0.36,1100,1100,1100,1100,1035,1500,1511,11195,808
80701,9,0.07,0.08,0.07,0.003,-0.071,0.999,-4.28,2.37,0.00,3.33,4.28,0.96,0.00,14.97,3.35,14.90,3.26,0.00,0.55,0.11,-0.97,1100,1100,1100,1100,1009,1500,1537,11200,808
80712,9,-0.15,0.14,-0.36,0.009,-0.073,0.992,-4.38,2.46,0.00,3.33,4.38,0.87,0.00,15.32,3.03,15.47,2.89,0.00,0.67,0.07,5.95,1100,1100,1100,1100,1009,1500,1537,11195,808
80725,9,-0.09,0.09,-0.06,0.001,-0.071,1.008,-4.36,2.42,0.00,0.00,4.36,-2.42,0.00,15.25,-8.47,15.35,-8.55,0.00,0.65,-0.35,-1.02,1100,1100,1100,1100,1036,1500,1510,11191,808
80736,9,0.07,0.09,0.30,0.001,-0.072,0.994,-4.30,2.39,0.00,0.00,4.30,-2.39,0.00,15.03,-8.37,14.96,-8.46,0.00,0.55,-0.35,-6.00,1100,1100,1100,1100,1036,1500,1510,11200,808
80749,9,-0.10,0.03,-0.11,-0.001,-0.071,0.998,-4.32,2.35,0.00,0.00,4.32,-2.35,0.00,15.11,-8.21,15.21,-8.24,0.00,0.64,-0.33,3.36,1100,1100,1100,1100,1036,1500,1510,11191,808
80761,9,0.20,-0.50,0.00,0.011,-0.058,0.993,-4.15,2.47,0.00,3.15,4.15,0.68,0.00,14.52,2.36,14.33,2.86,0.00,0.50,0.32,-0.12,1100,1100,1100,1100,1010,1500,1535,11191,808
80772,9,0.25,-0.22,0.19,0.012,-0.091,0.992,-4.41,2.83,0.00,3.15,4.41,0.32,0.00,15.45,1.12,15.19,1.34,0.00,0.48,0.09,-2.52,1100,1100,1100,1100,1010,1500,1535,11187,808
80785,9,0.91,0.07,-0.49,0.024,-0.040,0.992,-4.08,3.24,0.00,0.00,4.08,-3.24,0.00,14.27,-11.35,13.36,-11.42,0.00,0.09,-0.55,7.76,1100,1100,1100,1100,1036,1500,1510,11170,808
80796,9,-1.09,-0.50,0.17,0.022,-0.064,0.988,-4.20,3.02,0.00,0.00,4.20,-3.02,0.00,14.68,-10.56,15.78,-10.06,0.00,1.12,-0.24,-6.34,1100,1100,1100,1100,1036,1500,1510,11162,808
80809,9,-0.19,-0.36,0.46,0.011,-0.068,1.004,-4.21,2.55,0.00,3.51,4.21,0.96,0.00,14.73,3.35,14.92,3.71,0.00,0.69,0.30,-5.42,1100,1100,1100,1100,1007,1500,1539,11162,808
80821,9,0.44,0.88,-0.84,0.003,-0.034,0.978,-4.17,2.51,0.00,0.00,4.17,-2.51,0.00,14.61,-8.77,14.17,-9.65,0.00,0.39,-0.85,19.08,1100,1100,1100,1100,1036,1500,1510,11154,808
80832,9,-1.38,1.02,-0.44,0.019,-0.071,0.961,-4.11,3.17,0.00,0.00,4.11,-3.17,0.00,14.40,-11.11,15.78,-12.13,0.00,1.25,-1.11,1.87,1100,1100,1100,1100,1036,1500,1510,11141,808
80845,9,-1.10,-1.05,0.37,0.106,-0.064,0.916,-3.88,4.68,0.00,0.00,3.88,-4.68,0.00,13.56,-16.38,14.67,-15.33,0.00,1.15,-0.39,-11.49,1100,1100,1100,1100,1036,1500,1510,11150,808
80856,9,-0.36,-1.51,-0.57,0.068,-0.042,0.905,-3.78,6.60,0.00,0.00,3.78,-6.60,0.00,13.24,-23.11,13.60,-21.60,0.00,0.82,-0.86,9.67,1100,1100,1100,1100,1036,1500,1510,11133,808
80869,9,0.55,-0.19,-0.79,0.004,-0.152,0.908,-4.47,6.29,0.00,0.00,4.47,-6.29,0.00,15.65,-22.00,15.10,-21.81,0.00,0.39,-1.55,9.28,1100,1100,1100,1100,1036,1500,1510,11108,808
80881,9,1.51,0.25,-0.26,-0.035,-0.099,0.993,-4.32,3.53,0.00,0.00,4.32,-3.53,0.00,15.13,-12.37,13.63,-12.61,0.00,-0.11,-0.94,-2.51,1100,1100,1100,1100,1036,1500,1510,11112,808
80893,9,1.18,1.85,0.82,-0.189,-0.084,1.130,-3.75,2.17,0.00,0.00,3.75,-2.17,0.00,13.12,-7.60,11.95,-9.46,0.00,0.03,-1.25,-18.42,1100,1100,1100,1100,1036,1500,1510,11083,808
80905,9,0.17,-2.28,0.19,-0.019,-0.030,1.059,-3.45,1.35,0.00,0.00,3.45,-1.35,0.00,12.09,-4.72,11.92,-2.43,0.00,0.45,0.79,-1.73,1100,1100,1100,1100,1031,1500,1515,11075,808
80916,9,0.96,-0.96,-0.29,0.097,-0.083,0.914,-4.03,2.34,0.00,0.00,4.03,-2.34,0.00,14.12,-8.18,13.15,-7.22,0.00,0.17,0.09,6.54,1100,1100,1100,1100,1031,1500,1515,11054,808
80929,9,0.79,-0.69,0.18,0.138,-0.025,0.906,-3.79,3.68,0.00,0.00,3.79,-3.68,0.00,13.26,-12.89,12.46,-12.20,0.00,0.25,-0.24,-2.80,1100,1100,1100,1100,1036,1500,1510,11029,808
80941,9,-0.78,2.09,-0.09,0.061,-0.043,0.963,-4.30,3.74,0.00,0.00,4.30,-3.74,0.00,15.06,-13.09,15.84,-15.17,0.00,0.98,-1.46,-0.20,1100,1100,1100,1100,1036,1500,1510,11029,808
80952,9,-1.07,0.03,-0.36,0.050,-0.051,0.995,-4.56,4.77,0.00,0.00,4.56,-4.77,0.00,15.97,-16.71,17.04,-16.74,0.00,1.17,-1.00,3.34,1100,1100,1100,1100,1036,1500,1510,11037,808
80965,9,-0.19,-0.61,0.30,0.073,-0.097,0.952,-4.22,6.13,0.00,0.00,4.22,-6.13,0.00,14.77,-21.44,14.96,-20.83,0.00,0.72,-1.05,-7.59,1100,1100,1100,1100,1036,1500,1510,11045,808
80976,9,0.26,-0.20,0.90,0.058,-0.044,0.971,-4.20,6.39,0.00,0.00,4.20,-6.39,0.00,14.68,-22.38,14.42,-22.17,0.00,0.44,-1.27,-13.91,1100,1100,1100,1100,1036,1500,1510,11050,808
80989,9,0.35,-0.39,-0.08,0.008,-0.064,1.031,-3.89,4.13,0.00,0.00,3.89,-4.13,0.00,13.61,-14.44,13.26,-14.05,0.00,0.34,-0.40,8.99,1100,1100,1100,1100,1036,1500,1510,11054,808
81001,9,-1.38,-0.07,-2.89,-0.014,-0.054,1.097,-4.22,1.85,0.00,0.00,4.22,-1.85,0.00,14.78,-6.48,16.16,-6.41,0.00,1.27,0.12,48.63,1100,1100,1100,1100,1030,1500,1516,11070,808
81012,9,1.18,2.25,0.72,0.123,-0.021,0.898,-3.29,4.12,0.00,0.00,3.29,-4.12,0.00,11.53,-14.43,10.35,-16.68,0.00,-0.03,-1.65,-27.23,1100,1100,1100,1100,1030,1500,1516,11083,808
81025,9,1.13,-2.77,2.78,0.013,-0.125,0.971,-4.90,1.83,0.00,0.00,4.90,-1.83,0.00,17.16,-6.42,16.03,-3.65,0.00,0.12,1.31,-40.07,1100,1100,1100,1100,1037,1500,1509,11087,808
81036,9,-0.55,-2.56,-3.76,0.134,0.012,1.038,-4.13,6.21,0.00,0.00,4.13,-6.21,0.00,14.47,-21.73,15.02,-19.17,0.00,0.80,-0.15,79.93,1100,1100,1100,1100,1037,1500,1509,11087,808
81049,9,0.26,1.53,-0.90,0.009,-0.093,0.943,-3.20,3.14,0.00,0.00,3.20,-3.14,0.00,11.20,-10.99,10.95,-12.52,0.00,0.35,-0.71,-2.66,1100,1100,1100,1100,1037,1500,1509,11091,808
81061,9,0.56,-0.74,2.44,0.065,-0.085,1.012,-3.55,5.17,0.00,3.06,3.55,-2.11,0.00,12.42,-7.37,11.86,-6.62,0.00,0.29,0.05,-47.18,1100,1100,1100,1100,1012,1500,1534,11083,808
81072,9,-0.54,0.97,-1.12,-0.002,-0.017,1.014,-2.97,4.47,0.00,3.06,2.97,-1.41,0.00,10.41,-4.95,10.95,-5.91,0.00,0.57,-0.96,24.80,1100,1100,1100,1100,1012,1500,1534,11083,808
81085,9,-0.20,-1.42,0.73,0.049,-0.096,0.839,-4.76,3.33,0.00,0.00,4.76,-3.33,0.00,16.66,-11.67,16.87,-10.26,0.00,0.72,0.31,-11.39,1100,1100,1100,1100,1038,1500,1508,11083,808
81097,9,-1.91,0.13,-2.14,0.065,-0.063,1.106,-4.34,5.22,0.00,0.00,4.34,-5.22,0.00,15.20,-18.26,17.11,-18.38,0.00,1.45,-1.11,40.51,1100,1100,1100,1100,1038,1500,1508,11079,808
81109,9,1.87,1.54,2.04,-0.062,-0.045,0.952,-4.60,1.20,0.00,0.00,4.60,-1.20,0.00,16.09,-4.19,14.22,-5.74,0.00,-0.15,-0.64,-44.80,1100,1100,1100,1100,1038,1500,1508,11087,808
81121,9,-2.18,-0.95,-1.07,-0.042,-0.054,1.082,-5.20,2.50,0.00,0.00,5.20,-2.50,0.00,18.21,-8.75,20.40,-7.80,0.00,1.84,-0.22,30.89,1100,1100,1100,1100,1037,1500,1509,11091,808
81132,9,2.84,2.94,1.27,-0.131,-0.143,1.149,-4.04,1.43,0.00,0.00,4.04,-1.43,0.00,14.15,-5.01,11.31,-7.96,0.00,-0.91,-1.44,-26.37,1100,1100,1100,1100,1037,1500,1509,11087,808
81145,9,0.98,-1.64,-1.25,0.082,0.006,0.911,-2.94,1.12,0.00,0.00,2.94,-1.12,0.00,10.30,-3.90,9.32,-2.27,0.00,0.09,1.01,29.76,1100,1100,1100,1100,1037,1500,1509,11100,808
81156,9,2.52,2.55,0.02,-0.108,-0.126,1.060,-4.10,-1.34,0.00,0.00,4.10,1.34,0.00,14.33,4.68,11.82,2.13,0.00,-0.75,-0.22,-10.71,1100,1100,1100,1100,1037,1500,1509,11095,808
81169,9,-0.25,-3.01,0.07,0.124,0.006,0.999,-3.52,4.63,0.00,0.00,3.52,-4.63,0.00,12.31,-16.20,12.56,-13.20,0.00,0.67,0.67,1.34,1100,1100,1100,1100,1037,1500,1509,11095,808
81181,9,4.56,-1.99,1.10,-0.047,-0.127,0.915,-4.36,3.14,0.00,0.00,4.36,-3.14,0.00,15.27,-10.98,10.70,-8.99,0.00,-1.76,0.67,-27.21,1100,1100,1100,1100,1037,1500,1509,11095,808
81192,9,-1.84,1.75,-1.17,-0.146,-0.078,1.235,-4.57,-0.09,0.00,0.00,4.57,0.09,0.00,16.00,0.30,17.84,-1.46,0.00,1.59,-0.66,28.71,1100,1100,1100,1100,1037,1500,1509,11100,808
81205,9,1.18,0.19,0.83,-0.013,-0.145,0.985,-5.39,-1.52,0.00,0.00,5.39,1.52,0.00,18.87,5.33,17.69,5.14,0.00,0.17,0.65,-21.63,1100,1100,1100,1100,1038,1500,1508,11087,808
81216,9,-5.06,-1.12,-1.95,0.011,-0.163,1.064,-4.56,-1.25,0.00,0.00,4.56,1.25,0.00,15.96,4.38,21.02,5.50,0.00,3.14,0.85,45.48,1100,1100,1100,1100,1038,1500,1508,11087,808
81229,9,-0.92,-1.14,1.97,0.282,0.024,0.690,-3.72,5.93,0.00,0.00,3.72,-5.93,0.00,13.03,-20.74,13.95,-19.60,0.00,0.99,-0.46,-39.08,1100,1100,1100,1100,1038,1500,1508,11079,808
81241,9,-3.35,1.89,-3.22,0.188,-0.030,0.950,-3.27,8.70,0.00,0.00,3.27,-8.70,0.00,11.46,-30.46,14.81,-32.35,0.00,2.11,-3.06,72.64,1100,1100,1100,1100,1037,1500,1509,11091,808
81252,9,-7.87,8.57,0.50,0.044,-0.164,0.806,-5.05,7.07,0.00,0.00,5.05,-7.07,0.00,17.68,-24.74,25.55,-33.31,0.00,4.62,-5.61,-14.31,1100,1100,1100,1100,1037,1500,1509,11091,808
81265,9,2.19,4.88,-2.32,-0.019,0.170,1.148,-1.15,4.48,0.00,0.00,1.15,-4.48,0.00,4.03,-15.67,1.84,-20.55,0.00,-1.16,-3.40,43.19,1100,1100,1100,1100,1037,1500,1509,11083,808
81277,9,0.16,-1.69,1.28,-0.004,-0.426,0.877,-6.98,2.41,0.00,0.00,6.98,-2.41,0.00,24.41,-8.43,24.25,-6.74,0.00,1.50,0.26,-25.52,1100,1100,1100,1100,1037,1500,1509,11083,808
81289,9,-3.75,-0.12,-1.88,0.009,0.316,1.047,-1.90,5.48,0.00,0.00,1.90,-5.48,0.00,6.66,-19.19,10.42,-19.07,0.00,2.31,-2.08,33.21,1100,1100,1100,1100,1028,1500,1518,11095,808
81301,9,5.12,0.76,2.27,-0.148,-0.059,1.039,-4.54,0.92,0.00,0.00,4.54,-0.92,0.00,15.89,-3.21,10.78,-3.97,0.00,-1.76,-0.83,-39.36,1100,1100,1100,1100,1035,1500,1511,11095,808
81312,9,-9.08,5.21,-3.07,0.074,-0.211,1.035,-4.85,2.38,0.00,0.00,4.85,-2.38,0.00,16.99,-8.33,26.07,-13.54,0.00,4.51,-2.29,57.48,1100,1100,1100,1100,1035,1500,1511,11100,808
81325,9,4.61,-5.77,-0.57,0.315,0.242,1.028,-0.63,7.16,0.00,0.00,0.63,-7.16,0.00,2.19,-25.04,-2.42,-19.27,0.00,-1.96,1.69,9.96,1100,1100,1100,1100,1038,1500,1508,11100,808
81337,9,2.42,-2.46,-0.19,0.292,-0.428,0.562,-7.64,12.37,0.00,0.00,7.64,-12.37,0.00,26.74,-43.30,24.32,-40.84,0.00,0.47,-1.70,-5.02,1100,1100,1100,1100,1038,1500,1508,11108,808
81349,9,-13.60,8.82,-1.82,0.015,-0.221,1.022,-5.51,8.82,0.00,0.00,5.51,-8.82,0.00,19.29,-30.86,32.88,-39.68,0.00,7.12,-6.30,41.33,1100,1100,1100,1100,1034,1500,1512,11108,808
81361,9,-3.69,9.70,0.51,-0.220,0.056,0.988,-3.03,0.52,0.00,2.61,3.03,2.09,0.00,10.59,7.32,14.28,-2.39,0.00,1.78,-4.13,-11.91,1100,1100,1100,1100,1017,1500,1529,11100,808
81372,9,10.55,4.37,-0.08,-0.090,-0.100,1.443,-5.21,-0.95,0.00,2.61,5.21,3.56,0.00,18.23,12.44,7.68,8.07,0.00,-4.05,-1.06,4.32,1100,1100,1100,1100,1017,1500,1529,11100,808
81385,9,-6.90,2.38,3.70,-0.211,-0.346,0.793,-4.02,-1.91,0.00,0.00,4.02,1.91,0.00,14.08,6.69,20.98,4.32,0.00,3.90,-0.06,-71.70,1100,1100,1100,1100,1038,1500,1508,11095,808
81396,9,-3.73,6.51,-3.09,0.204,-0.053,0.906,-3.40,3.35,0.00,0.00,3.40,-3.35,0.00,11.90,-11.73,15.63,-18.24,0.00,2.16,-2.42,55.57,1100,1100,1100,1100,1038,1500,1508,11087,808
81409,9,2.98,3.20,0.42,0.223,0.231,1.001,-1.04,7.96,0.00,0.00,1.04,-7.96,0.00,3.62,-27.86,0.65,-31.06,0.00,-1.74,-1.95,-2.99,1100,1100,1100,1100,1038,1500,1508,11112,808
81421,9,2.17,-17.08,1.83,0.469,0.303,0.678,1.39,17.66,0.00,2.70,-1.39,-14.96,0.00,-4.87,-52.38,-7.04,-35.30,0.00,-0.61,4.48,-38.67,1100,1100,1100,1100,1016,1500,1530,11116,808
81432,9,12.71,-6.43,-1.62,-0.039,0.020,1.078,-2.50,5.67,0.00,2.70,2.50,-2.97,0.00,8.75,-10.39,-3.96,-3.97,0.00,-5.69,1.76,34.77,1100,1100,1100,1100,1016,1500,1530,11120,808
81445,9,-8.51,11.24,-0.17,-0.269,-0.304,1.124,-4.04,0.73,0.00,0.00,4.04,-0.73,0.00,14.13,-2.56,22.64,-13.80,0.00,4.90,-5.99,-2.53,1100,1100,1100,1100,1038,1500,1508,11116,808
81456,9,-5.09,5.34,-2.10,0.189,0.072,1.176,-2.70,0.48,0.00,0.00,2.70,-0.48,0.00,9.45,-1.67,14.54,-7.01,0.00,2.81,-1.06,37.25,1100,1100,1100,1100,1038,1500,1508,11104,808
81469,9,1.24,-4.34,3.98,0.397,0.549,0.710,5.70,8.23,0.00,0.00,-5.70,-8.23,0.00,-19.96,-28.79,-21.20,-24.45,0.00,-2.09,1.44,-75.17,1100,1100,1100,1100,1038,1500,1508,11108,808
81481,9,10.06,-21.18,1.67,0.272,-0.035,0.830,0.47,8.42,0.00,0.00,-0.47,-8.42,0.00,-1.65,-29.48,-11.70,-8.30,0.00,-4.72,8.88,-33.24,1100,1100,1100,1100,1035,1500,1511,11100,808
81492,9,-8.65,12.95,-2.44,-0.419,-0.721,1.156,-1.18,4.80,0.00,0.00,1.18,-4.80,0.00,4.14,-16.82,12.79,-29.76,0.00,3.52,-6.80,50.55,1100,1100,1100,1100,1035,1500,1511,11100,808
81505,9,-8.46,8.11,-2.12,0.048,0.083,1.021,0.29,5.77,0.00,0.00,-0.29,-5.77,0.00,-1.03,-20.20,7.44,-28.30,0.00,3.98,-5.40,33.03,1100,1100,1100,1100,1035,1500,1511,11100,808
81516,9,12.27,-6.54,-1.91,-0.090,-0.155,0.893,-4.98,1.58,0.00,0.00,4.98,-1.58,0.00,17.42,-5.53,5.16,1.01,0.00,-5.31,3.36,33.58,1100,1100,1100,1100,1035,1500,1511,11100,808
81529,9,-5.60,0.30,3.49,-0.176,0.006,0.975,-1.38,2.06,0.00,0.00,1.38,-2.06,0.00,4.82,-7.20,10.42,-7.49,0.00,2.58,-0.73,-67.02,1100,1100,1100,1100,1037,1500,1509,11095,808
81541,9,11.88,-11.88,1.88,-0.060,-0.166,1.373,-5.88,-0.84,0.00,0.00,5.88,0.84,0.00,20.57,2.95,8.69,14.82,0.00,-4.00,5.60,-35.69,1100,1100,1100,1100,1038,1500,1508,11095,808
81552,9,-0.53,4.87,-1.60,-0.327,-0.580,0.926,-4.95,-2.10,0.00,0.00,4.95,2.10,0.00,17.32,7.35,17.86,2.48,0.00,0.52,-1.65,31.00,1100,1100,1100,1100,1038,1500,1508,11100,808
81565,9,-15.19,9.11,-4.19,0.067,0.029,1.017,-3.28,0.88,0.00,0.00,3.28,-0.88,0.00,11.48,-3.06,26.67,-12.17,0.00,8.74,-5.26,79.06,1100,1100,1100,1100,1036,1500,1510,11100,808
81576,9,6.66,2.50,0.63,0.099,-0.083,1.007,-3.93,2.29,0.00,0.00,3.93,-2.29,0.00,13.75,-8.01,7.10,-10.51,0.00,-2.55,-2.11,-17.24,1100,1100,1100,1100,1036,1500,1510,11100,808
81589,9,-8.61,-12.00,2.21,0.348,0.279,0.688,-0.19,8.67,0.00,2.07,0.19,-6.60,0.00,0.67,-23.09,9.28,-11.08,0.00,4.05,3.70,-45.72,1100,1100,1100,1100,1023,1500,1523,11100,808
81601,9,15.05,-20.96,1.59,0.082,0.110,1.047,-3.42,5.05,0.00,0.00,3.42,-5.05,0.00,11.96,-17.67,-3.09,3.30,0.00,-6.24,8.74,-31.25,1100,1100,1100,1100,1036,1500,1510,11087,808
81613,9,-3.61,16.94,-3.07,-0.448,-0.522,1.162,-3.20,0.95,0.00,0.00,3.20,-0.95,0.00,11.21,-3.34,14.82,-20.28,0.00,1.52,-8.26,54.36,1100,1100,1100,1100,1036,1500,1510,11083,808
81625,9,-10.99,10.53,0.41,0.122,-0.265,1.007,-5.01,6.56,0.00,3.24,5.01,-3.32,0.00,17.55,-11.64,28.54,-22.17,0.00,6.47,-5.91,-5.57,1100,1100,1100,1100,1010,1500,1536,11087,808
81636,9,2.71,-2.14,0.69,0.303,0.150,0.766,-0.26,8.39,0.00,3.24,0.26,-5.15,0.00,0.91,-18.03,-1.80,-15.89,0.00,-1.79,0.81,-15.08,1100,1100,1100,1100,1010,1500,1536,11095,808
81649,9,-7.56,-2.23,-1.95,0.140,0.391,0.807,2.05,8.88,0.00,0.00,-2.05,-8.88,0.00,-7.18,-31.07,0.38,-28.84,0.00,3.00,-0.34,44.93,1100,1100,1100,1100,1036,1500,1510,11100,808
81661,9,8.80,-6.22,2.32,0.301,0.029,0.860,-1.26,10.20,0.00,3.24,1.26,-6.96,0.00,4.41,-24.36,-4.39,-18.14,0.00,-3.76,2.03,-53.94,1100,1100,1100,1100,1010,1500,1536,11100,808
81672,9,0.82,-1.17,-3.02,-0.094,-0.352,1.014,-4.05,4.71,0.00,3.24,4.05,-1.47,0.00,14.17,-5.15,13.34,-3.98,0.00,-0.16,0.61,48.03,1100,1100,1100,1100,1010,1500,1536,11108,808
81685,9,1.95,-0.23,2.45,-0.213,-0.368,1.162,-5.15,7.54,0.00,0.00,5.15,-7.54,0.00,18.04,-26.38,16.09,-26.15,0.00,0.17,-2.07,-43.19,1100,1100,1100,1100,1037,1500,1509,11104,808
81696,9,4.70,9.06,0.74,-0.386,-0.263,1.219,-6.47,2.19,0.00,0.00,6.47,-2.19,0.00,22.64,-7.66,17.94,-16.71,0.00,-1.44,-4.93,-15.32,1100,1100,1100,1100,1037,1500,1509,11100,808
81709,9,-16.68,13.56,-2.46,0.050,-0.087,1.280,-2.64,1.65,0.00,0.00,2.64,-1.65,0.00,9.24,-5.78,25.92,-19.34,0.00,8.63,-5.52,60.92,1100,1100,1100,1100,1037,1500,1509,11100,808
81721,9,-1.85,-6.32,2.84,0.475,0.364,0.502,3.21,4.34,0.00,0.00,-3.21,-4.34,0.00,-11.23,-15.17,-9.38,-8.86,0.00,0.67,3.74,-50.62,1100,1100,1100,1100,1026,1500,1520,11100,808
81732,9,11.12,-4.18,0.30,-0.312,-0.006,1.265,-1.09,-0.09,0.00,0.00,1.09,0.09,0.00,3.83,0.30,-7.29,4.49,0.00,-5.17,3.33,1.44,1100,1100,1100,1100,1026,1500,1520,11100,808
81745,9,3.76,2.52,2.84,-0.238,-0.037,1.083,2.14,1.29,0.00,0.00,-2.14,-1.29,0.00,-7.51,-4.50,-11.26,-7.03,0.00,-1.99,-0.35,-44.65,1100,1100,1100,1100,1038,1500,1508,11095,813
81756,9,2.14,0.53,0.25,-0.397,-0.086,1.356,-0.01,-4.39,0.00,0.00,0.01,4.39,0.00,0.05,15.37,-2.09,14.85,0.00,-0.27,1.65,-1.65,1100,1100,1100,1100,1038,1500,1508,11095,813
81769,9,-1.50,9.19,-3.62,-0.350,-0.720,1.310,-2.87,-5.43,0.00,0.00,2.87,5.43,0.00,10.04,19.02,11.54,9.83,0.00,0.96,-1.79,79.13,1100,1100,1100,1100,1038,1500,1508,11100,813
81781,9,-16.62,14.51,-1.70,-0.206,-0.354,0.951,-4.93,-4.21,0.00,0.00,4.93,4.21,0.00,17.27,14.73,33.89,0.22,0.00,8.58,-5.62,32.77,1100,1100,1100,1100,1036,1500,1510,11095,813
81792,9,-0.67,0.12,-0.08,0.432,-0.012,0.976,-4.46,4.81,0.00,0.00,4.46,-4.81,0.00,15.61,-16.82,16.28,-16.94,0.00,0.58,0.39,2.08,1100,1100,1100,1100,1036,1500,1510,11100,813
81805,9,-5.75,1.15,3.88,0.160,0.345,0.683,1.07,3.94,0.00,0.00,-1.07,-3.94,0.00,-3.76,-13.80,1.99,-14.95,0.00,1.18,-0.03,-66.49,1100,1100,1100,1100,1036,1500,1510,11100,813
81817,9,0.94,-17.33,1.90,0.104,0.493,0.963,0.64,2.04,0.00,0.00,-0.64,-2.04,0.00,-2.24,-7.14,-3.18,10.19,0.00,-0.79,8.24,-26.21,1100,1100,1100,1100,1036,1500,1510,11100,813
81829,9,12.96,1.39,-0.43,-0.245,-0.340,1.148,-5.61,-5.31,0.00,0.00,5.61,5.31,0.00,19.62,18.57,6.66,17.18,0.00,-6.18,2.32,16.73,1100,1100,1100,1100,1036,1500,1510,11100,813
81841,9,-5.50,10.49,1.20,-0.535,-0.170,1.152,-1.36,-6.73,0.00,0.00,1.36,6.73,0.00,4.76,23.57,10.25,13.08,0.00,2.69,-2.49,-22.60,1100,1100,1100,1100,1038,1500,1508,11087,813
81852,9,11.61,-0.94,0.32,-0.461,-0.298,1.567,-4.85,-9.22,0.00,0.00,4.85,9.22,0.00,16.96,32.26,5.35,33.20,0.00,-4.06,3.68,-4.48,1100,1100,1100,1100,1038,1500,1508,11100,813
81865,9,-10.35,10.30,-2.35,-0.327,-0.527,1.023,-5.30,-5.26,0.00,0.00,5.30,5.26,0.00,18.55,18.41,28.90,8.11,0.00,5.17,-3.41,49.10,1100,1100,1100,1100,1038,1500,1508,11091,813
81876,9,-14.88,9.73,-1.22,0.224,-0.133,1.006,-5.32,-0.12,0.00,0.00,5.32,0.12,0.00,18.64,0.44,33.52,-9.29,0.00,9.00,-4.18,27.19,1100,1100,1100,1100,1038,1500,1508,11095,813
81889,9,9.87,4.15,2.06,0.060,-0.029,0.891,-4.94,-3.70,0.00,0.00,4.94,3.70,0.00,17.29,12.93,7.42,8.78,0.00,-3.99,0.03,-42.67,1100,1100,1100,1100,1038,1500,1508,11091,813
81901,9,1.53,-6.72,1.12,-0.115,0.668,1.037,0.53,0.54,0.00,0.00,-0.53,-0.54,0.00,-1.86,-1.88,-3.39,4.84,0.00,-0.49,3.09,-18.57,1100,1100,1100,1100,1038,1500,1508,11083,813
81912,9,10.47,-10.39,1.76,-0.137,-0.277,1.220,-3.63,-0.49,0.00,0.00,3.63,0.49,0.00,12.71,1.71,2.24,12.10,0.00,-3.71,5.96,-30.35,1100,1100,1100,1100,1038,1500,1508,11087,813
81925,9,-2.45,11.45,-1.81,-0.151,-0.777,0.972,-3.93,2.86,0.00,1.89,3.93,-0.97,0.00,13.75,-3.41,16.20,-14.86,0.00,1.20,-4.91,36.85,1100,1100,1100,1100,1025,1500,1521,11083,813
81936,9,-10.25,8.47,0.06,-0.084,0.029,1.227,-0.09,7.90,0.00,1.89,0.09,-6.01,0.00,0.31,-21.04,10.56,-29.51,0.00,5.28,-4.88,5.54,1100,1100,1100,1100,1025,1500,1521,11087,813
81949,9,-0.90,-0.25,-1.20,0.106,-0.084,0.771,-3.19,8.65,0.00,0.00,3.19,-8.65,0.00,11.17,-30.26,12.07,-30.01,0.00,0.31,-0.93,16.75,1100,1100,1100,1100,1037,1500,1509,11087,808
81961,9,-19.41,15.84,-4.06,0.132,-0.340,1.043,-3.67,5.28,0.00,3.15,3.67,-2.13,0.00,12.86,-7.45,32.27,-23.29,0.00,9.14,-6.84,75.70,1100,1100,1100,1100,1011,1500,1535,11091,808
81973,9,6.60,-8.04,4.01,0.186,0.290,0.721,-3.21,2.48,0.00,3.15,3.21,0.67,0.00,11.23,2.33,4.63,10.37,0.00,-3.14,4.51,-79.54,1100,1100,1100,1100,1011,1500,1535,11087,808
81985,9,10.12,-4.29,0.77,-0.119,0.331,1.087,-1.98,-1.99,0.00,0.00,1.98,1.99,0.00,6.95,6.98,-3.18,11.27,0.00,-5.09,3.43,-15.90,1100,1100,1100,1100,1036,1500,1509,11100,808
81996,9,14.16,-8.40,0.87,-0.315,0.002,1.171,-0.80,-4.86,0.00,0.00,0.80,4.86,0.00,2.78,17.00,-11.37,25.41,0.00,-6.23,5.38,-7.21,1100,1100,1100,1100,1036,1500,1509,11100,808
82009,9,7.10,-5.13,-0.27,-0.421,-0.261,1.336,-2.40,-5.55,0.00,0.00,2.40,5.55,0.00,8.40,19.44,1.30,24.57,0.00,-2.64,3.76,-3.01,1100,1100,1100,1100,1036,1500,1509,11095,808
82021,9,-6.80,10.59,-1.47,-0.129,-0.363,1.202,-4.20,-1.33,0.00,0.00,4.20,1.33,0.00,14.70,4.65,21.50,-5.94,0.00,4.05,-4.25,32.55,1100,1100,1100,1100,1033,1500,1512,11100,808
82032,9,-8.05,3.26,3.33,0.213,-0.122,0.594,-4.59,5.20,0.00,0.00,4.59,-5.20,0.00,16.07,-18.22,24.12,-21.48,0.00,4.69,-2.51,-61.16,1100,1100,1100,1100,1033,1500,1512,11087,808
82045,9,0.94,-3.84,-4.31,0.272,0.255,0.767,-1.82,6.38,0.00,0.00,1.82,-6.38,0.00,6.39,-22.33,5.45,-18.49,0.00,-0.24,0.72,83.76,1100,1100,1100,1100,1035,1500,1511,11091,813
82056,9,-5.92,2.38,-0.08,0.094,0.210,1.002,-1.30,5.00,0.00,0.00,1.30,-5.00,0.00,4.54,-17.50,10.46,-19.89,0.00,2.04,-2.02,3.82,1100,1100,1100,1100,1035,1500,1511,11087,813
82069,9,-2.65,-13.94,1.36,0.740,0.341,0.482,4.33,16.53,0.00,0.00,-4.33,-16.53,0.00,-15.14,-57.85,-12.49,-43.90,0.00,0.77,3.00,-40.93,1100,1100,1100,1100,1037,1500,1508,11091,813
82081,9,19.18,-12.19,0.72,0.116,-0.247,0.996,-3.98,15.92,0.00,0.00,3.98,-15.92,0.00,13.92,-55.73,-5.26,-43.54,0.00,-8.92,1.87,-11.37,1100,1100,1100,1100,1035,1500,1511,11087,813
82092,9,3.44,-5.35,2.28,-0.440,0.274,0.931,1.93,13.56,0.00,0.00,-1.93,-13.56,0.00,-6.76,-47.48,-10.20,-42.12,0.00,-2.15,-1.48,-50.46,1100,1100,1100,1100,1035,1500,1511,11095,813
82105,9,1.49,-5.17,-3.04,-0.215,-0.400,1.422,-4.63,4.24,0.00,0.00,4.63,-4.24,0.00,16.21,-14.84,14.73,-9.67,0.00,0.39,1.10,55.69,1100,1100,1100,1100,1037,1500,1509,11091,813
82116,9,-13.84,25.82,-0.29,-0.351,-0.906,1.098,-4.70,3.47,0.00,0.00,4.70,-3.47,0.00,16.43,-12.16,30.27,-37.98,0.00,7.06,-13.66,0.56,1100,1100,1100,1100,1037,1500,1509,11095,813
82129,9,-4.84,3.53,-0.31,0.037,0.160,0.788,-1.46,0.27,0.00,0.00,1.46,-0.27,0.00,5.12,-0.93,9.96,-4.46,0.00,3.11,-2.10,2.76,1100,1100,1100,1100,1037,1500,1508,11091,813
82141,9,16.60,-8.88,1.16,-0.102,0.490,1.211,-0.39,-3.99,0.00,0.00,0.39,3.99,0.00,1.35,13.98,-15.25,22.86,0.00,-8.18,6.60,-20.75,1100,1100,1100,1100,1038,1500,1508,11083,808
82152,9,-6.20,-8.92,0.80,0.192,0.407,0.730,5.90,7.81,0.00,0.00,-5.90,-7.81,0.00,-20.64,-27.33,-14.43,-18.40,0.00,1.55,2.46,-15.93,1100,1100,1100,1100,1038,1500,1508,11079,808
82165,9,9.70,-21.35,2.86,0.480,-0.205,0.822,-1.59,10.50,0.00,0.00,1.59,-10.50,0.00,5.58,-36.73,-4.12,-15.38,0.00,-3.60,7.73,-52.46,1100,1100,1100,1100,1038,1500,1508,11083,808
82177,9,6.32,5.65,-0.72,-0.443,-0.661,1.079,-3.20,4.26,0.00,0.00,3.20,-4.26,0.00,11.22,-14.92,4.90,-20.57,0.00,-3.35,-3.82,10.70,1100,1100,1100,1100,1038,1500,1508,11083,808
82189,9,-12.50,12.82,-2.80,-0.444,-0.088,1.125,-0.71,2.26,0.00,0.00,0.71,-2.26,0.00,2.49,-7.92,14.99,-20.74,0.00,6.52,-7.60,57.03,1100,1100,1100,1100,1037,1500,1509,11083,808
82201,9,6.22,12.81,1.52,-0.282,-0.386,1.469,-5.70,-0.94,0.00,0.00,5.70,0.94,0.00,19.96,3.27,13.74,-9.54,0.00,-1.97,-5.86,-26.00,1100,1100,1100,1100,1036,1500,1510,11083,808
82212,9,-19.19,5.78,-4.91,0.134,-0.179,0.862,-2.27,3.42,0.00,0.00,2.27,-3.42,0.00,7.96,-11.98,27.15,-17.76,0.00,9.04,-2.93,94.26,1100,1100,1100,1100,1036,1500,1510,11087,808
82225,9,1.69,-14.11,-0.24,0.426,0.606,0.730,4.36,3.26,0.00,0.00,-4.36,-3.26,0.00,-15.24,-11.41,-16.93,2.70,0.00,-0.94,7.18,0.47,1100,1100,1100,1100,1035,1500,1510,11083,808
82236,9,17.10,-5.05,0.60,-0.177,0.086,0.854,1.98,0.55,0.00,0.00,-1.98,-0.55,0.00,-6.94,-1.91,-24.04,3.14,0.00,-8.88,2.69,-26.71,1100,1100,1100,1100,1035,1500,1510,11075,808
82249,9,2.37,-3.92,2.17,-0.130,-0.017,1.124,3.61,5.21,0.00,0.00,-3.61,-5.21,0.00,-12.64,-18.24,-15.01,-14.32,0.00,-0.93,0.47,-46.75,1100,1100,1100,1100,1034,1500,1512,11070,808
82261,9,7.44,-2.41,4.72,-0.308,-0.054,1.302,-1.13,-3.20,0.00,2.70,1.13,5.90,0.00,3.95,20.65,-3.49,23.06,0.00,-2.64,2.15,-95.78,1100,1100,1100,1100,1016,1500,1530,11083,808
82272,9,-8.86,5.11,-2.78,-0.311,-0.377,1.102,-3.89,-4.54,0.00,2.70,3.89,7.24,0.00,13.63,25.34,22.49,20.23,0.00,4.75,-1.13,55.87,1100,1100,1100,1100,1016,1500,1530,11083,808
82285,9,1.92,9.02,-1.68,-0.250,-0.143,1.077,-3.62,-7.63,0.00,0.00,3.62,7.63,0.00,12.68,26.71,10.76,17.69,0.00,0.34,-2.79,35.63,1100,1100,1100,1100,1037,1500,1509,11087,808
82296,9,4.32,8.38,-1.59,-0.197,-0.177,1.247,-5.38,-4.77,0.00,0.00,5.38,4.77,0.00,18.83,16.70,14.51,8.32,0.00,-1.30,-2.46,30.52,1100,1100,1100,1100,1037,1500,1509,11091,808
82309,9,-16.60,5.43,1.10,0.273,0.149,1.205,-1.01,3.00,0.00,0.00,1.01,-3.00,0.00,3.52,-10.51,20.12,-15.94,0.00,8.34,-2.28,-11.92,1100,1100,1100,1100,1035,1500,1510,11083,808
82321,9,1.17,-12.43,1.61,0.568,0.266,0.312,5.02,10.19,0.00,0.00,-5.02,-10.19,0.00,-17.58,-35.65,-18.75,-23.22,0.00,-1.23,5.63,-30.83,1100,1100,1100,1100,1035,1500,1510,11095,808
82332,9,13.76,1.94,-1.14,-0.243,-0.005,1.252,1.67,6.61,0.00,0.00,-1.67,-6.61,0.00,-5.85,-23.14,-19.61,-25.08,0.00,-7.07,-0.66,23.25,1100,1100,1100,1100,1035,1500,1510,11095,808
82345,9,0.80,8.51,2.18,-0.322,-0.184,1.185,-1.75,0.16,0.00,0.00,1.75,-0.16,0.00,6.12,-0.56,5.32,-9.07,0.00,-0.26,-3.10,-37.31,1100,1100,1100,1100,1026,1500,1520,11095,808
82356,9,-4.45,-3.27,-0.26,-0.058,-0.172,1.188,-3.87,2.59,0.00,0.00,3.87,-2.59,0.00,13.56,-9.07,18.01,-5.79,0.00,2.48,2.16,-3.79,1100,1100,1100,1100,1026,1500,1520,11091,808
82369,9,-5.39,7.95,-3.57,-0.086,-0.345,1.176,-4.39,1.88,0.00,0.00,4.39,-1.88,0.00,15.35,-6.58,20.74,-14.54,0.00,2.09,-2.00,68.99,1100,1100,1100,1100,1038,1500,1508,11083,808
82381,9,-11.45,12.57,0.13,-0.045,-0.413,0.878,-6.25,0.39,0.00,0.00,6.25,-0.39,0.00,21.89,-1.38,33.34,-13.94,0.00,6.02,-4.84,-4.22,1100,1100,1100,1100,1036,1500,1510,11083,808
82392,9,3.60,-0.87,-1.34,0.216,-0.014,1.032,-6.14,3.67,0.00,0.00,6.14,-3.67,0.00,21.48,-12.84,17.88,-11.97,0.00,-0.62,0.61,20.51,1100,1100,1100,1100,1036,1500,1510,11083,808
82405,9,-11.26,5.50,1.52,0.093,0.261,0.860,-0.45,3.40,0.00,0.00,0.45,-3.40,0.00,1.56,-11.89,12.82,-17.39,0.00,4.58,-2.52,-28.63,1100,1100,1100,1100,1038,1500,1508,11095,808
82416,9,1.32,-23.59,1.89,0.426,0.339,0.794,-0.16,8.06,0.00,0.00,0.16,-8.06,0.00,0.57,-28.21,-0.76,-4.62,0.00,-0.50,9.79,-42.08,1100,1100,1100,1100,1038,1500,1508,11087,808
82429,9,22.05,0.90,-1.15,-0.168,-0.618,1.134,-5.47,4.58,0.00,0.00,5.47,-4.58,0.00,19.13,-16.02,-2.91,-16.92,0.00,-9.42,-1.34,24.77,1100,1100,1100,1100,1038,1500,1508,11083,808
82441,9,3.71,-5.80,3.28,-0.331,0.200,0.886,7.73,6.48,0.00,2.97,-7.73,-3.51,0.00,-27.05,-12.30,-30.77,-6.50,0.00,-2.06,0.33,-60.59,1100,1100,1100,1100,1013,1500,1533,11087,836
82452,9,0.05,1.66,1.45,-0.288,-0.083,1.648,0.11,2.59,0.00,2.97,-0.11,0.38,0.00,-0.38,1.34,-0.43,-0.33,0.00,1.32,-1.66,-22.15,1100,1100,1100,1100,1013,1500,1533,11083,836
82465,9,0.55,14.69,0.77,-0.249,-0.609,1.000,-3.39,2.20,0.00,2.97,3.39,0.77,0.00,11.86,2.71,11.31,-11.98,0.00,-0.71,-6.30,-11.51,1100,1100,1100,1100,1012,1500,1533,11087,836
82476,9,-15.00,12.75,-1.88,0.101,-0.218,0.891,-1.30,11.00,0.00,2.97,1.30,-8.03,0.00,4.56,-28.10,19.57,-40.84,0.00,7.46,-8.17,39.38,1100,1100,1100,1100,1012,1500,1533,11095,836
82489,9,3.51,3.76,-2.33,-0.156,-0.225,1.297,-5.34,6.45,0.00,0.00,5.34,-6.45,0.00,18.69,-22.56,15.19,-26.32,0.00,-1.39,-2.58,41.95,1100,1100,1100,1100,1038,1500,1508,11083,836
82501,9,-19.67,12.08,-3.15,0.111,0.073,0.948,1.37,7.30,0.00,0.00,-1.37,-7.30,0.00,-4.79,-25.55,14.88,-37.63,0.00,7.96,-6.42,57.68,1100,1100,1100,1100,1038,1500,1508,11087,836
82513,9,-2.59,-8.01,-0.14,0.512,0.290,0.741,-0.10,7.83,0.00,0.00,0.10,-7.83,0.00,0.36,-27.40,2.95,-19.39,0.00,1.41,3.97,5.48,1100,1100,1100,1100,1038,1500,1508,11083,836
82525,9,16.46,-2.62,2.81,-0.147,-0.244,0.907,-3.70,1.47,0.00,0.00,3.70,-1.47,0.00,12.94,-5.16,-3.53,-2.54,0.00,-8.29,2.83,-62.22,1100,1100,1100,1100,1038,1500,1508,11083,836
82537,9,2.36,-13.34,1.08,-0.070,0.356,0.965,0.58,6.40,0.00,0.00,-0.58,-6.40,0.00,-2.04,-22.41,-4.40,-9.07,0.00,-1.03,5.10,-19.88,1100,1100,1100,1100,1038,1500,1508,11087,836
82549,9,7.11,-3.01,3.05,-0.270,-0.405,1.286,-4.89,1.10,0.00,0.00,4.89,-1.10,0.00,17.10,-3.86,9.99,-0.85,0.00,-1.99,0.74,-63.06,1100,1100,1100,1100,1037,1500,1509,11083,852
82561,9,-7.05,10.68,-4.06,-0.160,-0.770,1.173,-4.46,4.12,0.00,3.69,4.46,-0.43,0.00,15.61,-1.49,22.67,-12.16,0.00,4.06,-6.39,76.63,1100,1100,1100,1100,1005,1500,1541,11083,852
82572,9,-3.77,-0.01,-0.10,0.063,-0.259,0.849,-5.59,7.52,0.00,3.69,5.59,-3.83,0.00,19.56,-13.39,23.33,-13.39,0.00,3.52,-2.43,10.53,1100,1100,1100,1100,1005,1500,1541,11079,852
82585,9,4.36,1.47,-0.47,-0.141,0.055,0.984,-4.08,2.74,0.00,0.00,4.08,-2.74,0.00,14.27,-9.58,9.91,-11.05,0.00,-1.48,-1.74,0.72,1100,1100,1100,1100,1030,1500,1516,11083,852
82596,9,-12.48,7.48,-2.18,0.171,0.036,1.158,-3.53,6.64,0.00,0.00,3.53,-6.64,0.00,12.36,-23.22,24.85,-30.70,0.00,6.54,-4.93,45.84,1100,1100,1100,1100,1030,1500,1516,11083,852
82609,9,-5.31,-1.14,3.03,0.363,0.052,0.683,-4.31,5.90,0.00,0.00,4.31,-5.90,0.00,15.09,-20.65,20.40,-19.51,0.00,3.00,0.62,-60.00,1100,1100,1100,1100,1037,1500,1509,11087,852
82621,9,6.19,-1.48,0.56,-0.276,0.059,1.192,-3.39,0.03,0.00,0.00,3.39,-0.03,0.00,11.85,-0.11,5.66,1.38,0.00,-3.36,2.40,-5.67,1100,1100,1100,1100,1037,1500,1509,11095,852
82633,9,9.40,1.77,3.47,-0.421,-0.011,1.211,-0.84,1.03,0.00,0.00,0.84,-1.03,0.00,2.93,-3.59,-6.47,-5.36,0.00,-4.78,0.59,-46.27,1100,1100,1100,1100,1037,1500,1509,11095,852
82645,9,-0.08,6.62,0.97,-0.420,-0.393,1.334,-4.82,-2.76,0.00,3.06,4.82,5.82,0.00,16.87,20.36,16.96,13.74,0.00,0.50,-0.54,-7.46,1100,1100,1100,1100,1012,1500,1534,11091,844
82656,9,-5.94,7.47,-1.71,-0.296,-0.591,1.431,-5.97,-2.72,0.00,3.06,5.97,5.78,0.00,20.90,20.22,26.84,12.75,0.00,3.25,-1.04,50.41,1100,1100,1100,1100,1012,1500,1534,11095,844
82669,9,-11.32,10.84,1.91,-0.082,-0.116,0.723,-2.80,-1.92,0.00,0.00,2.80,1.92,0.00,9.81,6.70,21.13,-4.14,0.00,5.71,-4.06,-32.64,1100,1100,1100,1100,1037,1500,1509,11083,844
82681,9,0.86,-1.64,-4.97,0.270,0.136,0.883,-0.89,1.50,0.00,0.00,0.89,-1.50,0.00,3.10,-5.26,2.25,-3.62,0.00,0.07,1.25,98.18,1100,1100,1100,1100,1038,1500,1508,11100,844
82692,9,-0.18,-1.08,0.59,0.182,0.501,0.930,0.89,7.61,0.00,0.00,-0.89,-7.61,0.00,-3.13,-26.64,-2.95,-25.56,0.00,-0.42,-0.77,-13.41,1100,1100,1100,1100,1038,1500,1508,11108,844
82705,9,1.71,-23.93,4.26,0.544,0.324,0.551,2.38,14.96,0.00,0.00,-2.38,-14.96,0.00,-8.33,-52.35,-10.03,-28.42,0.00,-0.59,7.88,-96.98,1100,1100,1100,1100,1038,1500,1508,11112,844
82716,9,16.51,-9.58,0.79,-0.096,-0.191,1.106,-3.16,7.23,0.00,0.00,3.16,-7.23,0.00,11.07,-25.30,-5.44,-15.72,0.00,-7.23,2.21,-15.77,1100,1100,1100,1100,1038,1500,1508,11108,844
82729,9,2.48,5.50,1.43,-0.898,-0.039,1.134,2.29,1.50,0.00,0.00,-2.29,-1.50,0.00,-8.03,-5.24,-10.51,-10.74,0.00,-1.24,-5.29,-24.45,1100,1100,1100,1100,1038,1500,1508,11108,844
82741,9,3.97,3.91,0.30,-0.544,-0.463,1.686,-3.80,-5.55,0.00,0.00,3.80,5.55,0.00,13.29,19.43,9.32,15.52,0.00,-0.39,-1.50,-1.56,1100,1100,1100,1100,1038,1500,1508,11112,926
82752,9,-14.89,24.26,-0.86,-0.329,-0.715,1.163,-5.74,-5.24,0.00,0.00,5.74,5.24,0.00,20.10,18.35,34.99,-5.90,0.00,7.46,-10.78,19.33,1100,1100,1100,1100,1038,1500,1508,11100,926
82765,9,-13.30,0.77,-2.82,0.238,0.126,0.833,-2.40,-1.83,0.00,0.00,2.40,1.83,0.00,8.39,6.40,21.68,5.63,0.00,6.95,0.21,53.47,1100,1100,1100,1100,1035,1500,1511,11095,926
82776,9,16.79,-2.93,1.02,-0.152,0.304,1.183,-1.71,-6.39,0.00,0.00,1.71,6.39,0.00,5.99,22.38,-10.80,25.31,0.00,-8.29,4.56,-15.39,1100,1100,1100,1100,1035,1500,1511,11100,926
82789,9,-6.03,-0.58,4.02,-0.043,0.499,0.971,4.42,-0.19,0.00,0.00,-4.42,0.19,0.00,-15.48,0.67,-9.44,1.25,0.00,1.54,1.07,-71.43,1100,1100,1100,1100,1035,1500,1511,11108,926
82801,9,6.71,-17.78,0.18,0.555,0.114,0.762,0.57,6.25,0.00,0.00,-0.57,-6.25,0.00,-2.01,-21.88,-8.72,-4.10,0.00,-2.85,8.10,3.38,1100,1100,1100,1100,1035,1500,1511,11100,926
82813,9,5.05,12.97,0.08,-0.668,-0.693,1.376,-3.21,-0.87,0.00,0.00,3.21,0.87,0.00,11.24,3.03,6.19,-9.94,0.00,-2.87,-5.50,-1.42,1100,1100,1100,1100,1035,1500,1511,11095,926
82825,9,-8.65,7.48,-1.06,-0.099,-0.067,0.949,0.66,4.76,0.00,0.00,-0.66,-4.76,0.00,-2.30,-16.66,6.36,-24.14,0.00,4.47,-4.26,17.27,1100,1100,1100,1100,1035,1500,1511,11083,926
82837,9,4.25,1.72,-0.57,0.120,-0.173,1.112,-4.53,2.67,0.00,0.00,4.53,-2.67,0.00,15.84,-9.33,11.59,-11.05,0.00,-1.17,-0.54,6.99,1100,1100,1100,1100,1035,1500,1511,11083,926
82849,9,-20.48,12.31,-5.10,0.317,-0.111,0.719,-0.96,10.13,0.00,2.79,0.96,-7.34,0.00,3.38,-25.70,23.85,-38.02,0.00,9.67,-7.27,94.76,1100,1100,1100,1100,1016,1500,1531,11083,903
82861,9,1.80,-10.43,-1.67,0.568,0.249,0.619,-0.29,10.16,0.00,2.88,0.29,-7.28,0.00,1.03,-25.46,-0.76,-15.03,0.00,-0.23,3.71,29.69,1100,1100,1100,1100,1015,1500,1532,11079,903
82872,9,20.86,-8.75,3.72,-0.385,0.131,1.142,-2.81,3.35,0.00,2.88,2.81,-0.47,0.00,9.85,-1.65,-11.01,7.10,0.00,-10.24,3.83,-91.02,1100,1100,1100,1100,1015,1500,1532,11083,903
82885,9,1.12,-6.92,2.59,-0.184,0.403,1.343,-0.38,0.18,0.00,0.00,0.38,-0.18,0.00,1.33,-0.62,0.21,6.31,0.00,-0.40,2.78,-45.75,1100,1100,1100,1100,1036,1500,1511,11083,903
82896,9,0.98,-3.39,4.07,-0.077,-0.470,1.059,-7.33,-2.88,0.00,0.00,7.33,2.88,0.00,25.65,10.07,24.66,13.46,0.00,0.63,2.47,-68.46,1100,1100,1100,1100,1036,1500,1511,11079,903
82909,9,-8.63,17.79,-5.54,-0.282,-0.756,1.257,-5.90,-0.51,0.00,0.00,5.90,0.51,0.00,20.65,1.80,29.28,-15.99,0.00,4.31,-7.91,113.07,1100,1100,1100,1100,1035,1500,1511,11083,903
82921,9,2.45,2.54,-0.78,-0.082,-0.081,0.900,-6.17,0.29,0.00,0.00,6.17,-0.29,0.00,21.61,-1.01,19.16,-3.55,0.00,0.15,-1.57,22.79,1100,1100,1100,1100,1035,1500,1511,11087,903
82932,9,0.75,6.56,-1.39,-0.216,-0.012,1.253,-3.34,-1.16,0.00,0.00,3.34,1.16,0.00,11.68,4.06,10.92,-2.50,0.00,0.36,-2.13,19.86,1100,1100,1100,1100,1035,1500,1511,11087,903
82945,9,-19.62,5.37,-1.68,0.418,-0.099,1.093,-2.81,9.71,0.00,0.00,2.81,-9.71,0.00,9.83,-33.97,29.45,-39.34,0.00,10.07,-4.08,34.45,1100,1100,1100,1100,1035,1500,1511,11083,1230
82957,9,0.47,-1.80,2.44,0.374,0.152,0.460,1.66,9.53,0.00,0.00,-1.66,-9.53,0.00,-5.81,-33.35,-6.28,-31.55,0.00,-0.25,0.83,-51.63,1100,1100,1100,1100,1035,1500,1511,11087,1230
82969,9,12.68,3.10,-1.59,-0.301,0.325,1.090,1.04,1.77,0.00,0.00,-1.04,-1.77,0.00,-3.65,-6.20,-16.33,-9.30,0.00,-6.34,-0.26,35.74,1100,1100,1100,1100,1037,1500,1508,11095,1230
82981,9,5.93,0.87,4.09,-0.285,0.005,1.135,-1.06,4.89,0.00,0.00,1.06,-4.89,0.00,3.71,-17.12,-2.21,-18.00,0.00,-2.71,0.10,-75.49,1100,1100,1100,1100,1036,1500,1510,11083,1230
82992,9,0.07,-13.51,-1.16,0.139,-0.155,0.901,-0.63,4.98,0.00,0.00,0.63,-4.98,0.00,2.21,-17.44,2.14,-3.93,0.00,0.63,6.09,11.11,1100,1100,1100,1100,1036,1500,1510,11083,1230
83005,9,1.80,4.88,-2.26,-0.216,-0.746,1.364,-6.62,5.54,0.00,0.00,6.62,-5.54,0.00,23.17,-19.39,21.37,-24.27,0.00,-0.14,-2.96,46.64,1100,1100,1100,1100,1036,1500,1510,11083,1230
83016,9,-8.78,11.92,1.04,-0.243,-0.293,0.915,-2.38,7.66,0.00,0.00,2.38,-7.66,0.00,8.32,-26.80,17.09,-38.72,0.00,4.59,-7.55,-28.95,1100,1100,1100,1100,1036,1500,1510,11091,1230
83029,9,-2.46,-1.19,-4.01,0.157,-0.096,1.082,-4.06,5.42,0.00,0.00,4.06,-5.42,0.00,14.22,-18.96,16.68,-17.77,0.00,2.23,0.06,74.35,1100,1100,1100,1100,1037,1500,1510,11075,1230
83041,9,-16.30,16.40,-0.73,0.104,-0.265,1.116,-0.26,5.13,0.00,0.00,0.26,-5.13,0.00,0.91,-17.95,17.21,-34.35,0.00,7.09,-8.25,11.72,1100,1100,1100,1100,1037,1500,1510,11079,808
83053,9,-7.96,-9.94,-1.39,0.383,0.537,0.638,5.67,7.09,0.00,0.00,-5.67,-7.09,0.00,-19.85,-24.82,-11.89,-14.88,0.00,2.69,3.69,16.54,1100,1100,1100,1100,1037,1500,1510,11075,808
83065,9,21.41,-6.76,0.58,-0.418,0.201,1.423,-0.71,-2.74,0.00,0.00,0.71,2.74,0.00,2.47,9.58,-18.94,16.34,0.00,-10.56,4.15,-12.96,1100,1100,1100,1100,1037,1500,1510,11079,808
83076,9,-1.20,-2.37,1.27,-0.289,0.140,0.781,3.81,-1.40,0.00,0.00,-3.81,1.40,0.00,-13.34,4.90,-12.14,7.27,0.00,-0.17,1.34,-31.17,1100,1100,1100,1100,1037,1500,1510,11075,808
83089,9,4.03,-8.04,2.95,0.042,-0.244,1.267,-2.15,-1.65,0.00,0.00,2.15,1.65,0.00,7.52,5.79,3.48,13.83,0.00,-0.63,4.67,-64.36,1100,1100,1100,1100,1034,1500,1513,11075,808
83101,9,1.76,11.70,0.21,-0.160,-0.699,0.984,-3.99,5.38,0.00,0.00,3.99,-5.38,0.00,13.96,-18.82,12.19,-30.52,0.00,-1.05,-6.40,-4.89,1100,1100,1100,1100,1037,1500,1510,11075,808
83112,9,-6.74,8.96,0.69,-0.185,-0.067,1.143,2.17,10.26,0.00,0.00,-2.17,-10.26,0.00,-7.61,-35.92,-0.87,-44.88,0.00,3.37,-7.01,-12.64,1100,1100,1100,1100,1037,1500,1510,11070,808
83125,9,7.44,-14.23,-2.82,0.238,-0.552,0.983,-6.32,9.44,0.00,0.00,6.32,-9.44,0.00,22.13,-33.04,14.69,-18.81,0.00,-2.06,4.91,53.24,1100,1100,1100,1100,1037,1500,1510,11083,808
83136,9,-17.60,25.70,-5.21,-0.406,-0.495,1.143,-3.12,3.99,0.00,0.00,3.12,-3.99,0.00,10.92,-13.96,28.53,-39.66,0.00,8.11,-12.76,104.22,1100,1100,1100,1100,1037,1500,1510,11083,808
83149,9,-9.35,5.48,0.73,0.412,0.345,0.886,-0.10,5.66,0.00,0.00,0.10,-5.66,0.00,0.35,-19.79,9.70,-25.27,0.00,4.99,-3.12,-14.26,1100,1100,1100,1100,1037,1500,1510,11083,808
83161,9,7.40,-6.07,1.80,0.154,0.085,0.711,-1.87,1.54,0.00,3.15,1.87,1.61,0.00,6.53,5.62,-0.87,11.69,0.00,-3.97,4.87,-38.80,1100,1100,1100,1100,1011,1500,1535,11079,808
83172,9,-5.50,-6.64,-0.10,-0.009,0.258,0.807,1.99,1.80,0.00,3.15,-1.99,1.35,0.00,-6.96,4.71,-1.45,11.35,0.00,1.90,4.38,7.54,1100,1100,1100,1100,1011,1500,1535,11079,808
83185,9,14.22,-15.82,1.71,0.125,0.059,0.987,-1.30,7.07,0.00,0.00,1.30,-7.07,0.00,4.57,-24.73,-9.65,-8.91,0.00,-6.39,6.94,-33.75,1100,1100,1100,1100,1037,1500,1510,11070,808
83196,9,8.14,3.76,0.53,-0.145,-0.290,1.157,-2.03,5.75,0.00,0.00,2.03,-5.75,0.00,7.10,-20.12,-1.03,-23.88,0.00,-4.02,-2.48,-11.67,1100,1100,1100,1100,1037,1500,1510,11066,808
83209,9,2.62,-1.01,3.08,-0.108,-0.059,1.214,-2.20,7.34,0.00,3.60,2.20,-3.74,0.00,7.70,-13.07,5.08,-12.06,0.00,-0.23,-0.83,-56.31,1100,1100,1100,1100,1007,1500,1540,11083,808
83221,9,6.95,-5.53,0.87,-0.424,-0.386,1.068,-5.94,-0.70,0.00,3.60,5.94,4.30,0.00,20.80,15.04,13.84,20.57,0.00,-2.17,3.04,-16.09,1100,1100,1100,1100,1007,1500,1540,11083,808
83232,9,-11.24,12.38,-4.29,-0.292,-0.462,1.333,-3.91,-0.53,0.00,3.60,3.91,4.13,0.00,13.70,14.45,24.94,2.07,0.00,5.94,-5.93,88.50,1100,1100,1100,1100,1007,1500,1540,11083,808
83245,9,-9.62,8.81,-0.69,0.332,-0.073,0.707,-3.90,8.97,0.00,0.00,3.90,-8.97,0.00,13.64,-31.41,23.26,-40.22,0.00,5.48,-7.04,12.17,1100,1100,1100,1100,1038,1501,1509,11087,808
83256,9,-2.92,-6.68,-2.37,0.530,0.145,0.795,0.15,14.78,0.00,0.00,-0.15,-14.78,0.00,-0.52,-51.74,2.39,-45.06,0.00,1.12,-0.41,33.66,1100,1100,1100,1100,1038,1500,1509,11070,808
83269,9,-2.17,-6.56,-1.71,-0.011,0.095,0.958,0.95,5.98,0.00,3.42,-0.95,-2.56,0.00,-3.33,-8.96,-1.16,-2.40,0.00,0.77,1.79,31.16,1100,1100,1100,1100,1009,1500,1538,11083,808
83281,9,1.95,-5.98,1.56,-0.061,0.201,0.718,2.47,6.35,0.00,0.00,-2.47,-6.35,0.00,-8.66,-22.21,-10.61,-16.23,0.00,-1.08,0.79,-44.23,1100,1100,1100,1100,1037,1500,1509,11087,808
83292,9,12.61,-1.41,0.53,0.030,-0.122,1.273,-2.89,4.24,0.00,0.00,2.89,-4.24,0.00,10.10,-14.85,-2.51,-13.44,0.00,-5.96,0.25,-18.46,1100,1100,1100,1100,1037,1500,1509,11091,808
83305,9,-1.10,3.59,4.78,-0.289,-0.387,1.203,-1.15,-0.35,0.00,3.51,1.15,3.86,0.00,4.02,13.52,5.13,9.93,0.00,0.73,-1.19,-97.39,1100,1100,1100,1100,1007,1500,1539,11100,808
83316,9,2.11,3.14,-1.31,-0.188,-0.180,1.018,-3.97,-1.44,0.00,3.51,3.97,4.95,0.00,13.91,17.31,11.80,14.16,0.00,0.48,-0.74,24.12,1100,1100,1100,1100,1007,1500,1539,11104,808
83329,9,0.13,14.00,-3.71,-0.259,-0.475,1.408,-2.21,-2.39,0.00,3.51,2.21,5.90,0.00,7.75,20.66,7.62,6.67,0.00,-0.06,-5.02,77.39,1100,1100,1100,1100,1008,1500,1539,11095,808
83341,9,-16.50,16.24,-1.50,0.011,-0.060,0.930,0.33,0.71,0.00,3.51,-0.33,2.80,0.00,-1.15,9.79,15.35,-6.45,0.00,8.15,-7.34,25.25,1100,1100,1100,1100,1008,1500,1539,11095,809
83353,9,1.35,-3.17,-2.45,0.493,0.135,1.033,1.25,5.49,0.00,3.51,-1.25,-1.98,0.00,-4.38,-6.94,-5.73,-3.77,0.00,-0.41,2.75,46.83,1100,1100,1100,1100,1008,1500,1539,11100,809
83365,9,-11.01,-6.96,1.23,0.593,0.229,0.268,9.64,17.71,0.00,2.70,-9.64,-15.01,0.00,-33.73,-52.55,-22.72,-45.59,0.00,3.03,2.24,-27.38,1100,1100,1100,1100,1017,1500,1530,11091,809
83376,9,3.13,-12.74,0.24,0.324,0.278,0.723,4.61,20.43,0.00,2.70,-4.61,-17.73,0.00,-16.14,-62.07,-19.27,-49.33,0.00,-2.16,2.71,-10.15,1100,1100,1100,1100,1017,1500,1530,11091,809
83389,9,19.45,3.78,3.48,-0.521,-0.239,1.427,-1.00,7.68,0.00,0.00,1.00,-7.68,0.00,3.50,-26.89,-15.95,-30.67,0.00,-9.77,-2.32,-71.32,1100,1100,1100,1100,1038,1500,1509,11083,809
83401,9,-2.55,8.63,2.95,-0.775,0.065,1.522,2.54,0.28,0.00,0.00,-2.54,-0.28,0.00,-8.90,-0.99,-6.36,-9.62,0.00,1.06,-3.58,-56.68,1100,1100,1100,1100,1037,1500,1509,11083,809
83412,9,4.93,-7.42,-3.27,-0.112,-0.524,1.243,-4.51,-3.62,0.00,0.00,4.51,3.62,0.00,15.79,12.68,10.86,20.10,0.00,-1.05,5.78,70.91,1100,1100,1100,1100,1037,1500,1509,11083,809
83425,9,-12.54,24.48,-6.20,-0.355,-0.605,1.082,-3.36,-5.92,0.00,3.51,3.36,9.43,0.00,11.75,33.01,24.29,8.53,0.00,5.81,-8.52,118.23,1100,1100,1100,1100,1008,1500,1539,11083,809
83436,9,-11.85,5.88,-0.36,0.272,-0.028,0.895,-4.09,0.89,0.00,3.51,4.09,2.62,0.00,14.32,9.15,26.17,3.27,0.00,7.20,-1.88,0.51,1100,1100,1100,1100,1008,1500,1539,11083,809
83449,9,9.45,-5.14,3.44,0.278,0.006,0.994,-5.06,0.65,0.00,3.51,5.06,2.86,0.00,17.69,10.01,8.24,15.15,0.00,-4.00,4.30,-75.69,1100,1100,1100,1100,1008,1500,1539,11087,808
83461,9,-10.17,-4.84,-0.81,0.149,0.084,0.831,-3.93,4.48,0.00,0.00,3.93,-4.48,0.00,13.74,-15.67,23.91,-10.82,0.00,5.21,1.44,18.89,1100,1100,1100,1100,1038,1500,1509,11083,808
83472,9,17.82,-19.48,1.42,0.124,0.274,0.871,-3.18,6.06,0.00,0.00,3.18,-6.06,0.00,11.12,-21.22,-6.69,-1.74,0.00,-7.41,8.46,-22.35,1100,1100,1100,1100,1038,1500,1509,11083,808
83485,9,11.32,-0.92,-0.14,-0.178,-0.249,1.167,-5.16,6.53,0.00,3.51,5.16,-3.02,0.00,18.08,-10.55,6.76,-9.63,0.00,-5.06,0.02,0.41,1100,1100,1100,1100,1009,1500,1539,11079,808
83496,9,-5.67,7.20,1.74,-0.286,-0.278,1.351,-2.78,7.32,0.00,3.51,2.78,-3.81,0.00,9.73,-13.32,15.40,-20.53,0.00,3.66,-4.54,-32.15,1100,1100,1100,1100,1009,1500,1539,11083,808
83509,9,3.95,12.51,2.18,-0.430,-0.406,1.316,-5.33,-1.38,0.00,0.00,5.33,1.38,0.00,18.66,4.83,14.71,-7.69,0.00,-1.02,-4.30,-46.06,1100,1100,1100,1100,1039,1500,1509,11087,808
83521,9,-13.06,11.88,-3.88,0.007,-0.157,1.052,-2.63,2.17,0.00,3.42,2.63,1.25,0.00,9.20,4.38,22.26,-7.50,0.00,6.13,-4.13,81.83,1100,1100,1100,1100,1012,1501,1538,11091,808
83532,9,-10.66,7.99,-1.09,0.170,-0.049,0.854,-2.86,0.17,0.00,3.42,2.86,3.25,0.00,10.00,11.36,20.66,3.37,0.00,5.59,-1.38,26.58,1100,1100,1100,1100,1012,1501,1538,11079,808
83545,9,4.63,-5.09,-2.32,0.303,-0.090,0.820,-3.46,6.82,0.00,3.42,3.46,-3.40,0.00,12.13,-11.90,7.50,-6.81,0.00,-2.61,3.12,35.47,1100,1100,1100,1100,1015,1500,1538,11079,809
83557,9,1.03,-6.98,0.80,0.421,0.410,0.877,0.36,9.60,0.00,3.42,-0.36,-6.18,0.00,-1.24,-21.64,-2.27,-14.65,0.00,-0.51,2.71,-15.89,1100,1100,1100,1100,1015,1500,1538,11079,809
83569,9,9.72,-24.13,2.85,0.433,0.190,0.312,0.77,17.32,0.00,0.00,-0.77,-17.32,0.00,-2.68,-60.63,-12.40,-36.51,0.00,-4.72,8.41,-66.38,1100,1100,1100,1100,1036,1500,1517,11083,809
83581,9,13.26,-7.82,-1.23,-0.141,-0.017,1.300,-0.71,10.71,0.00,0.00,0.71,-10.71,0.00,2.50,-37.48,-10.76,-29.66,0.00,-6.21,1.18,23.50,1100,1100,1100,1100,1048,1500,1512,11083,809
83592,9,5.93,9.85,3.65,-0.524,-0.468,1.350,2.14,7.83,0.00,0.00,-2.14,-7.83,0.00,-7.48,-27.41,-13.41,-37.26,0.00,-2.36,-6.78,-68.32,1100,1100,1100,1100,1048,1500,1512,11079,809
83605,9,-4.79,10.15,-1.84,-0.258,-0.377,1.357,-0.19,4.01,0.00,0.00,0.19,-4.01,0.00,0.67,-14.05,5.46,-24.20,0.00,3.18,-4.85,28.80,1100,1100,1100,1100,1052,1500,1508,11079,809
83616,9,-5.36,6.01,-4.72,0.172,-0.241,0.974,-0.77,6.97,0.00,0.00,0.77,-6.97,0.00,2.68,-24.40,8.04,-30.41,0.00,2.67,-2.99,91.84,1100,1100,1100,1100,1052,1500,1508,11075,809
83629,9,-10.73,-4.88,0.58,0.166,0.044,0.541,0.23,10.18,0.00,0.00,-0.23,-10.18,0.00,-0.81,-35.64,9.93,-30.77,0.00,5.26,0.51,-19.40,1100,1100,1100,1100,1056,1500,1508,11079,809
83641,9,2.80,-4.79,-1.82,0.207,0.039,1.059,-1.83,6.97,0.00,3.42,1.83,-3.55,0.00,6.41,-12.43,3.61,-7.64,0.00,-0.88,1.82,29.88,1100,1100,1100,1100,1026,1500,1538,11075,808
83652,9,-3.13,5.17,3.97,0.027,0.103,0.975,-2.61,4.10,0.00,3.42,2.61,-0.68,0.00,9.13,-2.39,12.26,-7.56,0.00,1.22,-2.75,-71.74,1100,1100,1100,1100,1026,1500,1538,11070,808
83665,9,-2.33,-15.82,2.40,0.335,0.197,0.599,0.07,9.14,0.00,0.00,-0.07,-9.14,0.00,-0.25,-31.98,2.08,-16.16,0.00,1.32,5.57,-49.94,1100,1100,1100,1100,1059,1500,1516,11075,808
83676,9,17.12,1.06,-2.21,-0.359,-0.468,1.332,-6.80,3.79,0.00,0.00,6.80,-3.79,0.00,23.81,-13.27,6.70,-14.33,0.00,-7.87,-1.03,48.64,1100,1100,1100,1100,1059,1500,1516,11075,808
83689,9,0.28,11.86,1.02,-0.784,-0.199,1.324,-1.68,1.38,0.00,0.00,1.68,-1.38,0.00,5.89,-4.83,5.60,-16.69,0.00,-0.42,-5.98,-21.36,1100,1100,1100,1100,1067,1500,1508,11079,808
83701,9,-3.55,6.43,-0.05,-0.363,-0.318,1.698,-6.47,-1.58,0.00,0.00,6.47,1.58,0.00,22.66,5.52,26.21,-0.91,0.00,2.86,-1.34,4.58,1100,1100,1100,1100,1086,1500,1508,11075,808
83712,9,-14.82,16.31,0.44,-0.088,-0.609,1.024,-4.64,-0.83,0.00,0.00,4.64,0.83,0.00,16.23,2.90,31.05,-13.41,0.00,6.77,-5.99,1.12,1100,1100,1100,1100,1086,1500,1508,11070,808
83725,9,-11.85,0.00,-2.70,0.404,0.086,0.537,-1.45,2.53,0.00,0.00,1.45,-2.53,0.00,5.06,-8.87,16.91,-8.87,0.00,5.96,1.04,59.74,1100,1100,1100,1100,1087,1500,1508,11079,808
83736,9,19.98,-11.96,-1.80,0.113,0.186,0.827,-3.14,0.83,0.00,0.00,3.14,-0.83,0.00,10.99,-2.89,-8.99,9.07,0.00,-9.51,6.91,36.20,1100,1100,1100,1100,1087,1500,1508,11075,808
83749,9,-16.32,3.38,-2.87,0.089,0.411,0.799,1.20,7.32,0.00,0.00,-1.20,-7.32,0.00,-4.20,-25.64,12.12,-29.01,0.00,6.69,-3.01,45.94,1100,1100,1100,1100,1094,1500,1508,11079,808
83761,9,4.50,-13.26,2.88,0.754,0.340,0.641,4.69,13.19,0.00,0.00,-4.69,-13.19,0.00,-16.41,-46.16,-20.91,-32.90,0.00,-1.24,3.43,-55.53,1100,1100,1100,1100,1091,1500,1512,11066,808
83772,9,20.17,-6.53,2.90,0.058,-0.279,0.877,-0.89,10.58,0.00,0.00,0.89,-10.58,0.00,3.11,-37.02,-17.06,-30.49,0.00,-9.58,1.81,-60.97,1100,1100,1100,1100,1091,1500,1512,11079,808
83784,9,-5.90,-0.95,0.71,-0.230,0.156,0.992,2.72,12.61,0.00,3.42,-2.72,-9.19,0.00,-9.52,-32.18,-3.62,-31.22,0.00,3.45,-2.63,-3.59,1100,1100,1100,1100,1064,1500,1538,11087,808
83796,9,10.48,-10.02,0.42,-0.109,-0.562,1.165,-5.13,10.60,0.00,3.42,5.13,-7.18,0.00,17.96,-25.13,7.48,-15.11,0.00,-3.17,2.10,-2.14,1100,1100,1100,1100,1064,1500,1538,11083,808
83809,9,-6.89,20.08,-3.15,-0.076,-0.693,1.065,-5.87,8.79,0.00,0.00,5.87,-8.79,0.00,20.56,-30.78,27.45,-50.86,0.00,3.99,-12.39,68.17,1100,1100,1100,1100,1097,1500,1508,11087,808
83821,9,-9.60,0.01,1.09,0.497,-0.096,0.839,-3.90,14.35,0.00,0.00,3.90,-14.35,0.00,13.64,-50.22,23.24,-50.23,0.00,6.03,-3.56,-7.24,1100,1100,1100,1100,1098,1500,1507,11087,808
83832,9,6.26,-7.89,0.31,0.380,0.343,0.587,3.22,15.14,0.00,0.00,-3.22,-15.14,0.00,-11.28,-52.98,-17.54,-45.09,0.00,-3.66,0.96,-6.10,1100,1100,1100,1100,1098,1500,1507,11083,808
83845,9,-10.08,-1.93,-3.72,0.388,0.442,0.740,5.14,19.75,0.00,0.00,-5.14,-19.75,0.00,-18.00,-69.13,-7.93,-67.20,0.00,3.72,-3.47,75.73,1100,1100,1100,1100,1108,1500,1507,11083,808
83856,9,4.26,-3.81,1.60,0.358,0.172,0.804,0.40,16.19,0.00,0.00,-0.40,-16.19,0.00,-1.39,-56.68,-5.64,-52.87,0.00,-2.04,-1.03,-43.97,1100,1100,1100,1100,1108,1500,1507,11083,808
83869,9,4.59,-3.59,-0.61,0.041,-0.159,0.975,-1.42,8.62,0.00,3.33,1.42,-5.29,0.00,4.96,-18.52,0.37,-14.93,0.00,-2.88,1.64,-1.75,1100,1100,1100,1100,1079,1500,1537,11079,808
83881,9,1.40,-11.30,2.20,0.018,0.218,1.032,0.04,11.23,0.00,0.00,-0.04,-11.23,0.00,-0.13,-39.31,-1.53,-28.01,0.00,-0.86,3.14,-39.10,1100,1100,1100,1100,1110,1500,1508,11079,808
83892,9,8.15,-17.40,1.44,-0.167,-0.285,0.553,-7.18,9.26,0.00,0.00,7.18,-9.26,0.00,25.12,-32.42,16.97,-15.02,0.00,-3.35,5.46,-35.96,1100,1100,1100,1100,1110,1500,1508,11079,808
83905,9,1.79,15.64,-2.41,-0.534,-0.860,1.557,-7.28,3.58,0.00,0.00,7.28,-3.58,0.00,25.49,-12.55,23.70,-28.18,0.00,-0.24,-9.47,43.85,1100,1100,1100,1100,1110,1500,1508,11083,808
83916,9,-5.12,13.51,3.06,-0.364,-0.195,1.054,-4.78,-2.46,0.00,0.00,4.78,2.46,0.00,16.73,8.61,21.85,-4.90,0.00,3.14,-7.21,-60.20,1100,1100,1100,1100,1110,1500,1508,11083,808
83929,9,-3.24,-9.08,-2.33,0.210,0.246,1.052,-2.01,-0.68,0.00,0.00,2.01,0.68,0.00,7.02,2.39,10.26,11.47,0.00,1.77,4.70,48.39,1100,1100,1100,1100,1109,1500,1509,11083,808
83941,9,-7.70,-1.88,-3.39,0.417,0.124,0.755,-3.03,5.24,0.00,3.33,3.03,-1.91,0.00,10.59,-6.69,18.29,-4.81,0.00,3.54,0.99,76.22,1100,1100,1100,1100,1086,1500,1537,11083,813
83953,9,-5.50,-5.37,1.43,0.611,0.106,0.337,-0.71,18.81,0.00,3.33,0.71,-15.48,0.00,2.50,-54.19,8.00,-48.82,0.00,2.97,-0.48,-36.00,1100,1100,1100,1100,1086,1500,1537,11083,813
83965,9,17.79,-8.62,1.88,0.116,0.192,1.212,-1.98,13.59,0.00,0.00,1.98,-13.59,0.00,6.94,-47.58,-10.85,-38.96,0.00,-8.41,1.69,-11.44,1100,1100,1100,1100,1118,1500,1507,11079,813
83976,9,1.44,-8.73,4.86,-0.152,0.349,0.842,4.12,13.09,0.00,0.00,-4.12,-13.09,0.00,-14.40,-45.81,-15.84,-37.08,0.00,-1.46,0.44,-61.59,1100,1100,1100,1100,1118,1500,1507,11070,813
83989,9,5.47,-22.19,0.43,0.311,-0.379,0.707,-2.24,13.95,0.00,0.00,2.24,-13.95,0.00,7.84,-48.82,2.37,-26.64,0.00,-1.09,6.41,23.45,1100,1100,1100,1100,1124,1500,1507,11070,813
84001,9,5.16,14.21,-2.04,-0.325,-1.157,1.236,-0.64,9.91,0.00,0.00,0.64,-9.91,0.00,2.23,-34.69,-2.93,-48.90,0.00,-2.17,-10.44,72.96,1100,1100,1100,1100,1125,1500,1507,11070,813
84012,9,-11.42,11.88,-1.38,-0.139,0.070,1.020,1.94,12.23,0.00,0.00,-1.94,-12.23,0.00,-6.80,-42.82,4.62,-54.70,0.00,5.93,-10.92,55.50,1100,1100,1100,1100,1125,1500,1507,11066,813
84024,9,9.35,-14.82,-1.43,0.473,0.131,0.897,-0.16,13.04,0.00,0.00,0.16,-13.04,0.00,0.56,-45.62,-8.79,-30.80,0.00,-4.14,4.11,60.18,1100,1100,1100,1100,1126,1500,1509,11070,813
84036,9,-15.41,5.38,-0.46,0.085,0.110,0.888,3.72,10.80,0.00,0.00,-3.72,-10.80,0.00,-13.01,-37.81,2.40,-43.19,0.00,6.10,-4.46,43.48,1100,1100,1100,1100,1126,1500,1509,11070,813
84049,9,-3.48,-9.34,0.55,0.581,0.530,0.694,5.50,12.29,0.00,0.00,-5.50,-12.29,0.00,-19.25,-43.02,-15.77,-33.68,0.00,1.42,2.31,23.31,1100,1100,1100,1100,1129,1500,1507,11075,809
84061,9,19.06,-1.45,4.79,-0.205,-0.004,1.033,-1.17,4.89,0.00,2.88,1.17,-2.01,0.00,4.10,-7.03,-14.95,-5.57,0.00,-9.99,1.15,-70.93,1100,1100,1100,1100,1113,1500,1532,11075,809
84072,9,-6.44,-7.48,1.11,-0.030,0.272,0.845,2.61,3.50,0.00,2.88,-2.61,-0.62,0.00,-9.13,-2.17,-2.69,5.31,0.00,2.17,4.19,10.49,1100,1100,1100,1100,1113,1500,1532,11070,809
84085,9,9.27,-3.82,2.52,-0.356,-0.614,1.272,-5.74,-2.48,0.00,0.00,5.74,2.48,0.00,20.10,8.68,10.84,12.50,0.00,-3.70,3.19,-6.42,1100,1100,1100,1100,1140,1500,1510,11066,809
84096,9,-2.52,21.47,-2.38,-0.401,-0.687,1.137,-3.64,0.65,0.00,0.00,3.64,-0.65,0.00,12.74,-2.29,15.26,-23.76,0.00,0.60,-9.40,85.95,1100,1100,1100,1100,1140,1500,1510,11070,809
84109,9,-3.75,7.40,-0.92,0.003,-0.022,1.159,-2.46,0.34,0.00,0.00,2.46,-0.34,0.00,8.59,-1.18,12.35,-8.58,0.00,2.71,-2.93,60.71,1100,1100,1100,1100,1141,1500,1508,11079,809
84121,9,4.14,-4.97,0.46,0.194,0.097,0.732,0.70,5.16,0.00,0.00,-0.70,-5.16,0.00,-2.44,-18.05,-6.58,-13.08,0.00,-1.74,2.37,14.16,1100,1100,1100,1100,1142,1500,1507,11083,809
84132,9,-13.35,-3.28,-3.19,0.344,0.259,0.925,2.35,9.41,0.00,0.00,-2.35,-9.41,0.00,-8.22,-32.92,5.13,-29.64,0.00,6.28,-0.64,96.26,1100,1100,1100,1100,1142,1500,1507,11083,809
84144,9,4.94,-3.91,3.07,-0.022,0.193,0.903,0.33,2.99,0.00,3.33,-0.33,0.34,0.00,-1.14,1.20,-6.08,5.11,0.00,-1.50,1.62,-30.67,1100,1100,1100,1100,1114,1500,1537,11079,809
84156,9,7.80,-8.73,-1.28,0.157,0.104,0.720,-1.38,2.05,0.00,3.33,1.38,1.28,0.00,4.82,4.47,-2.98,13.20,0.00,-3.45,4.61,49.41,1100,1100,1100,1100,1114,1500,1537,11075,809
84169,9,2.55,-15.15,1.29,0.182,0.120,0.860,-1.98,8.94,0.00,3.24,1.98,-5.70,0.00,6.92,-19.94,4.38,-4.79,0.00,-0.23,4.32,5.01,1100,1100,1100,1100,1117,1500,1536,11062,809
84181,9,1.72,-7.38,1.62,-0.158,-0.515,0.846,-5.41,7.78,0.00,2.43,5.41,-5.35,0.00,18.93,-18.74,17.22,-11.36,0.00,0.22,1.02,-44.11,1100,1100,1100,1100,1142,1500,1527,11062,809
84193,9,-5.73,19.52,-2.74,-0.291,-0.685,1.391,-5.66,4.06,0.00,2.43,5.66,-1.63,0.00,19.81,-5.71,25.53,-25.23,0.00,3.22,-10.35,63.07,1100,1100,1100,1100,1142,1500,1527,11054,809
84204,9,-9.40,20.29,3.88,-0.444,-0.154,1.241,-2.70,5.34,0.00,0.00,2.70,-5.34,0.00,9.43,-18.68,18.84,-38.97,0.00,4.61,-11.11,-70.64,1100,1100,1100,1100,1163,1500,1507,11062,809
84216,9,-3.78,-0.83,-3.26,0.101,0.004,1.015,-4.13,4.19,0.00,0.00,4.13,-4.19,0.00,14.46,-14.67,18.24,-13.84,0.00,2.17,0.18,63.57,1100,1100,1100,1100,1163,1500,1507,11066,809
84229,9,-12.67,12.27,-4.10,-0.034,-0.257,1.011,-3.68,0.33,0.00,3.24,3.68,2.91,0.00,12.88,10.19,25.55,-2.08,0.00,5.48,-4.05,83.82,1100,1100,1100,1100,1138,1500,1536,11054,809
84241,9,-17.05,6.51,-2.65,0.269,0.382,0.623,1.62,2.83,0.00,3.24,-1.62,0.41,0.00,-5.66,1.43,11.38,-5.08,0.00,7.53,-1.85,48.43,1100,1100,1100,1100,1138,1500,1536,11045,813
84252,9,12.70,-10.07,3.78,0.620,0.380,0.846,1.99,7.05,0.00,3.24,-1.99,-3.81,0.00,-6.97,-13.35,-19.67,-3.28,0.00,-6.76,5.75,-75.71,1100,1100,1100,1100,1138,1500,1536,11041,813
84265,9,3.99,-14.79,5.26,0.289,0.585,0.614,5.83,11.08,0.00,0.00,-5.83,-11.08,0.00,-20.40,-38.78,-24.39,-23.99,0.00,-3.53,4.88,-76.40,1100,1100,1100,1100,1166,1500,1508,11050,813
84276,9,6.36,-31.68,2.36,0.391,0.631,0.623,7.71,14.27,0.00,0.00,-7.71,-14.27,0.00,-27.00,-49.95,-33.36,-18.27,0.00,-3.04,11.36,-12.53,1100,1100,1100,1100,1166,1500,1508,11045,813
84289,9,29.01,-4.64,0.88,-0.250,-0.353,1.181,-0.95,6.16,0.00,0.00,0.95,-6.16,0.00,3.34,-21.55,-25.67,-16.92,0.00,-13.41,1.58,12.58,1100,1100,1100,1100,1167,1500,1507,11066,813
84301,9,-7.57,5.58,1.27,-0.505,-0.028,1.361,5.25,2.51,0.00,0.00,-5.25,-2.51,0.00,-18.37,-8.78,-10.81,-14.36,0.00,2.99,-3.62,-19.89,1100,1100,1100,1100,1178,1500,1508,11045,813
84312,9,11.69,-25.52,4.95,0.346,0.037,0.966,2.63,7.87,0.00,0.00,-2.63,-7.87,0.00,-9.20,-27.54,-20.88,-2.02,0.00,-4.46,10.01,-95.50,1100,1100,1100,1100,1178,1500,1508,11033,813
84324,9,17.06,8.82,4.95,-0.758,-0.313,1.516,2.62,8.71,0.00,0.00,-2.62,-8.71,0.00,-9.18,-30.47,-26.24,-39.29,0.00,-9.29,-6.04,-98.27,1100,1100,1100,1100,1177,1500,1511,11016,813
84336,9,-10.78,8.11,1.36,-0.570,0.407,1.199,7.18,4.90,0.00,0.00,-7.18,-4.90,0.00,-25.12,-17.14,-14.34,-25.26,0.00,4.54,-5.28,-13.66,1100,1100,1100,1100,1177,1500,1511,11004,813
84349,9,16.46,-32.84,1.37,0.457,0.158,0.762,3.27,13.40,0.00,0.00,-3.27,-13.40,0.00,-11.44,-46.90,-27.91,-14.07,0.00,-7.30,13.54,-20.47,1100,1303,1289,1100,1185,1500,1508,10987,813
84361,9,25.39,2.69,2.41,-0.759,-0.308,1.039,-0.12,5.00,0.00,3.15,0.12,-1.85,0.00,0.41,-6.47,-24.99,-9.16,0.00,-13.38,-1.57,-56.85,1100,1303,1289,1100,1159,1500,1535,10979,813
84373,9,-8.99,-5.27,0.02,0.076,0.877,0.550,15.11,7.32,0.00,3.15,-15.11,-4.17,0.00,-52.89,-14.59,-43.91,-9.32,0.00,1.86,2.12,-2.77,1100,1303,1289,1100,1159,1500,1535,10979,813
84385,9,17.53,-50.88,1.26,1.163,0.742,-0.081,25.60,23.43,0.00,2.79,-25.60,-20.64,0.00,-89.61,-72.24,-107.14,-21.37,0.00,-9.34,19.57,-17.17,1100,1303,1289,1100,1169,1500,1531,10971,813
84396,9,21.94,-10.52,0.27,0.127,0.272,0.487,12.92,12.27,0.00,2.79,-12.92,-9.48,0.00,-45.20,-33.18,-67.15,-22.65,0.00,-12.08,3.32,-12.06,1100,1303,1289,1100,1169,1500,1531,10975,813
84409,9,-10.68,22.57,-2.69,-0.368,-0.460,0.923,0.13,-0.32,0.00,0.00,-0.13,0.32,0.00,-0.44,1.13,10.23,-21.44,0.00,5.03,-11.47,52.77,1100,1303,1289,1100,1190,1500,1510,10971,813
84421,1,-22.49,-5.64,-2.96,0.126,0.258,1.150,1.14,-2.79,0.00,0.00,-1.14,2.79,0.00,-3.98,9.77,18.51,15.41,0.00,11.65,2.13,64.95,1100,1303,1289,1100,1202,1500,1507,10971,813
84432,1,4.06,-0.54,-1.07,-0.252,0.008,1.239,-4.22,-7.42,0.00,0.00,4.22,7.42,0.00,14.77,25.99,10.71,26.53,0.00,-0.17,3.37,32.52,1100,1303,1289,1100,1202,1500,1507,10946,813
84445,9,-1.10,51.39,2.99,-0.700,-1.043,2.090,1.66,-1.75,0.00,3.51,-1.66,5.26,0.00,-5.81,18.41,-4.71,-32.98,0.00,0.39,-23.72,-48.99,1238,1118,1120,1228,1176,1500,1539,10941,809
84456,9,-0.05,1.58,3.42,-0.662,-0.090,1.864,18.95,3.77,0.00,3.51,-18.95,-0.26,0.00,-66.31,-0.91,-66.26,-2.49,0.00,-2.55,-2.43,-70.04,1238,1118,1120,1228,1176,1500,1539,10941,809
84469,1,-4.27,-49.86,-5.55,1.077,0.314,-0.499,38.05,15.09,0.00,0.00,-38.05,-15.09,0.00,-133.18,-52.82,-128.91,-2.96,0.00,-2.75,22.48,105.06,1238,1118,1120,1228,1202,1500,1513,10946,809
84481,9,2.53,3.99,-4.35,-0.392,-0.527,0.945,13.40,0.36,0.00,2.88,-13.40,2.52,0.00,-46.95,8.82,-49.48,4.83,0.00,-3.95,0.19,81.46,1238,1118,1120,1228,1187,1500,1532,10950,809
84492,9,-33.09,23.08,-0.86,-0.037,0.102,1.023,0.06,13.81,0.00,2.88,-0.06,-10.93,0.00,-0.21,-38.27,32.88,-61.34,0.00,15.03,-12.49,-3.20,1238,1118,1120,1228,1187,1500,1532,10946,809
84504,1,-6.09,34.67,2.89,0.819,0.893,1.703,-8.85,11.54,0.00,0.00,8.85,-11.54,0.00,30.98,-40.39,37.08,-75.06,0.00,5.15,-19.60,-81.79,1238,1118,1120,1228,1209,1500,1510,10937,809
84516,1,48.60,-43.18,2.89,0.119,-0.237,0.590,-20.48,2.62,0.00,0.00,20.48,-2.62,0.00,71.69,-9.19,23.09,33.99,0.00,-20.81,18.63,-59.64,1238,1118,1120,1228,1209,1500,1510,10946,809
84529,9,16.21,-18.33,0.24,-0.145,-0.846,-0.045,-29.35,-5.13,0.00,3.51,29.35,8.64,0.00,102.73,30.25,86.52,48.58,0.00,-7.10,14.96,18.15,1238,1118,1120,1228,1182,1500,1539,10937,809
84541,1,-63.79,11.85,-0.33,-1.752,-0.586,2.106,5.07,1.19,0.00,0.00,-5.07,-1.19,0.00,-17.75,-4.16,46.04,-16.01,0.00,28.29,-6.89,17.33,1167,1213,1257,1235,1218,1500,1510,10933,809
84552,1,-13.93,-11.52,-7.96,0.770,1.236,0.325,22.76,16.47,0.00,0.00,-22.76,-16.47,0.00,-79.68,-57.65,-65.75,-46.13,0.00,6.60,5.19,156.04,1167,1213,1257,1235,1218,1500,1510,10950,809
84564,9,52.54,37.61,-1.86,0.918,0.621,1.077,6.03,9.08,0.00,3.51,-6.03,-5.57,0.00,-21.12,-19.51,-73.66,-57.12,0.00,-23.38,-18.48,7.72,1167,1213,1257,1235,1190,1500,1539,10946,809
84576,9,67.10,22.94,1.74,0.991,-0.314,0.459,-8.60,16.29,0.00,3.51,8.60,-12.78,0.00,30.09,-44.72,-37.01,-67.66,0.00,-32.44,-14.32,-81.61,1167,1213,1257,1235,1190,1500,1539,10950,809
84589,1,-13.05,-41.29,0.38,-0.037,-1.798,0.472,-5.66,14.86,0.00,0.00,5.66,-14.86,0.00,19.82,-52.02,32.86,-10.74,0.00,4.61,15.30,-44.49,1167,1213,1257,1235,1225,1500,1508,10937,809
84601,9,-63.60,6.55,-4.68,0.057,0.042,0.452,-0.02,6.89,0.00,3.60,0.02,-3.29,0.00,0.07,-11.52,63.67,-18.07,0.00,31.79,0.13,75.73,1167,1213,1257,1235,1193,1500,1540,10925,809
84612,9,-12.80,3.00,-4.57,-1.102,0.510,2.695,-20.13,2.96,0.00,3.60,20.13,0.64,0.00,70.45,2.24,83.25,-0.76,0.00,11.42,-1.54,67.77,1167,1213,1257,1235,1193,1500,1540,10921,809
84624,1,48.41,-6.29,-1.16,0.472,0.199,0.177,-19.36,18.28,0.00,0.00,19.36,-18.28,0.00,67.75,-63.98,19.35,-57.68,0.00,-20.62,3.52,7.45,1167,1213,1257,1235,1224,1500,1510,10929,809
84636,1,23.87,47.44,2.66,-0.591,-0.164,1.498,-10.39,-1.53,0.00,0.00,10.39,1.53,0.00,36.38,5.33,12.51,-42.11,0.00,-11.30,-18.44,-49.41,1167,1213,1257,1235,1224,1500,1510,10937,809
84649,1,-22.98,34.50,7.25,-0.617,-0.431,1.646,-5.39,-1.75,0.00,3.51,5.39,5.26,0.00,18.88,18.40,41.86,-16.10,0.00,10.95,-13.62,-152.83,1100,1348,1338,1100,1202,1500,1539,10929,805
84661,1,-3.15,-12.93,-2.44,1.266,1.021,-0.208,16.89,5.14,0.00,0.00,-16.89,-5.14,0.00,-59.10,-18.00,-55.95,-5.06,0.00,-0.83,9.54,34.82,1100,1348,1338,1100,1233,1500,1508,10921,805
84672,1,36.37,-16.38,2.76,-0.484,0.475,1.505,-3.39,6.96,0.00,0.00,3.39,-6.96,0.00,11.91,-24.37,-24.46,-8.00,0.00,-17.06,6.41,-81.83,1100,1348,1338,1100,1233,1500,1508,10912,805
84685,1,20.14,-17.71,-6.62,-0.210,-0.793,0.865,-13.64,1.85,0.00,3.42,13.64,1.57,0.00,47.79,5.48,27.65,23.19,0.00,-9.31,10.74,107.06,1100,1348,1338,1100,1208,1500,1538,10921,805
84696,1,-17.00,12.18,-3.70,-1.005,-0.919,1.345,-6.84,-0.66,0.00,3.42,6.84,4.08,0.00,23.97,14.25,40.97,2.08,0.00,7.42,-3.84,70.22,1100,1348,1338,1100,1208,1500,1538,10904,805
84709,1,-24.66,6.63,-1.62,-0.318,-0.469,1.200,3.79,1.09,0.00,3.42,-3.79,2.33,0.00,-13.23,8.15,11.43,1.53,0.00,10.70,-2.37,33.27,1100,1348,1338,1100,1208,1500,1538,10921,805
84721,1,-26.10,12.53,3.83,0.188,-0.297,0.782,1.92,10.90,0.00,3.42,-1.92,-7.48,0.00,-6.68,-26.20,19.42,-38.74,0.00,13.85,-8.91,-72.55,1100,1348,1338,1100,1209,1500,1538,10925,805
84732,1,-1.79,6.87,-2.21,0.208,0.781,0.779,9.49,8.74,0.00,3.42,-9.49,-5.32,0.00,-33.18,-18.65,-31.40,-25.51,0.00,1.86,-6.02,27.03,1100,1348,1338,1100,1209,1500,1538,10921,805
84745,1,32.35,1.45,2.63,0.672,0.792,1.017,3.56,5.00,0.00,3.42,-3.56,-1.58,0.00,-12.43,-5.54,-44.79,-6.98,0.00,-14.06,-3.01,-66.29,1233,1203,1211,1201,1212,1500,1538,10916,810
84757,1,24.65,-33.97,1.08,1.860,0.173,-0.114,22.98,18.55,0.00,3.42,-22.98,-15.13,0.00,-80.41,-52.97,-105.05,-19.00,0.00,-13.85,13.39,-39.32,1233,1203,1211,1201,1212,1500,1538,10921,810
84769,1,15.82,-13.29,-1.91,0.420,0.037,1.105,17.42,16.35,0.00,3.51,-17.42,-12.84,0.00,-60.97,-44.97,-76.79,-31.68,0.00,-10.33,0.68,29.53,1233,1203,1211,1201,1214,1500,1539,10929,810
84781,1,-8.65,-22.35,-2.78,-0.108,-1.396,0.870,-0.94,7.59,0.00,3.42,0.94,-4.17,0.00,3.26,-14.66,11.91,7.69,0.00,3.72,9.02,81.97,1233,1203,1211,1201,1219,1500,1538,10946,810
84792,1,-32.00,-13.49,-6.62,-0.208,-1.434,0.532,-8.02,6.12,0.00,3.42,8.02,-2.70,0.00,28.05,-9.52,60.05,3.97,0.00,14.58,7.73,143.66,1233,1203,1211,1201,1219,1500,1538,10950,810
84805,1,-47.78,16.07,-2.50,-1.859,-1.081,1.800,12.16,6.05,0.00,3.42,-12.16,-2.63,0.00,-42.60,-9.28,5.18,-25.35,0.00,19.84,-8.85,38.41,1233,1203,1211,1201,1219,1500,1538,10946,810
84816,1,-37.22,29.63,1.22,-0.508,0.475,1.369,9.94,3.16,0.00,3.42,-9.94,0.26,0.00,-34.83,0.85,2.39,-28.78,0.00,16.47,-8.86,-21.53,1233,1203,1211,1201,1219,1500,1538,10929,810
84829,1,8.58,18.93,-7.21,0.576,1.413,0.761,32.02,12.87,0.00,3.51,-32.02,-9.36,0.00,-112.16,-32.85,-120.74,-51.79,0.00,-6.80,-10.71,122.40,1233,1203,1211,1201,1219,1500,1539,10916,810
84841,1,41.89,33.65,5.63,1.512,0.511,0.944,4.51,14.32,0.00,0.00,-4.51,-14.32,0.00,-15.87,-50.21,-57.76,-83.86,0.00,-19.55,-21.57,-136.19,1390,1160,1100,1394,1256,1500,1508,10904,810
84852,1,66.56,1.17,-5.18,1.771,0.462,0.383,10.26,12.22,0.00,0.00,-10.26,-12.22,0.00,-36.00,-42.86,-102.56,-44.03,0.00,-34.00,-0.93,77.62,1390,1160,1100,1394,1256,1500,1508,10887,810
84865,1,38.08,-67.68,5.35,0.737,-0.966,-0.328,-22.71,11.95,0.00,3.42,22.71,-8.53,0.00,79.38,-29.94,41.30,37.74,0.00,-17.38,30.61,-142.92,1390,1160,1100,1394,1228,1500,1538,10858,810
84876,1,-8.85,3.11,0.78,-2.581,-1.102,2.654,-10.70,-3.29,0.00,3.42,10.70,6.71,0.00,37.37,23.38,46.22,20.27,0.00,4.18,-0.00,-36.40,1390,1160,1100,1394,1228,1500,1538,10858,810
84889,1,-36.44,-8.04,-5.95,0.052,-0.609,0.020,-10.86,15.41,0.00,3.51,10.86,-11.90,0.00,37.92,-41.77,74.36,-33.73,0.00,19.38,4.78,73.00,1390,1160,1100,1394,1231,1500,1539,10875,810
84901,1,-20.49,41.82,-5.00,-1.914,-0.300,2.667,-19.38,11.00,0.00,0.00,19.38,-11.00,0.00,67.80,-38.65,88.28,-80.47,0.00,14.31,-23.98,61.39,1390,1160,1100,1394,1252,1500,1518,10883,810
84912,1,-12.75,23.80,-8.23,1.166,0.618,0.717,-2.53,17.92,0.00,0.00,2.53,-17.92,0.00,8.82,-62.87,21.57,-86.67,0.00,8.57,-11.25,133.67,1390,1160,1100,1394,1252,1500,1518,10883,810
84925,1,9.37,-11.34,-4.93,0.764,1.112,0.761,-12.78,21.36,0.00,3.42,12.78,-17.94,0.00,44.71,-62.96,35.34,-51.62,0.00,-1.52,0.51,79.46,1390,1160,1100,1394,1233,1500,1538,10883,810
84936,1,16.80,8.32,1.04,0.520,0.501,1.059,-5.15,8.41,0.00,3.42,5.15,-4.99,0.00,18.04,-17.65,1.24,-25.97,0.00,-6.93,-7.46,-31.59,1390,1160,1100,1394,1233,1500,1538,10875,810
84949,1,4.91,-15.12,-0.83,0.650,-0.172,0.450,-7.64,15.91,0.00,3.33,7.64,-12.58,0.00,26.76,-44.20,21.86,-29.09,0.00,-1.15,5.12,-5.98,1100,1428,1424,1100,1233,1500,1537,10875,817
84961,1,15.93,-28.53,1.55,0.380,0.429,0.438,2.34,16.20,0.00,3.24,-2.34,-12.96,0.00,-8.18,-45.55,-24.11,-17.02,0.00,-8.35,12.31,-92.84,1100,1428,1424,1100,1238,1500,1536,10879,817
84972,1,15.30,-21.88,1.12,-0.337,0.208,0.805,2.08,4.46,0.00,3.24,-2.08,-1.22,0.00,-7.27,-4.48,-22.57,17.40,0.00,-8.29,11.56,-78.57,1100,1428,1424,1100,1238,1500,1536,10875,817
84985,1,16.28,14.37,0.11,-1.075,-0.350,1.908,-1.38,-3.10,0.00,0.00,1.38,3.10,0.00,4.83,10.65,-11.44,-3.72,0.00,-8.46,-5.27,-24.12,1100,1428,1424,1100,1271,1500,1508,10879,817
84997,1,10.72,5.53,-2.38,-0.224,-1.316,0.965,-6.83,-2.57,0.00,0.00,6.83,2.57,0.00,23.90,8.79,13.18,3.26,0.00,-5.35,-0.62,48.21,1100,1428,1424,1100,1271,1500,1508,10862,817
85009,1,-23.95,3.74,-5.62,-0.422,-1.753,0.855,-3.88,7.68,0.00,2.52,3.88,-5.16,0.00,13.57,-18.26,37.51,-21.99,0.00,10.95,-3.98,99.30,1100,1428,1424,1100,1250,1500,1528,10867,817
85021,1,-53.75,19.66,-6.64,-1.237,-0.813,1.715,1.30,-4.99,0.00,3.33,-1.30,8.32,0.00,-4.55,28.91,49.20,9.24,0.00,25.22,-8.04,134.38,1100,1428,1424,1100,1242,1500,1537,10858,817
85033,1,-49.41,31.94,0.04,-0.541,0.432,1.495,4.27,-4.90,0.00,3.33,-4.27,8.23,0.00,-14.95,28.60,34.45,-3.33,0.00,24.04,-10.04,5.10,1100,1428,1424,1100,1242,1500,1537,10846,817
85045,1,-29.48,-4.86,-2.08,0.651,1.955,0.247,36.34,15.51,0.00,0.00,-36.34,-15.51,0.00,-127.21,-54.49,-97.73,-49.63,0.00,10.54,-0.00,61.45,1389,1199,1175,1317,1270,1500,1510,10837,825
85056,1,-14.09,-3.62,-3.77,0.441,2.340,0.359,11.18,20.32,0.00,0.00,-11.18,-20.32,0.00,-39.17,-71.34,-25.08,-67.72,0.00,5.37,-5.44,91.41,1389,1199,1175,1317,1270,1500,1510,10837,825
85069,1,29.63,32.09,-3.20,-0.355,1.842,1.800,-9.74,16.15,0.00,3.33,9.74,-12.82,0.00,34.09,-45.11,4.46,-77.20,0.00,-11.59,-23.72,69.69,1389,1199,1175,1317,1243,1500,1537,10837,825
85081,1,55.60,41.39,-0.42,1.037,1.126,1.681,-12.35,9.37,0.00,0.00,12.35,-9.37,0.00,43.23,-33.04,-12.37,-74.43,0.00,-24.48,-24.52,13.00,1389,1199,1175,1317,1277,1500,1508,10812,825
85093,1,61.64,-8.81,-2.33,3.256,0.137,-0.676,24.23,15.95,0.00,0.00,-24.23,-15.95,0.00,-84.79,-56.08,-146.43,-47.28,0.00,-33.45,-0.00,55.13,1389,1199,1175,1317,1277,1500,1508,10825,825
85105,1,37.88,-54.93,0.03,1.985,-0.781,-0.523,-8.30,17.96,0.00,0.00,8.30,-17.96,0.00,29.03,-63.11,-8.85,-8.18,0.00,-18.24,18.78,-9.78,1389,1199,1175,1317,1269,1500,1516,10812,825
85116,1,1.30,-50.37,3.21,0.432,-1.164,0.532,-10.73,7.11,0.00,0.00,10.73,-7.11,0.00,37.52,-25.16,36.22,25.21,0.00,-1.00,18.81,-83.58,1389,1199,1175,1317,1269,1500,1516,10821,825
85129,1,-29.58,-7.09,-0.86,-0.623,-1.499,1.118,-7.06,0.84,0.00,3.33,7.06,2.49,0.00,24.68,8.44,54.26,15.53,0.00,14.22,5.40,-17.57,1389,1199,1175,1317,1248,1500,1537,10808,825
85141,1,-37.68,-6.01,-2.46,-0.852,-0.815,0.759,-13.45,0.33,0.00,3.33,13.45,3.00,0.00,47.08,10.22,84.77,16.23,0.00,18.90,8.86,23.60,1221,1251,1303,1241,1254,1500,1537,10808,818
85152,1,-24.51,1.30,-4.73,-0.773,0.169,0.955,-3.48,5.51,0.00,3.33,3.48,-2.18,0.00,12.20,-7.93,36.71,-9.23,0.00,11.89,0.39,80.97,1221,1251,1303,1241,1254,1500,1537,10808,818
85165,1,-20.88,54.79,-5.16,-0.695,-0.088,1.717,-7.54,1.44,0.00,3.33,7.54,1.89,0.00,26.43,6.31,47.31,-48.48,0.00,11.70,-25.69,100.80,1221,1251,1303,1241,1254,1500,1537,10808,818
85176,1,-3.14,38.88,-6.22,0.618,0.890,1.225,-4.03,3.29,0.00,3.33,4.03,0.04,0.00,14.13,-0.15,17.28,-39.02,0.00,2.39,-17.94,137.16,1221,1251,1303,1241,1254,1500,1537,10817,818
85189,1,14.27,10.48,-4.03,0.669,0.896,1.098,4.06,1.15,0.00,3.33,-4.06,2.18,0.00,-14.18,7.34,-28.45,-3.14,0.00,-6.63,-3.78,76.56,1221,1251,1303,1241,1257,1500,1537,10833,818
85201,1,12.17,9.72,-1.10,0.959,0.417,0.919,5.24,5.20,0.00,0.00,-5.24,-5.20,0.00,-18.30,-18.47,-30.47,-28.19,0.00,-5.35,-4.78,2.14,1221,1251,1303,1241,1282,1500,1513,10829,818
85212,1,6.05,-13.36,-2.22,1.240,0.427,0.206,9.26,18.36,0.00,0.00,-9.26,-18.36,0.00,-32.37,-64.56,-38.42,-51.20,0.00,-2.84,3.76,3.75,1221,1251,1303,1241,1282,1500,1513,10829,818
85225,1,11.93,-24.29,-1.75,0.801,0.772,0.290,4.02,23.83,0.00,3.24,-4.02,-20.59,0.00,-14.02,-72.39,-25.96,-48.10,0.00,-5.52,6.99,-58.13,1221,1251,1303,1241,1260,1500,1536,10842,818
85236,1,33.06,-21.19,0.23,0.205,0.136,0.928,-3.65,11.85,0.00,3.24,3.65,-8.61,0.00,12.84,-30.48,-20.22,-9.30,0.00,-14.72,8.86,-114.53,1221,1251,1303,1241,1260,1500,1536,10837,818
85249,1,43.06,-20.26,-1.63,0.058,-0.245,0.895,-10.05,11.17,0.00,3.33,10.05,-7.84,0.00,35.23,-27.78,-7.82,-7.52,0.00,-19.58,8.11,-84.01,1205,1281,1309,1245,1260,1500,1537,10804,815
85261,1,26.89,-18.22,-7.73,0.053,-0.894,1.084,-9.59,10.01,0.00,2.07,9.59,-7.94,0.00,33.63,-28.14,6.74,-9.92,0.00,-12.64,6.97,31.61,1205,1281,1309,1245,1274,1500,1523,10796,815
85272,1,7.33,-25.15,-15.02,0.069,-1.221,0.685,-12.30,4.79,0.00,2.07,12.30,-2.72,0.00,43.11,-9.88,35.78,15.27,0.00,-3.86,12.02,168.39,1205,1281,1309,1245,1274,1500,1523,10796,815
85285,1,-19.26,-18.82,-15.07,-1.047,-1.818,0.894,-8.24,-2.59,0.00,0.00,8.24,2.59,0.00,28.92,8.70,48.19,27.52,0.00,7.74,9.43,152.92,1205,1281,1309,1245,1288,1500,1511,10796,815
85297,1,-40.97,20.42,-14.38,-1.958,-1.125,1.741,-0.66,-13.72,0.00,0.00,0.66,13.72,0.00,2.38,47.66,43.34,27.24,0.00,17.46,-4.16,127.57,1205,1281,1309,1245,1288,1500,1511,10800,815
85309,1,-41.37,38.98,-6.74,-0.874,-0.218,1.565,2.38,-13.80,0.00,0.00,-2.38,13.80,0.00,-8.26,47.97,33.11,8.99,0.00,18.99,-8.94,-17.35,1205,1281,1309,1245,1292,1500,1507,10808,815
85321,1,-30.52,16.86,-5.93,0.128,1.311,0.808,17.22,2.94,0.00,3.33,-17.22,0.39,0.00,-60.19,1.01,-29.67,-15.85,0.00,13.14,-0.48,-15.55,1205,1281,1309,1245,1262,1500,1537,10792,815
85332,1,10.18,7.88,-1.61,0.868,1.524,0.013,-9.59,19.61,0.00,3.33,9.59,-16.28,0.00,33.64,-57.31,23.46,-65.20,0.00,-1.57,-5.40,-81.71,1205,1281,1309,1245,1262,1500,1537,10783,815
85345,1,42.50,19.97,2.53,0.696,2.005,0.842,-13.84,19.54,0.00,0.00,13.84,-19.54,0.00,48.55,-68.77,6.05,-88.75,0.00,-16.29,-17.78,-120.78,1498,1132,1134,1404,1292,1500,1508,10787,816
85356,1,68.62,38.15,2.64,0.783,0.805,1.332,-10.58,6.16,0.00,0.00,10.58,-6.16,0.00,37.16,-21.93,-31.46,-60.08,0.00,-30.83,-20.98,-83.24,1498,1132,1134,1404,1292,1500,1508,10792,816
85369,1,78.45,-2.09,2.50,2.151,0.463,0.010,7.38,11.96,0.00,3.24,-7.38,-8.72,0.00,-25.69,-30.88,-104.14,-28.79,0.00,-40.42,2.21,-69.00,1498,1132,1134,1404,1273,1500,1536,10792,816
85381,1,72.13,-50.78,4.09,2.102,-0.124,-0.261,-27.31,15.42,0.00,3.24,27.31,-12.18,0.00,95.71,-43.00,23.58,7.78,0.00,-33.02,24.41,-108.60,1498,1132,1134,1404,1273,1500,1536,10787,816
85392,1,46.53,-68.99,5.94,1.524,-0.775,0.075,-28.87,14.74,0.00,3.24,28.87,-11.50,0.00,101.19,-40.62,54.66,28.37,0.00,-20.82,33.44,-156.27,1498,1132,1134,1404,1273,1500,1536,10783,816
85405,1,28.30,-54.78,6.99,0.373,-1.211,1.043,-15.09,11.05,0.00,2.97,15.09,-8.08,0.00,52.99,-28.69,24.69,26.09,0.00,-13.32,24.85,-180.42,1498,1132,1134,1404,1279,1500,1533,10804,816
85416,1,6.72,-57.61,7.14,0.421,-1.240,0.655,3.01,14.90,0.00,2.97,-3.01,-11.93,0.00,-10.37,-42.16,-17.09,15.45,0.00,-5.06,23.21,-188.91,1498,1132,1134,1404,1279,1500,1533,10804,816
85429,1,-2.13,-29.73,8.77,-0.292,-0.375,0.666,11.37,9.82,0.00,3.24,-11.37,-6.58,0.00,-39.67,-23.48,-37.54,6.25,0.00,-1.05,7.27,-208.58,1498,1132,1134,1404,1278,1500,1536,10808,816
85441,1,1.81,-5.44,5.55,-0.444,0.767,1.137,-6.37,10.49,0.00,3.24,6.37,-7.25,0.00,22.43,-25.81,20.61,-20.37,0.00,0.27,-5.11,-127.65,1400,1156,1146,1410,1278,1500,1536,10804,815
85453,1,23.88,18.04,3.44,-0.340,1.468,1.191,-1.56,3.12,0.00,3.24,1.56,0.12,0.00,5.60,-0.02,-18.28,-18.06,0.00,-10.86,-13.64,-81.84,1400,1156,1146,1410,1278,1500,1536,10779,815
85465,1,49.90,33.12,3.75,0.005,2.300,1.175,2.35,-2.16,0.00,3.33,-2.35,5.49,0.00,-8.08,18.78,-57.98,-14.34,0.00,-23.12,-16.24,-98.96,1400,1156,1146,1410,1277,1500,1537,10771,815
85476,1,69.71,36.81,1.36,0.386,2.160,1.466,3.79,-5.47,0.00,3.33,-3.79,8.80,0.00,-13.11,30.38,-82.82,-6.43,0.00,-32.24,-13.65,-76.09,1400,1156,1146,1410,1277,1501,1537,10771,815
85489,1,81.08,35.03,-0.48,0.785,1.402,1.405,4.37,-2.20,0.00,3.15,-4.37,5.35,0.00,-15.14,18.30,-96.21,-16.73,0.00,-37.45,-12.10,-71.48,1400,1156,1146,1410,1280,1501,1535,10771,815
85501,1,88.63,20.79,-4.42,1.945,0.874,0.675,10.35,6.37,0.00,3.15,-10.35,-3.22,0.00,-36.06,-11.69,-124.70,-32.48,0.00,-41.69,-7.26,-21.43,1400,1156,1146,1410,1281,1500,1535,10767,815
85512,1,84.03,8.25,-5.79,2.177,0.325,0.651,11.16,15.69,0.00,3.15,-11.16,-12.54,0.00,-38.92,-44.32,-122.95,-52.57,0.00,-39.27,-5.61,-8.11,1400,1156,1146,1410,1281,1500,1535,10762,815
85525,1,82.96,-3.57,-3.23,2.818,-0.555,0.272,-5.39,24.38,0.00,3.15,5.39,-21.23,0.00,18.99,-74.74,-63.98,-71.17,0.00,-36.26,-4.54,-57.57,1400,1156,1146,1410,1282,1500,1535,10771,815
85536,1,75.78,-13.86,-3.75,2.451,-1.027,0.207,-16.65,23.10,0.00,3.15,16.65,-19.95,0.00,58.38,-70.27,-17.40,-56.41,0.00,-31.44,0.19,-17.01,1400,1156,1146,1410,1282,1500,1535,10779,815
85549,1,69.79,-11.63,-4.09,2.251,-0.908,0.189,-21.56,20.66,0.00,3.15,21.56,-17.51,0.00,75.61,-61.75,5.81,-50.13,0.00,-27.56,0.66,1.92,1143,1395,1379,1219,1284,1500,1535,10787,816
85561,1,50.21,-29.37,-5.65,0.919,-1.087,0.447,-20.50,12.01,0.00,2.34,20.50,-9.67,0.00,71.89,-34.33,21.68,-4.96,0.00,-18.86,10.22,34.01,1143,1395,1379,1219,1297,1500,1526,10787,816
85572,1,41.11,-21.21,-3.32,1.430,-0.687,0.344,-20.89,11.14,0.00,2.34,20.89,-8.80,0.00,73.28,-31.29,32.17,-10.08,0.00,-14.94,8.94,-16.78,1143,1395,1379,1219,1297,1500,1526,10775,816
85585,1,17.41,-5.87,-1.98,0.268,-0.235,1.046,-8.24,1.70,0.00,0.00,8.24,-1.70,0.00,29.02,-6.43,11.61,-0.56,0.00,-6.13,3.91,-45.85,1143,1395,1379,1219,1316,1500,1507,10775,816
85596,1,-3.30,15.94,-1.91,0.322,-0.351,1.646,-3.82,-2.83,0.00,0.00,3.82,2.83,0.00,13.55,9.44,16.85,-6.50,0.00,3.58,-2.98,-47.23,1143,1395,1379,1219,1316,1500,1507,10771,816
85609,1,-6.61,-18.04,1.63,0.778,0.641,0.802,11.73,9.90,0.00,3.15,-11.73,-6.75,0.00,-40.87,-24.09,-34.26,-6.05,0.00,2.79,13.81,-81.33,1143,1395,1379,1219,1289,1500,1535,10762,816
85621,1,-3.92,2.11,2.82,1.351,0.991,0.202,20.91,27.96,0.00,0.00,-20.91,-27.96,0.00,-73.03,-98.37,-69.12,-100.48,0.00,0.95,-3.61,-107.94,1143,1395,1379,1219,1309,1500,1515,10758,816
85632,1,-1.69,8.18,2.38,0.619,1.684,0.520,15.00,35.44,0.00,0.00,-15.00,-35.44,0.00,-52.36,-124.58,-50.67,-132.76,0.00,1.28,-9.10,-102.31,1143,1395,1379,1219,1309,1500,1515,10754,816
85645,1,16.93,27.22,-2.52,1.085,2.425,0.221,10.83,29.38,0.00,3.15,-10.83,-26.23,0.00,-37.78,-92.36,-54.71,-119.57,0.00,-6.70,-17.10,-8.40,1429,1207,1173,1375,1296,1500,1535,10779,817
85656,1,46.37,18.68,-2.44,1.021,2.649,0.285,9.34,21.32,0.00,3.15,-9.34,-18.17,0.00,-32.54,-64.17,-78.92,-82.86,0.00,-20.99,-12.83,-21.07,1429,1207,1173,1375,1296,1500,1535,10771,817
85669,1,68.48,57.17,-4.01,0.988,1.936,1.124,4.32,12.78,0.00,3.15,-4.32,-9.63,0.00,-14.98,-34.31,-83.46,-91.48,0.00,-31.62,-29.67,3.32,1429,1207,1173,1375,1299,1500,1535,10787,817
85681,1,78.66,66.83,-6.98,0.588,1.128,1.642,-0.22,4.69,0.00,3.15,0.22,-1.54,0.00,0.91,-5.98,-77.75,-72.81,0.00,-36.36,-30.49,62.07,1429,1207,1173,1375,1300,1500,1535,10779,817
85692,1,82.64,62.89,-8.32,0.854,0.175,1.647,-4.98,3.71,0.00,3.15,4.98,-0.56,0.00,17.59,-2.55,-65.05,-65.43,0.00,-38.45,-26.85,99.73,1429,1207,1173,1375,1300,1500,1535,10762,817
85705,1,64.72,61.10,-13.05,-0.516,1.213,2.467,-3.26,0.25,0.00,3.15,3.26,2.90,0.00,11.55,9.57,-53.17,-51.53,0.00,-28.41,-24.51,191.91,1429,1207,1173,1375,1301,1500,1535,10771,817
85716,1,47.08,44.56,-14.94,0.153,0.655,1.724,-7.75,-0.49,0.00,3.15,7.75,3.64,0.00,27.26,12.17,-19.82,-32.39,0.00,-20.53,-15.30,215.74,1429,1207,1173,1375,1301,1500,1535,10792,817
85729,1,38.80,-5.16,-15.99,1.281,0.406,0.551,-7.36,13.32,0.00,0.00,7.36,-13.32,0.00,25.93,-47.22,-12.87,-42.07,0.00,-17.01,5.24,231.19,1429,1207,1173,1375,1322,1500,1515,10787,817
85741,1,28.16,-31.83,-15.25,1.323,0.141,0.574,-14.71,28.25,0.00,3.15,14.71,-25.10,0.00,51.68,-88.46,23.52,-56.64,0.00,-10.25,13.62,212.73,1112,1500,1500,1100,1301,1500,1535,10796,817
85752,1,0.98,-20.12,-11.20,0.163,-0.247,0.770,-0.84,27.00,0.00,3.15,0.84,-23.85,0.00,3.13,-84.10,2.15,-63.99,0.00,-0.13,8.28,142.28,1112,1500,1500,1100,1301,1500,1535,10771,817
85765,1,-18.04,-59.92,-10.10,0.450,-0.115,0.078,4.98,33.58,0.00,3.15,-4.98,-30.43,0.00,-17.25,-107.16,0.78,-47.25,0.00,7.91,24.37,135.54,1112,1500,1500,1100,1305,1500,1535,10737,817
85776,1,-30.50,-23.76,-0.67,1.304,-0.667,0.238,-3.04,32.88,0.00,3.15,3.04,-29.73,0.00,10.81,-104.74,41.32,-80.98,0.00,14.59,8.02,-28.23,1112,1500,1500,1100,1305,1500,1535,10708,817
85789,1,-39.28,25.79,1.94,-0.873,0.121,1.717,1.84,9.40,0.00,3.15,-1.84,-6.25,0.00,-6.28,-22.57,33.00,-48.35,0.00,18.29,-9.66,-48.04,1112,1500,1500,1100,1305,1500,1535,10700,817
85801,1,-46.74,55.81,-1.61,-0.391,0.893,1.525,5.74,-0.20,0.00,3.06,-5.74,3.26,0.00,-19.92,10.71,26.82,-45.10,0.00,22.60,-19.31,26.01,1112,1500,1500,1100,1307,1500,1534,10700,817
85813,1,-51.59,53.97,-2.15,-1.553,1.097,2.069,3.64,-3.54,0.00,3.06,-3.64,6.60,0.00,-12.55,22.38,39.03,-31.59,0.00,25.46,-20.20,39.34,1112,1500,1500,1100,1307,1500,1534,10696,817
85825,1,-41.88,77.72,-6.22,-2.220,1.983,2.593,5.87,-8.00,0.00,0.00,-5.87,8.00,0.00,-20.37,27.32,21.51,-50.40,0.00,20.93,-29.13,113.48,1112,1500,1500,1100,1324,1500,1518,10696,817
85836,1,-34.97,42.04,-5.49,-1.748,2.122,1.832,21.10,2.48,0.00,0.00,-21.10,-2.48,0.00,-73.66,-9.36,-38.69,-51.40,0.00,15.50,-16.36,80.15,1112,1500,1500,1100,1324,1500,1518,10713,817
85849,1,-16.07,36.11,-3.34,-0.702,2.602,0.942,6.26,9.16,0.00,0.00,-6.26,-9.16,0.00,-21.73,-32.77,-5.66,-68.87,0.00,8.37,-17.73,30.47,1165,1451,1500,1183,1333,1500,1509,10704,817
85861,1,1.32,37.41,-3.02,-0.039,3.272,0.966,-7.95,15.07,0.00,1.89,7.95,-13.18,0.00,28.03,-46.85,26.71,-84.25,0.00,2.27,-22.79,13.47,1165,1451,1500,1183,1326,1500,1521,10704,817
85872,1,10.68,17.10,-2.94,0.666,3.733,0.116,-13.76,17.90,0.00,1.89,13.76,-16.01,0.00,48.37,-56.75,37.69,-73.85,0.00,-1.03,-16.58,-2.33,1165,1451,1500,1183,1326,1500,1521,10713,817
85885,1,13.88,24.14,-7.69,0.405,4.237,0.475,-16.16,16.12,0.00,3.06,16.16,-13.06,0.00,56.79,-46.46,42.92,-70.60,0.00,-1.29,-22.47,75.28,1165,1451,1500,1183,1313,1500,1534,10721,817
85896,1,11.00,2.95,-16.14,1.253,3.310,-0.322,-13.88,18.35,0.00,3.06,13.88,-15.29,0.00,48.88,-54.29,37.88,-57.24,0.00,0.39,-14.44,219.53,1165,1451,1500,1183,1313,1500,1534,10704,817
85909,1,16.15,25.38,-20.24,0.638,2.068,0.736,-10.21,16.92,0.00,3.06,10.21,-13.86,0.00,36.03,-49.28,19.88,-74.67,0.00,-1.82,-23.42,289.09,1165,1451,1500,1183,1315,1500,1534,10679,817
85921,1,12.19,17.04,-19.74,0.787,0.059,0.595,-9.15,21.09,0.00,0.00,9.15,-21.09,0.00,32.33,-74.62,20.14,-91.66,0.00,-0.23,-16.86,259.42,1165,1451,1500,1183,1336,1500,1512,10675,817
85933,1,21.43,4.71,-16.08,0.916,-1.758,0.209,-11.86,17.12,0.00,0.00,11.86,-17.12,0.00,41.82,-60.75,20.40,-65.45,0.00,-5.66,-9.70,177.23,1165,1451,1500,1183,1336,1500,1512,10675,817
85945,1,22.70,13.51,-13.21,0.477,-1.940,1.236,-3.25,15.41,0.00,3.06,3.25,-12.35,0.00,11.69,-44.06,-11.01,-57.57,0.00,-8.92,-12.75,110.45,1100,1500,1500,1100,1323,1500,1534,10683,812
85956,1,27.77,7.09,-5.41,-0.812,-2.008,2.247,2.30,7.68,0.00,3.06,-2.30,-4.62,0.00,-7.76,-17.01,-35.53,-24.10,0.00,-13.77,-7.03,-60.02,1100,1500,1500,1100,1323,1500,1534,10692,812
85969,1,36.70,-3.66,-2.98,-1.753,-1.980,2.432,4.70,-8.84,0.00,3.15,-4.70,11.99,0.00,-16.18,41.13,-52.88,44.79,0.00,-19.26,4.90,-101.71,1100,1500,1500,1100,1322,1500,1535,10688,812
85981,1,30.10,-90.21,2.91,0.329,-2.688,0.171,-13.63,-10.41,0.00,3.06,13.63,13.47,0.00,47.99,46.31,17.89,136.52,0.00,-13.70,43.28,-186.73,1100,1500,1500,1100,1329,1500,1534,10692,812
85992,1,20.79,-71.12,-0.32,0.333,-2.992,-0.077,-17.43,-8.90,0.00,3.06,17.43,11.96,0.00,61.27,41.05,40.48,112.17,0.00,-9.62,33.71,-98.35,1100,1500,1500,1100,1329,1500,1534,10704,812
86005,1,-3.77,-42.81,-2.85,-0.051,-3.230,0.844,-13.05,-6.86,0.00,3.06,13.05,9.92,0.00,45.97,33.92,49.73,76.72,0.00,0.88,22.84,-46.45,1100,1500,1500,1100,1329,1500,1534,10713,812
86017,1,-31.08,-41.56,-6.01,-0.554,-3.000,1.749,-1.76,0.08,0.00,3.06,1.76,2.98,0.00,6.44,9.63,37.52,51.19,0.00,11.88,21.26,11.61,1100,1500,1500,1100,1329,1500,1534,10717,812
86029,1,-52.26,-64.58,-9.11,-0.080,-2.616,1.417,-17.43,7.00,0.00,2.43,17.43,-4.57,0.00,61.32,-16.80,113.57,47.78,0.00,24.61,29.11,55.42,1100,1500,1500,1100,1336,1500,1527,10708,812
86041,1,-63.65,-61.64,-8.42,-0.500,-2.635,1.540,-20.66,10.10,0.00,2.97,20.66,-7.13,0.00,72.62,-25.78,136.27,35.85,0.00,30.57,25.21,29.16,1297,1305,1415,1307,1331,1500,1533,10717,816
86052,1,-64.12,-67.93,-7.31,0.272,-2.761,0.212,-20.40,13.35,0.00,2.97,20.40,-10.38,0.00,71.76,-37.17,135.88,30.76,0.00,30.99,30.00,-5.27,1297,1305,1415,1307,1331,1500,1533,10708,816
86065,1,-57.35,-42.92,-2.83,-0.273,-2.307,0.551,-19.42,4.32,0.00,2.97,19.42,-1.35,0.00,68.32,-5.57,125.67,37.36,0.00,27.49,22.67,-90.35,1297,1305,1415,1307,1330,1500,1533,10683,816
86076,1,-50.47,-15.12,-0.35,-0.549,-1.582,0.808,-16.74,-7.49,0.00,2.97,16.74,10.46,0.00,58.97,35.79,109.44,50.91,0.00,23.47,14.39,-136.50,1297,1305,1415,1307,1330,1500,1533,10671,816
86089,1,-35.37,-14.66,0.69,-0.157,-0.667,1.366,-10.07,-14.09,0.00,0.00,10.07,14.09,0.00,35.62,48.50,70.99,63.17,0.00,15.09,11.16,-148.50,1297,1305,1415,1307,1354,1500,1509,10671,816
86101,1,-30.09,-53.24,1.12,1.949,0.002,0.155,-16.20,21.50,0.00,2.97,16.20,-18.53,0.00,57.12,-65.69,87.21,-12.46,0.00,13.57,12.67,-141.13,1297,1305,1415,1307,1330,1500,1533,10675,816
86112,1,-23.45,-24.70,1.61,0.219,0.654,1.209,-20.14,29.21,0.00,2.97,20.14,-26.24,0.00,70.95,-92.70,94.40,-68.00,0.00,11.11,-8.03,-150.55,1297,1305,1415,1307,1330,1500,1533,10667,816
86125,1,-7.29,-42.46,3.40,0.106,1.383,0.616,-2.11,16.87,0.00,0.00,2.11,-16.87,0.00,7.84,-59.92,15.13,-17.46,0.00,2.01,3.21,-184.90,1297,1305,1415,1307,1349,1500,1515,10663,816
86136,1,-1.81,-70.39,-0.12,1.435,1.711,0.296,6.71,11.41,0.00,0.00,-6.71,-11.41,0.00,-23.02,-40.85,-21.21,29.54,0.00,-0.68,12.83,-102.95,1297,1305,1415,1307,1349,1500,1515,10683,816
86149,1,-4.01,-60.62,-2.40,2.338,2.197,-0.215,-12.78,33.33,0.00,2.97,12.78,-30.36,0.00,45.22,-107.20,49.22,-46.59,0.00,4.43,-5.12,-50.17,1100,1500,1500,1100,1330,1500,1533,10692,821
86161,1,-0.16,22.00,-8.38,-1.193,2.371,2.074,-11.68,25.94,0.00,0.00,11.68,-25.94,0.00,41.40,-91.76,41.56,-113.77,0.00,2.72,-36.53,54.55,1100,1500,1500,1100,1343,1500,1520,10688,821
86172,1,1.86,-17.84,-10.11,-0.330,2.385,0.219,-7.62,19.03,0.00,0.00,7.62,-19.03,0.00,27.20,-67.58,25.34,-49.74,0.00,1.97,-8.65,80.70,1100,1500,1500,1100,1343,1500,1520,10700,821
86185,1,4.23,14.66,-15.80,-0.054,2.717,1.008,-7.47,18.01,0.00,2.97,7.47,-15.04,0.00,26.72,-53.66,22.49,-68.31,0.00,0.71,-26.30,191.75,1100,1500,1500,1100,1331,1500,1533,10708,821
86196,1,17.39,21.79,-17.26,0.001,2.513,0.909,-13.26,21.50,0.00,2.97,13.26,-18.53,0.00,47.01,-65.87,29.62,-87.66,0.00,-4.72,-29.26,191.56,1100,1500,1500,1100,1331,1500,1533,10721,821
86209,1,27.61,39.01,-12.69,-2.335,1.874,2.228,-10.80,6.02,0.00,2.97,10.80,-3.05,0.00,38.41,-11.70,10.79,-50.72,0.00,-10.07,-30.82,88.15,1100,1500,1500,1100,1331,1500,1533,10713,821
86221,1,38.89,-58.88,-1.49,0.418,0.850,0.671,-6.88,4.67,0.00,0.00,6.88,-4.67,0.00,24.69,-17.38,-14.20,41.49,0.00,-15.95,15.22,-124.59,1100,1500,1500,1100,1356,1500,1508,10717,821
86232,1,48.68,-97.44,3.56,3.717,1.121,-0.780,13.12,34.99,0.00,0.00,-13.12,-34.99,0.00,-45.31,-123.53,-93.99,-26.09,0.00,-24.05,20.65,-211.78,1100,1500,1500,1100,1356,1500,1508,10708,821
86245,1,43.90,-16.84,5.56,1.423,1.218,0.591,21.13,38.64,0.00,2.97,-21.13,-35.67,0.00,-73.37,-125.94,-117.27,-109.10,0.00,-23.65,-14.16,-227.91,1100,1500,1500,1100,1330,1500,1533,10721,817
86256,1,53.21,-11.60,5.48,-0.518,0.961,1.079,17.87,7.96,0.00,2.97,-17.87,-4.99,0.00,-61.96,-18.61,-115.17,-7.01,0.00,-27.94,-1.21,-217.31,1100,1500,1500,1100,1330,1500,1533,10704,817
86269,1,47.06,-45.42,0.18,1.005,0.571,0.267,18.16,6.46,0.00,2.97,-18.16,-3.49,0.00,-63.00,-13.35,-110.05,32.06,0.00,-25.39,12.69,-93.14,1100,1500,1500,1100,1330,1500,1533,10737,817
86281,1,47.62,-32.32,-6.62,1.690,0.668,0.308,15.53,16.12,0.00,0.00,-15.53,-16.12,0.00,-53.82,-57.54,-101.43,-25.22,0.00,-26.08,-4.23,45.36,1100,1500,1500,1100,1355,1500,1508,10742,817
86292,1,37.08,0.83,-12.81,1.060,0.751,1.082,6.02,15.22,0.00,0.00,-6.02,-15.22,0.00,-20.54,-54.43,-57.62,-55.26,0.00,-20.88,-22.94,153.23,1100,1500,1500,1100,1355,1500,1508,10729,817
86305,1,29.46,-7.79,-18.56,0.541,1.420,1.032,0.96,12.74,0.00,2.97,-0.96,-9.77,0.00,-2.84,-35.35,-32.30,-27.56,0.00,-17.15,-18.77,245.44,1100,1500,1500,1100,1330,1500,1533,10704,817
86316,1,16.07,-34.34,-19.00,1.114,1.851,0.325,1.05,15.03,0.00,2.97,-1.05,-12.06,0.00,-3.12,-43.35,-19.19,-9.01,0.00,-11.59,-8.65,235.92,1100,1500,1500,1100,1330,1500,1533,10696,817
86329,1,8.91,-29.80,-17.93,1.762,1.679,0.136,3.94,21.66,0.00,6.30,-3.94,-15.36,0.00,-13.23,-54.91,-22.15,-25.11,0.00,-8.04,-11.26,199.19,1100,1500,1500,1100,1294,1500,1570,10688,817
86341,1,8.54,-1.02,-16.30,0.078,1.360,1.477,3.80,28.41,0.00,2.88,-3.80,-25.53,0.00,-12.78,-90.56,-21.32,-89.53,0.00,-9.71,-30.27,178.02,1132,1500,1470,1174,1331,1500,1532,10696,817
86352,1,13.10,-4.98,-12.69,-2.117,0.749,2.483,1.50,7.50,0.00,2.88,-1.50,-4.62,0.00,-4.71,-17.36,-17.80,-12.39,0.00,-12.27,-20.50,117.47,1132,1500,1470,1174,1331,1500,1532,10708,817
86365,1,11.35,-96.08,0.07,1.284,0.485,0.226,2.14,36.35,0.00,2.88,-2.14,-33.47,0.00,-6.98,-118.38,-18.33,-22.30,0.00,-11.47,13.65,-108.58,1132,1500,1470,1174,1331,1500,1532,10713,817
86376,5,7.11,-88.28,0.80,1.642,0.610,0.245,18.83,51.49,0.00,2.88,-18.83,-48.61,0.00,-65.39,-375.00,-72.50,-286.72,0.00,-12.37,-5.21,-109.41,1132,1500,1470,1174,1331,1500,1532,10704,817
86389,5,7.00,-70.22,-1.48,0.659,0.143,0.161,20.14,49.68,0.00,2.88,-20.14,-46.80,0.00,-70.02,-375.00,-77.02,-304.78,0.00,-12.28,-10.09,-65.11,1132,1500,1470,1174,1331,1500,1532,10683,817
86401,1,11.37,-46.00,-1.52,-0.503,-0.558,0.841,8.81,19.10,0.00,2.88,-8.81,-16.22,0.00,-30.39,-58.14,-41.75,-12.14,0.00,-12.31,-4.56,-59.81,1132,1500,1470,1174,1331,1500,1532,10671,817
86412,1,22.34,-56.54,-1.49,0.112,-1.030,0.583,-1.20,6.84,0.00,2.88,1.20,-3.96,0.00,4.65,-15.26,-17.69,41.28,0.00,-15.86,3.43,-42.72,1132,1500,1470,1174,1331,1500,1532,10688,817
86425,1,23.49,-68.86,0.22,0.624,-1.442,0.578,-5.54,5.88,0.00,2.88,5.54,-3.00,0.00,19.84,-11.88,-3.65,56.97,0.00,-14.80,6.34,-55.52,1132,1500,1470,1174,1331,1500,1532,10704,817
86437,1,23.02,-102.67,1.21,1.747,-1.277,-0.120,-18.09,13.94,0.00,2.88,18.09,-11.06,0.00,63.74,-40.10,40.73,62.57,0.00,-11.66,16.17,-61.30,1132,1500,1470,1174,1331,1500,1532,10721,817
86449,1,36.03,-126.89,3.59,2.841,-1.354,-1.227,-36.39,22.49,0.00,2.97,36.39,-19.52,0.00,127.83,-69.72,91.80,57.16,0.00,-13.40,24.11,-115.39,1500,1201,1129,1481,1330,1500,1533,10671,816
86461,1,63.75,-103.75,5.25,2.002,-1.198,-1.032,-42.50,21.24,0.00,3.42,42.50,-17.82,0.00,149.22,-63.80,85.48,39.95,0.00,-23.71,15.00,-159.22,1500,1201,1129,1481,1325,1500,1538,10683,816
86472,1,77.90,-91.63,7.18,1.684,-0.880,-0.654,-43.38,17.45,0.00,3.42,43.38,-14.03,0.00,150.00,-50.57,72.10,41.06,0.00,-28.84,12.72,-198.62,1500,1201,1129,1481,1325,1500,1538,10683,816
86485,1,89.83,-76.23,4.43,1.516,-0.494,0.098,-32.50,17.90,0.00,2.88,32.50,-15.02,0.00,114.32,-54.05,24.49,22.19,0.00,-35.15,6.72,-134.54,1500,1201,1129,1481,1331,1500,1532,10683,816
86496,1,93.02,-71.22,0.11,1.820,-0.072,0.595,-11.96,21.30,0.00,2.88,11.96,-18.42,0.00,42.43,-65.95,-50.59,5.27,0.00,-39.08,1.78,-50.50,1500,1201,1129,1481,1331,1500,1532,10683,816
86509,1,91.74,-55.02,-3.37,1.519,-0.060,1.120,-3.88,22.16,0.00,2.88,3.88,-19.28,0.00,14.14,-68.96,-77.60,-13.94,0.00,-39.32,-6.77,12.30,1500,1201,1129,1481,1331,1500,1532,10704,816
86521,1,76.55,-47.51,-9.62,1.216,0.143,1.214,-3.18,23.13,0.00,2.88,3.18,-20.25,0.00,11.68,-72.38,-64.87,-24.87,0.00,-32.07,-8.20,126.44,1500,1201,1129,1481,1331,1500,1532,10692,816
86532,1,45.09,-24.47,-17.51,-0.477,0.374,1.858,-6.35,10.47,0.00,2.88,6.35,-7.59,0.00,22.80,-28.10,-22.29,-3.63,0.00,-16.91,-10.85,284.12,1500,1201,1129,1481,1331,1500,1532,10704,816
86545,1,9.62,-43.43,-23.66,-1.365,0.236,1.817,-7.13,-10.19,0.00,0.00,7.13,10.19,0.00,25.54,34.15,15.92,77.57,0.00,-1.02,7.95,350.00,1500,1118,1146,1500,1354,1500,1509,10696,817
86556,1,-17.43,-63.36,-19.91,-1.249,-0.907,1.664,-2.03,-19.72,0.00,0.00,2.03,19.72,0.00,7.66,67.51,25.10,130.87,0.00,10.19,20.66,328.11,1500,1118,1146,1500,1354,1500,1509,10688,817
86569,1,-31.48,-97.24,-13.04,0.200,-1.998,0.561,-4.88,-5.05,0.00,2.88,4.88,7.93,0.00,17.66,26.27,49.14,123.51,0.00,16.92,31.18,182.95,1500,1118,1146,1500,1331,1500,1532,10704,817
86581,1,-35.74,-91.85,-8.94,0.422,-2.722,0.522,-17.23,8.70,0.00,0.00,17.23,-8.70,0.00,60.88,-31.94,96.62,59.90,0.00,19.77,22.90,130.33,1500,1118,1146,1500,1351,1500,1513,10696,817
86592,1,-50.56,-72.43,-4.86,-0.260,-3.072,1.111,-34.68,10.01,0.00,0.00,34.68,-10.01,0.00,122.00,-36.56,172.57,35.87,0.00,27.47,12.53,45.02,1500,1118,1146,1500,1351,1500,1513,10700,817
86605,1,-66.97,-70.34,-3.00,-0.001,-3.306,0.933,-32.58,11.85,0.00,2.79,32.58,-9.06,0.00,114.70,-33.26,181.67,37.07,0.00,33.03,13.29,-23.51,1500,1118,1146,1500,1332,1500,1531,10713,817
86616,1,-65.76,-80.37,1.60,0.429,-3.017,0.559,-39.98,14.17,0.00,2.79,39.98,-11.38,0.00,140.63,-41.39,206.39,38.98,0.00,31.94,18.72,-117.83,1500,1118,1146,1500,1332,1500,1531,10704,817
86629,5,-61.96,-59.45,5.64,0.151,-2.607,0.730,-45.95,14.60,0.00,2.79,45.95,-11.81,0.00,375.00,-42.90,436.96,16.56,0.00,38.65,9.17,-197.57,1500,1118,1146,1500,1332,1500,1531,10671,817
