time_ms,flags,gyro_x,gyro_y,gyro_z,accel_x,accel_y,accel_z,roll,pitch,rate_sp_roll,rate_sp_pitch,rate_err_roll,rate_err_pitch,rate_i_roll,rate_i_pitch,rate_i_yaw,pid_roll,pid_pitch,pid_yaw,m1,m2,m3,m4,rc_thr,rc_roll,rc_pitch,battery_mv,loop_us
60749,0,-0.01,0.01,-0.02,0.038,-0.028,1.000,0.00,0.00,0.01,0.03,0.02,0.02,0.00,0.00,0.00,0.02,-0.04,0.06,1100,1100,1100,1100,1035,1496,1505,12498,726
60761,0,-0.01,-0.03,-0.01,0.039,-0.029,1.000,0.00,0.00,0.01,0.03,0.02,0.06,0.00,0.00,0.00,0.01,0.14,0.03,1100,1100,1100,1100,1035,1496,1505,12498,726
60773,0,-0.01,0.01,-0.00,0.039,-0.029,1.000,0.00,0.00,0.01,0.03,0.02,0.02,0.00,0.00,0.00,0.01,-0.08,0.00,1100,1100,1100,1100,1036,1496,1505,12498,726
60785,0,-0.03,0.00,-0.02,0.039,-0.029,0.999,0.00,0.00,0.01,0.03,0.04,0.02,0.00,0.00,0.00,0.05,-0.02,0.06,1100,1100,1100,1100,1036,1496,1505,12498,726
60797,0,-0.02,0.05,0.01,0.039,-0.029,1.000,0.00,0.00,0.01,0.02,0.03,-0.02,0.00,0.00,0.00,0.01,-0.15,-0.01,1100,1100,1100,1100,1036,1496,1505,12498,726
60809,0,0.02,0.03,0.03,0.039,-0.029,1.000,0.00,0.00,0.01,0.02,-0.01,-0.00,0.00,0.00,0.00,-0.04,-0.00,-0.08,1100,1100,1100,1100,1036,1496,1505,12498,726
60821,0,0.01,0.01,0.04,0.038,-0.028,1.000,0.00,0.00,0.01,0.02,0.00,0.01,0.00,0.00,-0.00,-0.01,-0.01,-0.11,1100,1100,1100,1100,1036,1496,1505,12498,726
60833,0,-0.04,0.01,-0.04,0.038,-0.029,0.999,0.00,0.00,0.01,0.02,0.05,0.02,0.00,0.00,0.00,0.06,0.05,0.11,1100,1100,1100,1100,1036,1496,1505,12498,726
60845,0,0.05,-0.04,0.01,0.039,-0.029,0.997,0.00,0.00,0.01,0.02,-0.04,0.06,0.00,0.00,0.00,-0.10,0.18,-0.02,1100,1100,1100,1100,1036,1496,1505,12494,726
60857,0,0.02,-0.12,-0.02,0.040,-0.028,0.997,0.00,0.00,0.01,0.02,-0.00,0.14,0.00,0.00,0.00,0.02,0.34,0.05,1100,1100,1100,1100,1036,1496,1505,12498,726
60869,0,0.01,-0.11,-0.00,0.039,-0.028,0.998,0.00,0.00,0.01,0.02,0.00,0.13,0.00,0.00,0.00,0.02,0.11,0.01,1100,1100,1100,1100,1036,1496,1505,12482,726
60881,0,-0.00,-0.06,0.03,0.039,-0.029,0.999,0.00,0.00,0.01,0.02,0.02,0.08,0.00,0.00,0.00,0.01,-0.02,-0.08,1100,1100,1100,1100,1036,1496,1504,12482,726
60893,0,0.05,-0.01,0.01,0.040,-0.029,0.998,0.00,0.00,0.01,0.02,-0.04,0.03,0.00,0.00,0.00,-0.09,-0.23,-0.02,1100,1100,1100,1100,1036,1496,1504,12482,726
60905,0,0.01,-0.01,0.03,0.040,-0.030,0.999,0.00,0.00,0.01,0.02,0.00,0.03,0.00,0.00,-0.00,0.03,-0.15,-0.07,1100,1100,1100,1100,1036,1496,1504,12477,726
60917,0,-0.02,-0.02,-0.01,0.039,-0.028,0.999,0.00,0.00,0.01,0.02,0.04,0.04,0.00,0.00,-0.00,0.07,0.00,0.02,1100,1100,1100,1100,1036,1496,1504,12477,726
60929,0,-0.01,-0.02,-0.05,0.039,-0.028,0.999,0.00,0.00,0.01,0.02,0.02,0.04,0.00,0.00,0.00,0.05,-0.05,0.12,1100,1100,1100,1100,1036,1496,1504,12482,712
60941,0,0.00,-0.08,0.09,0.038,-0.027,0.999,0.00,0.00,0.01,0.02,0.01,0.11,0.00,0.00,0.00,0.08,-0.11,-0.22,1100,1100,1100,1100,1036,1496,1505,12477,712
60953,0,-0.01,-0.01,0.13,0.040,-0.026,1.000,0.00,0.00,0.00,0.02,0.02,0.03,0.00,0.00,-0.01,0.05,-0.17,-0.34,1100,1100,1100,1100,1035,1496,1505,12482,712
60965,0,-0.01,0.26,-0.79,0.038,-0.030,0.999,0.00,0.00,0.00,0.02,0.01,-0.24,0.00,0.00,0.01,0.08,-0.71,1.99,1100,1100,1100,1100,1035,1496,1505,12469,712
60977,0,0.16,0.86,-0.14,0.032,-0.025,1.009,0.00,0.00,-0.00,0.01,-0.16,-0.85,0.00,0.00,0.02,-0.26,-1.37,0.37,1100,1100,1100,1100,1035,1496,1505,12448,712
60989,0,0.11,0.66,0.87,0.023,-0.023,1.015,0.00,0.00,-0.01,0.02,-0.12,-0.65,-0.00,-0.00,0.00,-0.04,0.18,-2.18,1100,1100,1100,1100,1035,1496,1505,12440,712
61001,0,0.07,0.96,-0.03,0.012,-0.026,1.024,0.00,0.00,-0.01,0.04,-0.09,-0.92,-0.00,-0.00,-0.00,-0.09,-2.40,0.08,1100,1100,1100,1100,1035,1496,1505,12432,712
61013,0,-0.05,-0.12,-0.30,0.022,-0.023,1.011,0.00,0.00,-0.02,0.06,0.03,0.18,-0.00,-0.00,0.00,0.43,2.30,0.75,1100,1100,1100,1100,1035,1496,1505,12423,712
61025,0,-0.11,-2.39,0.29,0.047,-0.030,0.991,0.00,0.00,-0.01,0.10,0.09,2.49,-0.00,0.00,-0.00,0.06,5.72,-0.73,1100,1100,1100,1100,1035,1496,1505,12423,712
61037,0,0.14,-0.27,-0.21,0.045,-0.025,1.007,0.00,0.00,-0.02,0.10,-0.16,0.36,-0.00,0.00,-0.00,-0.21,-1.21,0.53,1100,1100,1100,1100,1035,1496,1505,12415,723
61049,0,0.15,-2.03,0.15,0.050,-0.020,0.995,0.00,0.00,-0.04,0.11,-0.18,2.14,-0.00,0.01,0.00,-0.01,4.29,-0.39,1100,1100,1100,1100,1035,1496,1505,12344,723
61061,0,-0.11,-0.59,0.16,0.032,-0.025,1.006,0.00,0.00,-0.05,0.13,0.07,0.71,-0.00,0.01,-0.01,0.34,-1.65,-0.41,1100,1100,1100,1100,1035,1496,1505,12328,723
61073,0,-0.20,-0.00,-0.13,0.030,-0.025,1.008,0.00,0.00,-0.05,0.14,0.15,0.15,-0.00,0.01,-0.01,0.19,-1.24,0.32,1100,1100,1100,1100,1035,1496,1505,12328,723
61085,0,-0.09,0.01,0.01,0.026,-0.027,1.008,0.00,0.00,-0.05,0.17,0.04,0.15,-0.00,0.01,-0.00,-0.23,-0.49,-0.03,1100,1100,1100,1100,1035,1496,1505,12311,723
61097,0,-0.04,1.85,0.08,0.014,-0.030,1.016,0.00,0.00,-0.05,0.17,-0.01,-1.68,0.00,0.01,-0.01,-0.47,-4.96,-0.21,1100,1100,1100,1100,1035,1496,1505,12294,723
61109,0,0.05,1.09,-0.24,0.010,-0.030,1.015,0.00,0.00,-0.04,0.19,-0.09,-0.89,0.00,0.01,-0.00,-0.37,-1.53,0.60,1100,1100,1100,1100,1035,1496,1505,12257,723
61121,0,0.57,-0.05,-0.39,0.010,-0.029,1.026,0.00,0.00,-0.05,0.24,-0.62,0.28,-0.00,0.01,0.01,-0.43,0.53,0.98,1100,1100,1100,1100,1035,1496,1505,12282,723
61133,0,0.46,1.31,0.07,0.010,-0.029,1.021,0.00,0.00,-0.07,0.26,-0.52,-1.05,-0.00,0.01,0.01,0.13,-2.70,-0.17,1100,1100,1100,1100,1035,1496,1505,12273,717
61145,0,0.47,2.22,0.23,0.004,-0.022,1.019,0.00,0.00,-0.09,0.27,-0.55,-1.95,-0.00,0.00,0.00,0.25,-3.53,-0.57,1100,1100,1100,1100,1035,1496,1505,12282,717
61157,0,0.02,0.44,-0.03,0.012,-0.025,1.023,0.00,0.00,-0.10,0.30,-0.12,-0.14,-0.00,0.00,0.00,0.34,2.35,0.07,1100,1100,1100,1100,1035,1496,1505,12286,717
61169,0,0.68,-0.87,0.19,0.025,-0.032,1.012,0.00,0.00,-0.10,0.33,-0.78,1.21,-0.00,0.00,-0.00,-1.03,4.70,-0.49,1100,1100,1100,1100,1036,1496,1505,12332,717
61181,0,0.01,1.11,-0.50,0.023,-0.018,1.017,0.00,0.00,-0.12,0.33,-0.14,-0.78,-0.00,0.00,0.00,0.75,-2.81,1.24,1100,1100,1100,1100,1036,1495,1505,12336,717
61193,0,-0.48,-1.21,0.10,0.026,-0.021,1.006,0.00,0.00,-0.13,0.36,0.35,1.57,-0.00,0.00,0.01,0.85,5.49,-0.24,1100,1100,1100,1100,1036,1495,1505,12357,717
61205,0,0.45,-1.57,0.93,0.038,-0.022,0.989,0.00,0.00,-0.14,0.40,-0.59,1.97,-0.00,0.01,-0.01,-1.05,1.41,-2.35,1100,1100,1100,1100,1036,1496,1505,12348,717
61217,0,-0.43,-1.96,-0.63,0.042,-0.015,0.979,0.00,0.00,-0.15,0.44,0.28,2.39,-0.00,0.01,-0.01,0.68,1.45,1.57,1100,1100,1100,1100,1036,1496,1505,12344,717
61229,0,-0.12,-0.99,-0.19,0.046,-0.030,0.979,0.00,0.00,-0.14,0.45,-0.02,1.44,-0.00,0.02,0.01,-0.78,-1.49,0.47,1100,1100,1100,1100,1036,1496,1505,12328,718
61241,0,0.04,-1.24,0.95,0.027,-0.016,0.983,0.00,0.00,-0.16,0.48,-0.20,1.72,-0.00,0.02,-0.01,0.28,0.62,-2.38,1100,1100,1100,1100,1036,1496,1505,12328,718
61253,0,-1.17,-0.24,-0.65,0.045,-0.029,0.988,0.00,0.00,-0.14,0.49,1.02,0.73,-0.00,0.02,-0.01,0.87,-2.04,1.61,1100,1100,1100,1100,1035,1496,1505,12311,718
61265,0,0.98,-1.35,0.35,0.050,-0.031,0.983,0.00,0.00,-0.13,0.46,-1.12,1.82,-0.00,0.03,-0.01,-1.85,3.99,-0.89,1100,1100,1100,1100,1035,1496,1505,12311,718
61277,0,-1.13,-1.03,0.11,0.054,-0.018,0.990,0.00,0.00,-0.14,0.48,0.99,1.50,-0.00,0.03,-0.02,1.97,0.44,-0.30,1100,1100,1100,1100,1035,1496,1505,12298,718
61289,0,1.18,0.55,-0.21,0.052,-0.050,0.978,0.00,0.00,-0.12,0.44,-1.31,-0.11,-0.00,0.03,-0.01,-2.47,-4.00,0.51,1100,1100,1100,1100,1035,1496,1505,12332,718
61301,0,-0.45,-0.72,0.39,0.039,-0.018,0.987,0.00,0.00,-0.14,0.46,0.31,1.18,-0.00,0.04,-0.02,1.29,-0.13,-0.99,1100,1100,1100,1100,1035,1496,1505,12323,718
61313,0,0.74,0.19,-0.25,0.051,-0.047,0.994,0.00,0.00,-0.12,0.43,-0.85,0.24,-0.00,0.04,-0.01,-1.47,-0.35,0.62,1100,1100,1100,1100,1035,1496,1505,12323,718
61325,0,-0.35,-1.31,0.33,0.061,-0.026,0.980,0.00,0.00,-0.12,0.43,0.23,1.74,-0.00,0.04,-0.02,0.67,3.11,-0.84,1100,1100,1100,1100,1035,1496,1505,12328,718
61337,0,1.07,0.27,-0.37,0.055,-0.037,0.984,0.00,0.00,-0.11,0.39,-1.18,0.12,-0.01,0.04,-0.02,-1.54,-4.30,0.90,1100,1100,1100,1100,1035,1496,1505,12323,718
61349,0,-0.98,-2.51,0.19,0.071,-0.019,0.956,0.00,0.00,-0.12,0.40,0.86,2.90,-0.00,0.05,-0.02,1.70,4.78,-0.50,1100,1100,1100,1100,1035,1496,1505,12336,718
61361,0,1.86,2.41,-0.45,0.045,-0.031,0.979,0.00,0.00,-0.12,0.35,-1.98,-2.06,-0.01,0.05,-0.01,-3.32,-14.67,1.11,1100,1100,1100,1100,1035,1496,1505,12340,718
61373,0,-1.46,0.07,0.18,0.045,-0.028,0.981,0.00,0.00,-0.11,0.35,1.35,0.28,-0.00,0.05,-0.02,2.22,0.22,-0.47,1100,1100,1100,1100,1035,1496,1505,12336,718
61385,0,2.06,0.53,-0.24,0.025,-0.011,1.002,0.00,0.00,-0.13,0.33,-2.19,-0.20,-0.01,0.05,-0.02,-3.87,-2.62,0.59,1100,1100,1100,1100,1035,1496,1505,12336,718
61397,0,-0.87,2.72,-0.21,-0.001,-0.033,1.038,0.00,0.00,-0.12,0.40,0.74,-2.33,-0.00,0.05,-0.02,1.17,-12.05,0.51,1100,1100,1100,1100,1035,1496,1505,12352,718
61409,0,0.53,3.03,-0.26,-0.006,-0.008,1.036,0.00,0.00,-0.15,0.36,-0.68,-2.67,-0.01,0.05,-0.01,-0.04,-1.02,0.64,1100,1100,1100,1100,1035,1496,1505,12377,718
61421,0,0.16,-3.06,0.18,0.086,-0.037,0.980,0.00,0.00,-0.14,0.39,-0.30,3.45,-0.01,0.05,-0.01,-1.10,9.85,-0.45,1100,1100,1100,1100,1035,1496,1505,12377,718
61433,0,-1.00,-1.14,-0.37,0.022,-0.014,0.996,0.00,0.00,-0.16,0.39,0.84,1.53,-0.01,0.06,-0.01,3.34,-0.84,0.90,1100,1100,1100,1100,1035,1496,1505,12344,719
61445,0,0.99,3.75,0.09,0.019,-0.036,1.035,0.00,0.00,-0.16,0.38,-1.15,-3.38,-0.01,0.05,-0.01,-2.12,-13.84,-0.24,1100,1100,1100,1100,1035,1496,1505,12344,719
61457,0,-0.71,1.63,-0.53,-0.030,-0.003,1.082,0.00,0.00,-0.20,0.38,0.50,-1.26,-0.01,0.04,-0.00,2.16,8.62,1.33,1100,1100,1100,1100,1035,1496,1505,12348,719
61469,0,1.57,5.51,0.32,-0.010,-0.044,1.074,0.00,0.00,-0.19,0.31,-1.76,-5.20,-0.01,0.03,0.00,-2.51,-2.19,-0.80,1100,1100,1100,1100,1036,1496,1505,12344,719
61481,0,-1.45,-3.98,-0.23,0.084,-0.047,0.983,0.00,0.00,-0.17,0.36,1.29,4.34,-0.01,0.04,0.01,2.96,15.16,0.58,1100,1100,1100,1100,1036,1496,1505,12344,719
61493,0,-0.32,-5.56,0.67,0.096,-0.028,0.935,0.00,0.00,-0.14,0.34,0.18,5.90,-0.01,0.05,-0.00,1.32,11.95,-1.67,1100,1100,1100,1100,1036,1496,1505,12348,719
61505,0,-0.01,1.14,-0.05,0.100,-0.054,0.970,0.00,0.00,-0.12,0.24,-0.11,-0.90,-0.01,0.05,0.00,-0.73,-11.05,0.12,1100,1100,1100,1100,1036,1496,1505,12352,719
61517,0,-1.13,-1.35,-0.21,0.070,-0.028,0.962,0.00,0.00,-0.10,0.15,1.02,1.50,-0.01,0.05,-0.00,1.55,9.88,0.52,1100,1100,1100,1100,1036,1496,1505,12373,719
61529,0,1.01,-1.12,0.57,0.136,-0.036,0.923,0.00,0.00,-0.07,0.03,-1.09,1.15,-0.01,0.05,-0.00,-3.07,2.38,-1.43,1100,1100,1100,1100,1036,1496,1505,12348,719
61541,0,-0.87,-3.43,-0.58,0.162,-0.032,0.910,0.00,0.00,-0.04,-0.06,0.84,3.36,-0.01,0.06,-0.00,0.11,1.46,1.46,1100,1100,1100,1100,1036,1496,1505,12348,719
61553,0,-0.25,-3.36,0.77,0.184,-0.033,0.882,0.00,0.00,-0.01,-0.26,0.24,3.10,-0.01,0.07,-0.02,0.60,-1.97,-1.94,1100,1100,1100,1100,1035,1496,1505,12377,719
61565,0,0.60,-4.19,-0.11,0.230,-0.056,0.856,0.00,0.00,0.02,-0.48,-0.57,3.71,-0.01,0.08,-0.01,-1.32,0.61,0.25,1100,1100,1100,1100,1035,1496,1505,12369,719
61577,0,0.71,-3.89,0.40,0.182,-0.015,0.855,0.00,0.00,-0.02,-0.73,-0.72,3.16,-0.01,0.09,-0.03,-0.02,-1.66,-1.02,1100,1100,1100,1100,1035,1496,1505,12390,719
61589,0,2.04,-3.53,0.32,0.224,-0.025,0.841,0.00,0.00,-0.01,-1.03,-2.05,2.50,-0.01,0.09,-0.03,-2.45,5.87,-0.83,1100,1100,1100,1100,1035,1496,1505,12377,719
61601,0,0.55,-0.28,-0.00,0.195,-0.029,0.897,0.00,0.00,-0.01,-1.29,-0.56,-1.01,-0.01,0.09,-0.04,0.03,-5.45,-0.03,1100,1100,1100,1100,1035,1496,1505,12373,719
61613,0,0.37,3.15,0.31,0.170,-0.014,0.898,0.00,0.00,-0.05,-1.62,-0.41,-4.77,-0.01,0.08,-0.04,2.31,-7.78,-0.81,1100,1100,1100,1100,1035,1496,1505,12377,719
61625,0,2.42,3.16,-0.33,0.161,-0.052,0.919,0.00,0.00,-0.08,-1.89,-2.50,-5.05,-0.01,0.07,-0.04,-2.82,-7.58,0.78,1100,1100,1100,1100,1035,1496,1505,12377,719
61637,0,-0.10,2.86,0.13,0.101,0.004,0.946,0.00,0.00,-0.14,-2.09,-0.04,-4.95,-0.01,0.06,-0.04,1.55,-0.74,-0.36,1100,1100,1100,1100,1035,1496,1505,12386,784
61649,0,1.62,8.46,-0.24,0.031,0.005,1.020,0.00,0.00,-0.18,-2.28,-1.80,-10.74,-0.02,0.04,-0.03,-2.38,-15.38,0.57,1100,1100,1100,1100,1035,1496,1505,12382,784
61661,0,-0.95,5.78,-0.39,0.022,-0.015,1.034,0.00,0.00,-0.16,-2.33,0.79,-8.11,-0.01,0.02,-0.02,-0.27,-4.62,0.95,1100,1100,1100,1100,1035,1496,1505,12373,784
61673,0,-3.49,5.96,-1.34,-0.113,-0.017,1.101,0.00,0.00,-0.15,-2.30,3.34,-8.26,-0.01,-0.00,0.00,5.99,0.78,3.36,1100,1100,1100,1100,1035,1496,1505,12369,784
61685,0,-0.68,4.84,-0.92,-0.129,-0.029,1.124,0.00,0.00,-0.15,-2.16,0.53,-7.01,-0.01,-0.02,0.02,-1.14,-0.95,2.32,1100,1100,1100,1100,1035,1496,1505,12361,784
61697,0,-2.76,1.51,-0.41,-0.168,-0.023,1.141,0.00,0.00,-0.12,-1.93,2.63,-3.44,-0.01,-0.04,0.05,2.41,14.16,1.08,1100,1100,1100,1100,1035,1496,1505,12344,784
61709,0,-1.43,3.43,-0.44,-0.194,-0.030,1.180,0.00,0.00,-0.09,-1.64,1.33,-5.08,-0.01,-0.04,0.06,0.53,-5.64,1.16,1100,1100,1100,1100,1035,1496,1505,12357,784
61721,0,-1.15,-3.09,0.01,-0.111,-0.040,1.101,0.00,0.00,-0.06,-1.29,1.09,1.80,-0.01,-0.04,0.08,-0.53,10.35,0.05,1100,1100,1100,1100,1035,1496,1505,12348,784
61733,0,-0.84,-2.41,-1.21,-0.118,-0.016,1.104,0.00,0.00,-0.06,-0.99,0.77,1.42,-0.01,-0.04,0.10,0.36,4.51,3.13,1100,1100,1100,1100,1035,1496,1505,12344,905
61745,0,1.11,-1.34,-0.04,-0.014,-0.019,1.042,0.00,0.00,-0.07,-0.79,-1.17,0.55,-0.01,-0.04,0.11,-2.57,-2.49,0.20,1100,1100,1100,1100,1035,1496,1505,12344,905
61757,0,0.77,-3.32,-0.28,0.025,-0.038,1.025,0.00,0.00,-0.06,-0.64,-0.84,2.68,-0.01,-0.04,0.12,-1.79,4.14,0.83,1100,1100,1100,1100,1035,1496,1505,12357,905
61769,0,0.03,5.15,-0.77,0.009,-0.017,1.024,0.00,0.00,-0.11,-0.69,-0.13,-5.84,-0.01,-0.04,0.13,1.52,-16.54,2.06,1100,1100,1100,1100,1035,1496,1504,12361,905
61781,0,1.43,4.46,-0.34,0.019,-0.036,1.022,0.00,0.00,-0.12,-0.71,-1.55,-5.16,-0.01,-0.05,0.14,-1.81,-11.56,0.99,1100,1100,1100,1100,1035,1495,1505,12357,905
61793,0,-1.71,-2.68,-0.30,-0.013,-0.049,1.028,0.00,0.00,-0.11,-0.67,1.60,2.01,-0.01,-0.06,0.15,2.90,21.18,0.89,1100,1100,1100,1100,1035,1495,1505,12361,905
61805,0,-0.06,4.06,-0.11,-0.030,-0.005,1.067,0.00,0.00,-0.13,-0.61,-0.07,-4.67,-0.01,-0.06,0.16,1.50,-13.98,0.44,1100,1100,1100,1100,1036,1495,1504,12361,905
61817,0,0.79,-0.70,-0.20,-0.014,-0.076,1.027,0.00,0.00,-0.08,-0.50,-0.87,0.20,-0.01,-0.07,0.17,-1.94,8.20,0.68,1100,1100,1100,1100,1036,1495,1504,12361,905
61829,0,-0.12,-1.05,-0.71,-0.022,-0.042,1.035,0.00,0.00,-0.08,-0.38,0.05,0.67,-0.01,-0.07,0.18,0.30,5.81,1.96,1100,1100,1100,1100,1036,1496,1504,12348,722
61841,0,3.72,-1.96,0.06,0.049,-0.034,0.984,0.00,0.00,-0.06,-0.32,-3.79,1.64,-0.01,-0.06,0.18,-5.87,0.93,0.02,1100,1100,1100,1100,1036,1496,1504,12332,722
61853,0,1.61,1.70,0.15,0.046,-0.056,0.999,0.00,0.00,-0.04,-0.30,-1.65,-2.01,-0.01,-0.06,0.19,-3.08,-12.82,-0.18,1100,1100,1100,1100,1036,1496,1504,12344,722
61865,0,-1.71,-3.48,-0.32,0.066,-0.028,0.930,0.00,0.00,-0.03,-0.32,1.68,3.16,-0.01,-0.06,0.20,5.74,14.24,1.00,1100,1100,1100,1100,1035,1496,1505,12348,722
61877,0,1.46,0.72,-0.74,0.003,-0.079,1.017,0.00,0.00,0.01,-0.28,-1.45,-0.99,-0.01,-0.06,0.21,-2.24,-10.67,2.06,1100,1100,1100,1100,1035,1496,1505,12344,722
61889,0,-2.65,-2.21,-0.94,-0.001,-0.048,0.977,0.00,0.00,0.03,-0.20,2.68,2.01,-0.01,-0.06,0.22,5.17,9.01,2.58,1100,1100,1100,1100,1035,1496,1505,12344,722
61901,0,2.12,1.16,0.05,-0.042,-0.035,1.022,0.00,0.00,0.03,-0.06,-2.08,-1.22,-0.01,-0.05,0.23,-2.89,-10.89,0.11,1100,1100,1100,1100,1035,1496,1505,12344,722
61913,0,0.44,-6.63,-0.05,0.085,-0.066,0.940,0.00,0.00,0.10,0.03,-0.35,6.66,-0.01,-0.04,0.25,-2.04,16.64,0.38,1100,1100,1100,1100,1035,1496,1505,12344,722
61925,0,-1.69,-2.49,-1.32,0.068,-0.008,0.948,0.00,0.00,0.09,0.09,1.78,2.58,-0.01,-0.03,0.27,4.37,-6.37,3.56,1100,1100,1100,1100,1035,1496,1505,12352,722
61937,0,1.65,-3.98,-0.66,0.108,-0.035,0.946,0.00,0.00,0.13,0.02,-1.53,3.99,-0.01,-0.03,0.29,-4.08,3.68,1.93,1100,1100,1100,1100,1035,1496,1505,12340,717
61949,0,-1.12,-0.61,-0.69,0.115,-0.032,0.965,0.00,0.00,0.16,-0.06,1.28,0.55,-0.01,-0.02,0.31,0.09,-2.53,2.03,1100,1100,1100,1100,1035,1496,1505,12340,717
61961,0,-0.90,-0.06,-0.75,0.023,-0.006,1.000,0.00,0.00,0.16,-0.12,1.06,-0.06,-0.01,-0.03,0.33,1.23,2.30,2.20,1100,1100,1100,1100,1035,1496,1505,12352,717
61973,0,-0.15,3.76,-0.64,0.012,-0.049,1.021,0.00,0.00,0.19,-0.12,0.35,-3.87,-0.01,-0.03,0.36,-2.00,-13.75,1.95,1100,1100,1100,1100,1035,1496,1505,12336,717
61985,0,-0.95,-1.14,-0.48,0.036,-0.043,0.990,0.00,0.00,0.22,-0.05,1.17,1.08,-0.01,-0.03,0.37,0.03,2.68,1.58,1100,1100,1100,1100,1035,1496,1505,12336,717
61997,0,-0.72,2.24,-0.17,0.025,-0.028,1.001,0.00,0.00,0.23,-0.06,0.95,-2.30,-0.01,-0.03,0.38,1.64,-11.44,0.79,1100,1100,1100,1100,1035,1496,1505,12328,717
62009,0,-0.14,3.74,-0.48,0.050,-0.037,1.008,0.00,0.00,0.23,-0.10,0.37,-3.84,-0.01,-0.03,0.38,0.63,-14.59,1.59,1100,1100,1100,1100,1035,1496,1505,12332,717
62021,0,-0.92,8.09,-0.17,-0.036,-0.025,1.067,0.00,0.00,0.19,-0.21,1.12,-8.30,-0.01,-0.05,0.38,2.72,-10.51,0.81,1100,1100,1100,1100,1035,1496,1505,12332,717
62033,0,1.94,4.45,-0.03,-0.023,-0.002,1.080,0.00,0.00,0.14,-0.29,-1.80,-4.74,-0.01,-0.07,0.39,-2.61,10.25,0.48,1100,1100,1100,1100,1035,1496,1505,12344,720
62045,0,0.58,0.57,0.42,-0.007,-0.043,1.070,0.00,0.00,0.14,-0.21,-0.44,-0.78,-0.01,-0.07,0.39,-0.68,10.49,-0.67,1100,1100,1100,1100,1036,1496,1505,12344,720
62057,0,0.67,-0.75,-0.28,0.004,-0.008,1.031,0.00,0.00,0.10,-0.17,-0.57,0.59,-0.01,-0.08,0.41,-0.41,11.03,1.11,1100,1100,1100,1100,1036,1496,1505,12344,720
62069,0,3.82,5.90,-0.61,0.010,-0.013,1.064,0.00,0.00,0.07,-0.19,-3.75,-6.09,-0.01,-0.08,0.41,-6.30,-18.34,1.92,1100,1100,1100,1100,1036,1496,1505,12344,720
62081,0,-0.28,10.09,0.01,-0.019,-0.031,1.094,0.00,0.00,0.06,-0.24,0.34,-10.32,-0.01,-0.10,0.41,0.58,-23.37,0.40,1100,1100,1100,1100,1036,1496,1504,12340,720
62093,0,-1.33,3.66,-0.91,-0.054,0.013,1.096,0.00,0.00,0.00,-0.29,1.33,-3.95,-0.01,-0.12,0.43,4.59,12.08,2.71,1100,1100,1100,1100,1035,1496,1504,12340,720
62105,0,-0.87,5.87,-0.54,-0.038,-0.031,1.114,0.00,0.00,-0.01,-0.30,0.86,-6.18,-0.01,-0.13,0.44,1.26,-1.54,1.80,1100,1100,1100,1100,1035,1496,1504,12344,720
62117,0,-2.72,-7.00,-0.62,0.017,-0.017,1.013,0.00,0.00,-0.03,-0.15,2.69,6.85,-0.01,-0.13,0.46,3.95,28.43,2.01,1100,1100,1100,1100,1035,1496,1504,12340,720
62129,0,-0.60,-2.18,-0.19,0.014,-0.017,0.994,0.00,0.00,-0.03,-0.03,0.57,2.15,-0.01,-0.12,0.46,0.12,-6.10,0.95,1100,1100,1100,1100,1036,1496,1504,12352,720
62141,0,-0.63,-2.43,-0.01,0.094,-0.039,0.960,0.00,0.00,0.01,0.02,0.64,2.45,-0.01,-0.11,0.48,-1.64,-4.92,0.50,1100,1100,1100,1100,1036,1496,1504,12352,720
62153,0,-1.71,-1.08,-1.07,0.064,-0.026,0.970,0.00,0.00,0.03,-0.03,1.75,1.05,-0.00,-0.10,0.50,1.73,-0.52,3.18,1100,1100,1100,1100,1036,1496,1504,12344,720
62165,0,0.26,0.24,0.22,0.083,-0.001,0.975,0.00,0.00,0.00,-0.12,-0.25,-0.36,-0.01,-0.10,0.49,0.03,-4.06,-0.06,1100,1100,1100,1100,1035,1496,1505,12348,720
62177,0,1.84,-5.26,0.39,0.136,-0.036,0.933,0.00,0.00,-0.02,-0.18,-1.85,5.08,-0.01,-0.10,0.50,-2.95,17.02,-0.49,1100,1100,1100,1100,1035,1496,1505,12340,720
62189,0,0.17,-0.63,-0.32,0.115,-0.025,0.944,0.00,0.00,-0.03,-0.31,-0.20,0.32,-0.01,-0.10,0.50,1.17,-2.67,1.30,1100,1100,1100,1100,1035,1496,1505,12328,720
62201,0,3.69,1.58,0.51,0.174,-0.019,0.940,0.00,0.00,-0.06,-0.57,-3.75,-2.16,-0.01,-0.10,0.49,-4.90,-4.33,-0.79,1100,1100,1100,1100,1035,1496,1505,12344,720
62213,0,1.54,7.15,-0.26,0.108,-0.033,1.017,0.00,0.00,-0.08,-0.81,-1.62,-7.96,-0.01,-0.12,0.51,-1.70,-15.26,1.16,1100,1100,1100,1100,1035,1496,1505,12357,720
62225,0,-1.35,2.19,-0.51,0.057,-0.004,0.993,0.00,0.00,-0.14,-0.98,1.21,-3.16,-0.01,-0.13,0.51,5.26,7.39,1.79,1100,1100,1100,1100,1035,1496,1505,12344,720
62237,0,1.55,2.93,-0.17,0.035,-0.026,1.025,0.00,0.00,-0.15,-0.99,-1.70,-3.92,-0.01,-0.13,0.52,-3.17,-5.15,0.94,1100,1100,1100,1100,1035,1496,1505,12344,734
62249,0,-1.65,-1.89,0.12,0.044,-0.034,0.966,0.00,0.00,-0.16,-0.95,1.49,0.94,-0.01,-0.13,0.52,1.99,4.74,0.23,1100,1100,1100,1100,1035,1496,1505,12344,734
62261,0,-1.33,-3.63,0.07,0.067,-0.016,0.947,0.00,0.00,-0.14,-0.88,1.19,2.75,-0.01,-0.12,0.51,2.66,-0.02,0.33,1100,1100,1100,1100,1035,1496,1505,12344,734
62273,0,0.22,0.97,0.05,0.025,-0.062,1.017,0.00,0.00,-0.10,-0.89,-0.32,-1.86,-0.01,-0.13,0.51,-1.77,-7.29,0.39,1100,1100,1100,1100,1035,1496,1505,12336,734
62285,0,-1.60,7.39,-0.92,-0.018,-0.010,1.070,0.00,0.00,-0.12,-0.95,1.48,-8.34,-0.01,-0.14,0.52,3.09,-15.68,2.83,1100,1100,1100,1100,1035,1496,1505,12328,734
62297,0,1.54,8.25,0.27,-0.069,-0.028,1.122,0.00,0.00,-0.13,-0.99,-1.67,-9.24,-0.01,-0.17,0.52,-2.04,-5.15,-0.17,1100,1100,1100,1100,1035,1496,1505,12332,734
62309,0,2.00,4.13,0.33,-0.036,-0.041,1.122,0.00,0.00,-0.15,-0.92,-2.15,-5.05,-0.01,-0.18,0.53,-4.35,-1.83,-0.29,1100,1100,1100,1100,1035,1496,1505,12352,734
62321,0,0.79,-0.62,-0.70,0.006,0.008,1.074,0.00,0.00,-0.19,-0.85,-0.99,-0.23,-0.01,-0.18,0.54,-0.06,11.27,2.30,1100,1100,1100,1100,1035,1496,1505,12344,734
62333,0,1.50,-2.00,-0.12,0.003,-0.037,1.066,0.00,0.00,-0.19,-0.76,-1.69,1.24,-0.01,-0.18,0.55,-2.15,4.27,0.84,1100,1100,1100,1100,1035,1496,1505,12344,721
62345,0,-2.32,0.83,-1.04,0.002,-0.038,1.059,0.00,0.00,-0.17,-0.65,2.16,-1.47,-0.01,-0.18,0.57,3.78,-8.70,3.18,1100,1100,1100,1100,1035,1496,1505,12344,721
62357,0,-1.03,-3.45,-0.82,-0.025,-0.022,1.025,0.00,0.00,-0.16,-0.52,0.87,2.93,-0.01,-0.18,0.58,1.71,11.88,2.62,1100,1100,1100,1100,1035,1496,1505,12340,721
62369,0,-0.34,0.17,-0.42,-0.015,-0.029,1.062,0.00,0.00,-0.13,-0.40,0.21,-0.57,-0.01,-0.17,0.61,-1.53,-7.19,1.66,1100,1100,1100,1100,1035,1496,1505,12323,721
62381,0,-1.88,-1.44,-1.04,0.019,-0.004,1.006,0.00,0.00,-0.14,-0.28,1.74,1.15,-0.01,-0.17,0.63,2.61,-0.23,3.23,1100,1100,1100,1100,1035,1496,1505,12319,721
62393,0,-0.76,-1.69,-0.15,0.031,-0.027,0.988,0.00,0.00,-0.15,-0.25,0.61,1.44,-0.01,-0.17,0.64,1.29,2.19,1.02,1100,1100,1100,1100,1036,1496,1505,12328,721
62405,0,0.87,-0.31,-0.40,0.101,-0.021,0.983,0.00,0.00,-0.18,-0.32,-1.05,-0.01,-0.01,-0.17,0.65,-2.41,-2.79,1.65,1100,1100,1100,1100,1035,1495,1505,12328,721
62417,0,-0.33,1.25,-0.07,0.053,-0.012,0.988,0.00,0.00,-0.20,-0.39,0.13,-1.64,-0.01,-0.17,0.65,0.87,-4.53,0.84,1100,1100,1100,1100,1035,1495,1505,12328,721
62429,0,1.16,-0.51,0.52,0.056,-0.036,1.002,0.00,0.00,-0.22,-0.44,-1.37,0.07,-0.01,-0.17,0.65,-1.14,4.80,-0.64,1100,1100,1100,1100,1036,1495,1505,12328,737
62441,0,0.04,0.44,0.57,0.054,-0.052,0.985,0.00,0.00,-0.20,-0.44,-0.25,-0.88,-0.01,-0.18,0.65,0.43,-1.06,-0.76,1100,1100,1100,1100,1036,1495,1505,12294,737
62453,0,1.61,-2.56,-0.39,0.032,-0.003,0.974,0.00,0.00,-0.25,-0.35,-1.86,2.20,-0.02,-0.17,0.66,-2.23,0.25,1.64,1100,1100,1100,1100,1035,1495,1505,12290,737
62465,0,2.60,1.21,-0.75,0.041,-0.005,1.009,0.00,0.00,-0.26,-0.35,-2.86,-1.56,-0.02,-0.17,0.66,-4.60,-8.49,2.54,1100,1100,1100,1100,1035,1496,1505,12303,737
62477,0,-0.08,2.50,-0.19,0.033,-0.015,1.002,0.00,0.00,-0.25,-0.34,-0.17,-2.84,-0.02,-0.17,0.67,-0.28,-11.14,1.13,1100,1100,1100,1100,1035,1496,1505,12311,737
62489,0,-2.28,0.75,-0.62,-0.034,-0.036,1.040,0.00,0.00,-0.24,-0.32,2.04,-1.06,-0.02,-0.18,0.68,5.27,4.89,2.23,1100,1100,1100,1100,1035,1496,1505,12323,737
62501,0,-0.02,0.58,0.10,-0.037,-0.048,1.077,0.00,0.00,-0.21,-0.27,-0.20,-0.85,-0.02,-0.18,0.68,-1.34,6.41,0.44,1100,1100,1100,1100,1035,1496,1505,12323,737
62513,0,-2.28,-1.79,-0.36,0.009,-0.027,1.050,0.00,0.00,-0.19,-0.14,2.09,1.66,-0.01,-0.18,0.69,3.27,4.02,1.59,1100,1100,1100,1100,1035,1496,1505,12311,737
62525,0,-0.82,-5.41,0.11,0.030,-0.039,0.995,0.00,0.00,-0.17,-0.03,0.65,5.38,-0.01,-0.17,0.68,0.89,11.33,0.40,1100,1100,1100,1100,1035,1496,1505,12319,737
62537,0,-0.10,-0.29,0.51,0.077,-0.031,0.977,0.00,0.00,-0.16,0.00,-0.06,0.29,-0.01,-0.16,0.70,-1.69,-11.40,-0.59,1100,1100,1100,1100,1035,1496,1505,12328,716
62549,0,-0.15,-1.17,-0.95,0.066,-0.011,0.978,0.00,0.00,-0.16,-0.02,-0.01,1.16,-0.01,-0.16,0.71,-0.75,-1.72,3.09,1100,1100,1100,1100,1035,1496,1505,12307,716
62561,0,1.00,5.85,-0.21,0.044,-0.017,1.025,0.00,0.00,-0.17,-0.15,-1.17,-6.01,-0.01,-0.17,0.72,-2.30,-15.03,1.25,1100,1100,1100,1100,1035,1496,1505,12311,716
62573,0,-0.86,-1.35,-0.06,0.044,-0.038,1.001,0.00,0.00,-0.13,-0.13,0.74,1.22,-0.01,-0.17,0.73,0.69,8.51,0.90,1100,1100,1100,1100,1035,1496,1505,12311,716
62585,0,0.03,-1.04,-0.75,0.001,-0.034,1.019,0.00,0.00,-0.13,-0.11,-0.15,0.93,-0.01,-0.17,0.74,0.18,5.83,2.61,1100,1100,1100,1100,1035,1496,1505,12311,716
62597,0,2.37,-4.43,0.38,0.091,-0.009,0.964,0.00,0.00,-0.15,-0.10,-2.51,4.34,-0.01,-0.16,0.74,-3.99,12.80,-0.22,1100,1100,1100,1100,1035,1496,1505,12319,716
62609,0,0.52,-0.16,-0.49,0.080,-0.023,0.970,0.00,0.00,-0.17,-0.14,-0.68,0.02,-0.02,-0.16,0.75,0.06,-4.30,1.97,1100,1100,1100,1100,1035,1496,1505,12311,716
62621,0,-1.82,5.98,-0.17,0.051,-0.025,0.981,0.00,0.00,-0.21,-0.28,1.61,-6.26,-0.02,-0.17,0.74,5.06,-15.89,1.17,1100,1100,1100,1100,1035,1496,1505,12311,716
62633,0,1.41,3.93,0.25,0.025,-0.016,1.024,0.00,0.00,-0.23,-0.33,-1.65,-4.26,-0.02,-0.18,0.75,-3.73,-9.64,0.13,1100,1100,1100,1100,1035,1496,1505,12328,791
62645,0,-1.73,2.07,-0.22,-0.030,-0.025,1.027,0.00,0.00,-0.23,-0.32,1.50,-2.39,-0.01,-0.19,0.75,1.87,1.32,1.30,1100,1100,1100,1100,1036,1496,1505,12336,791
62657,0,-1.94,-1.20,0.32,0.001,-0.005,1.030,0.00,0.00,-0.23,-0.22,1.72,0.98,-0.01,-0.18,0.74,3.29,4.99,-0.07,1100,1100,1100,1100,1036,1496,1505,12328,791
62669,0,-2.65,-9.33,0.43,0.048,-0.075,0.956,0.00,0.00,-0.15,-0.06,2.50,9.27,-0.01,-0.17,0.75,3.44,25.50,-0.33,1100,1100,1100,1100,1036,1496,1505,12348,791
62681,0,-2.03,-10.71,-0.43,0.112,-0.029,0.911,0.00,0.00,-0.12,0.05,1.91,10.76,-0.01,-0.15,0.75,1.53,16.88,1.82,1100,1100,1100,1100,1036,1496,1505,12348,791
62693,0,2.49,-0.97,0.06,0.095,-0.028,0.955,0.00,0.00,-0.08,0.07,-2.57,1.04,-0.01,-0.14,0.75,-6.60,-18.67,0.60,1100,1100,1100,1100,1036,1496,1505,12373,791
62705,0,1.39,3.33,-0.42,0.040,-0.038,0.965,0.00,0.00,-0.02,0.01,-1.40,-3.31,-0.01,-0.14,0.76,-6.17,-17.16,1.81,1100,1100,1100,1100,1036,1496,1504,12369,791
62717,0,-1.20,-4.82,-0.39,0.016,-0.038,0.956,0.00,0.00,0.04,0.13,1.24,4.95,-0.01,-0.13,0.76,1.40,8.37,1.73,1100,1100,1100,1100,1036,1496,1504,12365,791
62729,0,0.44,-6.03,0.54,0.037,-0.072,0.971,0.00,0.00,0.13,0.19,-0.31,6.22,-0.01,-0.13,0.76,-2.45,18.34,-0.58,1100,1100,1100,1100,1036,1496,1504,12373,722
62741,0,-2.24,-10.07,-0.35,0.148,-0.061,0.889,0.00,0.00,0.19,0.28,2.44,10.35,-0.01,-0.10,0.76,4.02,7.81,1.63,1100,1100,1100,1100,1036,1496,1504,12352,722
62753,0,-0.18,-5.45,0.09,0.176,-0.076,0.859,0.00,0.00,0.24,0.14,0.43,5.59,-0.01,-0.09,0.75,2.01,0.30,0.53,1100,1100,1100,1100,1036,1496,1504,12336,722
62765,0,1.11,6.84,0.32,0.161,-0.062,0.896,0.00,0.00,0.25,-0.14,-0.86,-6.98,-0.01,-0.09,0.76,-1.49,-35.56,-0.04,1100,1100,1100,1100,1035,1496,1505,12328,722
62777,0,0.59,3.26,-0.97,0.095,-0.004,0.926,0.00,0.00,0.21,-0.35,-0.38,-3.60,-0.01,-0.10,0.77,0.83,-8.37,3.19,1100,1100,1100,1100,1035,1496,1505,12336,722
62789,0,1.00,3.71,0.09,0.058,-0.017,0.986,0.00,0.00,0.20,-0.58,-0.80,-4.29,-0.01,-0.11,0.78,-0.53,6.83,0.56,1100,1100,1100,1100,1035,1496,1505,12328,722
62801,0,-0.75,-0.50,-0.12,0.098,-0.026,0.953,0.00,0.00,0.18,-0.64,0.93,-0.13,-0.01,-0.11,0.79,2.54,6.59,1.09,1100,1100,1100,1100,1035,1496,1505,12328,722
62813,0,0.39,-5.19,-0.00,0.098,-0.032,0.937,0.00,0.00,0.18,-0.67,-0.21,4.52,-0.01,-0.11,0.78,-0.24,16.19,0.78,1100,1100,1100,1100,1035,1496,1505,12315,722
62825,0,2.46,-1.24,0.84,0.121,-0.002,0.957,0.00,0.00,0.12,-0.77,-2.34,0.47,-0.01,-0.11,0.77,-4.82,-4.77,-1.32,1100,1100,1100,1100,1035,1496,1505,12315,722
62837,0,-2.25,4.52,-0.98,0.037,-0.003,1.015,0.00,0.00,0.14,-0.83,2.39,-5.34,-0.01,-0.11,0.79,4.44,-14.43,3.24,1100,1100,1100,1100,1035,1496,1505,12340,776
62849,0,-0.72,-5.00,-0.19,0.005,-0.055,0.992,0.00,0.00,0.17,-0.75,0.89,4.25,-0.01,-0.11,0.79,0.05,18.07,1.27,1100,1100,1100,1100,1035,1496,1505,12344,776
62861,0,0.74,-7.25,0.88,0.108,-0.055,0.940,0.00,0.00,0.22,-0.70,-0.52,6.55,-0.01,-0.11,0.78,-3.64,20.94,-1.43,1100,1100,1100,1100,1035,1496,1505,12332,776
62873,0,0.55,-9.39,0.54,0.168,-0.046,0.893,0.00,0.00,0.27,-0.65,-0.28,8.74,-0.01,-0.08,0.77,-1.14,4.00,-0.58,1100,1100,1100,1100,1035,1496,1505,12319,776
62885,0,-2.40,1.07,-0.43,0.169,-0.057,0.907,0.00,0.00,0.32,-0.90,2.72,-1.97,-0.01,-0.08,0.77,5.67,-17.28,1.84,1100,1100,1100,1100,1035,1496,1505,12319,776
62897,0,1.34,10.60,-0.73,0.102,-0.048,0.977,0.00,0.00,0.32,-1.17,-1.03,-11.77,-0.01,-0.10,0.78,-1.96,-37.02,2.61,1100,1100,1100,1100,1035,1496,1505,12319,776
62909,0,-0.07,4.62,-0.25,0.063,-0.040,0.973,0.00,0.00,0.30,-1.36,0.37,-5.97,-0.01,-0.11,0.79,0.71,3.59,1.42,1100,1100,1100,1100,1035,1496,1505,12323,776
62921,0,-0.52,-2.87,-0.01,0.070,0.004,1.027,0.00,0.00,0.27,-1.42,0.79,1.45,-0.01,-0.12,0.80,2.53,20.19,0.82,1100,1100,1100,1100,1035,1496,1505,12328,776
62933,0,-0.24,-2.37,-0.50,0.129,-0.032,0.932,0.00,0.00,0.25,-1.46,0.49,0.91,-0.01,-0.12,0.82,2.24,4.78,2.08,1100,1100,1100,1100,1035,1496,1505,12344,713
62945,0,3.67,-6.85,-0.78,0.187,-0.011,0.891,0.00,0.00,0.19,-1.55,-3.48,5.30,-0.01,-0.10,0.83,-5.49,6.97,2.77,1100,1100,1100,1100,1035,1496,1505,12336,713
62957,0,4.42,1.14,0.09,0.185,-0.015,0.915,0.00,0.00,0.13,-1.85,-4.29,-2.99,-0.01,-0.12,0.83,-5.70,-1.03,0.61,1100,1100,1100,1100,1035,1496,1505,12311,713
62969,0,1.93,0.86,-0.10,0.194,-0.015,0.913,0.00,0.00,0.09,-2.09,-1.84,-2.96,-0.01,-0.12,0.85,-0.97,-8.12,1.10,1100,1100,1100,1100,1035,1496,1505,12319,713
62981,0,-0.04,5.78,-1.56,0.054,-0.034,0.988,0.00,0.00,0.05,-2.32,0.10,-8.10,-0.02,-0.14,0.87,2.92,-7.14,4.78,1100,1100,1100,1100,1035,1497,1504,12328,713
62993,0,0.36,4.20,-0.24,0.024,-0.021,1.018,0.00,0.00,0.02,-2.37,-0.34,-6.57,-0.02,-0.15,0.88,-0.13,-7.36,1.48,1100,1100,1100,1100,1035,1497,1504,12336,713
63005,0,-0.57,2.84,-0.58,-0.004,-0.009,1.029,0.00,0.00,-0.03,-2.34,0.54,-5.17,-0.02,-0.16,0.90,2.17,-1.55,2.34,1100,1100,1100,1100,1036,1497,1504,12328,713
63017,0,-1.30,-3.92,-0.40,0.033,-0.012,0.994,0.00,0.00,-0.04,-2.27,1.26,1.64,-0.02,-0.17,0.91,1.99,15.85,1.91,1100,1100,1100,1100,1036,1497,1504,12332,713
63029,0,-1.64,1.84,-0.38,0.053,-0.017,0.985,0.00,0.00,-0.05,-2.24,1.59,-4.08,-0.01,-0.17,0.93,2.38,-16.83,1.87,1100,1100,1100,1100,1036,1497,1504,12344,713
63041,0,-1.39,-1.64,-1.41,0.023,-0.021,0.998,0.00,0.00,-0.05,-2.25,1.35,-0.61,-0.01,-0.18,0.95,0.79,11.27,4.48,1100,1100,1100,1100,1036,1496,1504,12344,713
63053,0,-1.62,4.55,-0.38,-0.023,-0.009,1.072,0.00,0.00,-0.04,-2.22,1.58,-6.77,-0.01,-0.19,0.97,1.00,-10.60,1.92,1100,1100,1100,1100,1036,1496,1504,12348,713
63065,0,-0.57,-6.06,-0.07,0.021,-0.030,1.002,0.00,0.00,0.01,-2.04,0.58,4.02,-0.01,-0.19,0.99,-1.08,19.13,1.17,1100,1100,1100,1100,1036,1496,1505,12344,713
63077,0,0.14,-6.59,-0.42,0.046,-0.050,0.982,0.00,0.00,0.05,-1.89,-0.09,4.70,-0.01,-0.18,0.99,-2.14,8.78,2.04,1100,1100,1100,1100,1036,1496,1505,12323,713
63089,0,1.23,-3.67,0.65,0.117,-0.035,0.959,0.00,0.00,0.07,-1.86,-1.16,1.81,-0.01,-0.17,0.98,-2.66,-1.76,-0.64,1100,1100,1100,1100,1035,1496,1505,12340,713
63101,0,2.75,0.19,0.01,0.107,-0.033,0.977,0.00,0.00,0.08,-1.95,-2.67,-2.14,-0.01,-0.18,0.99,-5.87,-7.57,0.96,1100,1100,1100,1100,1035,1496,1505,12332,713
63113,0,-0.07,6.89,-1.40,0.081,-0.020,0.988,0.00,0.00,0.05,-2.14,0.12,-9.04,-0.01,-0.19,1.01,1.89,-16.87,4.50,1100,1100,1100,1100,1035,1496,1505,12332,713
63125,0,2.92,4.91,-0.83,0.061,-0.031,0.975,0.00,0.00,0.00,-2.26,-2.92,-7.17,-0.01,-0.21,1.03,-3.09,-9.96,3.11,1100,1100,1100,1100,1035,1496,1505,12332,713
63137,0,0.20,3.14,-0.94,0.050,-0.045,0.977,0.00,0.00,-0.04,-2.33,-0.24,-5.47,-0.01,-0.22,1.06,2.52,-0.72,3.41,1100,1100,1100,1100,1035,1496,1505,12332,721
63149,0,0.70,-9.55,-0.22,0.157,-0.022,0.902,0.00,0.00,-0.08,-2.36,-0.79,7.19,-0.02,-0.21,1.06,3.39,23.81,1.60,1100,1100,1100,1100,1035,1496,1505,12328,721
63161,0,2.52,-1.61,0.23,0.206,-0.039,0.874,0.00,0.00,-0.12,-2.55,-2.64,-0.94,-0.02,-0.21,1.07,-1.40,-8.55,0.51,1100,1100,1100,1100,1035,1496,1505,12332,721
63173,0,0.07,-3.81,-1.27,0.191,-0.023,0.860,0.00,0.00,-0.16,-2.77,-0.24,1.04,-0.02,-0.21,1.09,3.28,1.72,4.27,1100,1100,1100,1100,1035,1496,1505,12319,721
63185,0,1.54,-0.09,-0.15,0.117,-0.009,0.936,0.00,0.00,-0.20,-2.97,-1.73,-2.88,-0.03,-0.22,1.10,-1.09,1.67,1.48,1100,1100,1100,1100,1035,1496,1505,12328,721
63197,0,-1.15,3.85,-0.92,0.053,-0.018,1.001,0.00,0.00,-0.19,-3.05,0.96,-6.91,-0.02,-0.23,1.15,1.25,-7.65,3.46,1100,1100,1100,1100,1035,1496,1505,12328,721
63209,0,0.45,2.75,-2.48,-0.015,0.011,1.043,0.00,0.00,-0.24,-3.01,-0.69,-5.76,-0.02,-0.25,1.19,-1.72,-1.56,7.40,1100,1100,1100,1100,1035,1496,1505,12328,721
63221,0,-0.17,0.71,-0.38,0.005,-0.012,1.024,0.00,0.00,-0.22,-2.92,-0.05,-3.63,-0.02,-0.26,1.22,-2.35,0.59,2.18,1100,1100,1100,1100,1035,1496,1505,12332,721
63233,0,-2.06,-1.32,-1.13,0.025,-0.011,1.024,0.00,0.00,-0.20,-2.81,1.86,-1.49,-0.02,-0.26,1.25,1.08,-2.23,4.09,1100,1100,1100,1100,1035,1496,1505,12323,721
63245,0,-2.96,0.03,-0.89,0.005,-0.031,1.019,0.00,0.00,-0.16,-2.79,2.80,-2.82,-0.02,-0.27,1.27,3.64,5.26,3.50,1100,1100,1100,1100,1035,1496,1505,12323,721
63257,0,-0.94,-2.03,-0.32,0.004,-0.045,1.041,0.00,0.00,-0.11,-2.66,0.83,-0.63,-0.02,-0.27,1.30,-1.36,2.43,2.11,1100,1100,1100,1100,1035,1496,1505,12307,721
63269,0,-2.50,-5.25,-1.02,0.022,-0.062,0.990,0.00,0.00,-0.07,-2.50,2.43,2.75,-0.02,-0.27,1.32,4.00,11.01,3.86,1100,1100,1100,1100,1035,1496,1505,12336,721
63281,0,0.18,-2.11,0.32,0.057,-0.035,0.965,0.00,0.00,-0.07,-2.40,-0.26,-0.28,-0.02,-0.27,1.31,-0.21,-9.84,0.52,1100,1100,1100,1100,1035,1496,1505,12344,721
63293,0,0.56,3.33,-0.10,0.079,-0.043,0.970,0.00,0.00,-0.08,-2.43,-0.64,-5.76,-0.02,-0.27,1.32,-0.17,-23.51,1.57,1100,1100,1100,1100,1036,1496,1505,12328,721
63305,0,-1.31,2.14,-0.64,0.072,-0.038,0.961,0.00,0.00,-0.07,-2.53,1.23,-4.67,-0.02,-0.28,1.32,3.80,-5.67,2.93,1100,1100,1100,1100,1036,1495,1505,12332,721
63317,0,1.13,-0.09,0.29,0.050,-0.044,1.007,0.00,0.00,-0.07,-2.61,-1.20,-2.52,-0.02,-0.29,1.33,-0.28,11.75,0.61,1100,1100,1100,1100,1036,1495,1505,12344,721
63329,0,1.75,-0.99,0.34,0.065,-0.057,0.996,0.00,0.00,-0.05,-2.64,-1.80,-1.65,-0.02,-0.30,1.33,-2.54,9.39,0.48,1100,1100,1100,1100,1036,1495,1505,12352,718
63341,0,2.46,-4.73,-0.53,0.112,-0.025,0.948,0.00,0.00,-0.08,-2.58,-2.54,2.15,-0.02,-0.30,1.34,-2.47,6.02,2.67,1100,1100,1100,1100,1036,1496,1505,12344,718
63353,0,2.57,-7.10,0.31,0.150,-0.035,0.914,0.00,0.00,-0.07,-2.60,-2.64,4.50,-0.02,-0.29,1.33,-3.44,6.75,0.55,1100,1100,1100,1100,1036,1496,1505,12348,718
63365,0,-1.01,-3.38,-0.61,0.186,-0.006,0.895,0.00,0.00,-0.07,-2.71,0.94,0.67,-0.02,-0.28,1.35,2.42,-7.34,2.88,1100,1100,1100,1100,1035,1496,1505,12344,718
63377,0,-1.62,3.82,-1.32,0.057,-0.024,0.974,0.00,0.00,-0.07,-2.82,1.55,-6.64,-0.02,-0.29,1.36,3.00,-21.69,4.67,1100,1100,1100,1100,1035,1496,1505,12336,718
63389,0,-0.95,1.61,-0.29,0.024,-0.018,0.975,0.00,0.00,-0.05,-2.88,0.90,-4.49,-0.02,-0.30,1.38,-1.22,-2.89,2.12,1100,1100,1100,1100,1035,1496,1505,12311,718
63401,0,-2.68,-0.02,-1.25,-0.003,-0.009,1.017,0.00,0.00,-0.05,-2.76,2.63,-2.74,-0.02,-0.31,1.41,3.01,-2.06,4.55,1100,1100,1100,1100,1035,1496,1505,12311,718
63413,0,-3.05,-4.62,-0.53,0.010,-0.031,0.998,0.00,0.00,-0.01,-2.64,3.05,1.98,-0.02,-0.31,1.43,3.22,11.52,2.76,1100,1100,1100,1100,1035,1496,1505,12315,718
63425,0,-2.77,-3.07,-0.35,0.077,-0.028,0.952,0.00,0.00,0.01,-2.57,2.78,0.51,-0.02,-0.31,1.44,2.93,-0.81,2.32,1100,1100,1100,1100,1035,1496,1505,12328,718
63437,0,-0.58,-3.15,-0.70,0.030,-0.034,0.979,0.00,0.00,0.02,-2.47,0.60,0.68,-0.01,-0.31,1.46,-1.01,2.22,3.21,1100,1100,1100,1100,1035,1496,1505,12319,714
63449,0,-0.19,3.38,0.04,-0.027,-0.014,1.054,0.00,0.00,0.04,-2.41,0.23,-5.79,-0.01,-0.31,1.46,-1.91,-15.95,1.36,1100,1100,1100,1100,1035,1496,1505,12298,714
63461,0,-0.14,-7.86,0.32,0.037,-0.039,0.983,0.00,0.00,0.10,-2.20,0.23,5.67,-0.01,-0.31,1.47,-0.72,16.67,0.66,1100,1100,1100,1100,1035,1496,1505,12311,714
63473,0,0.65,-5.98,-0.04,0.013,-0.079,1.006,0.00,0.00,0.15,-2.04,-0.51,3.95,-0.01,-0.30,1.46,-1.88,10.54,1.55,1100,1100,1100,1100,1035,1496,1505,12311,714
63485,0,3.13,-4.82,0.80,0.084,-0.028,0.975,0.00,0.00,0.14,-1.98,-3.00,2.84,-0.01,-0.30,1.45,-4.18,4.31,-0.55,1100,1100,1100,1100,1035,1496,1505,12303,714
63497,0,1.86,4.69,0.10,0.041,-0.053,1.024,0.00,0.00,0.14,-2.03,-1.72,-6.71,-0.02,-0.31,1.46,-1.21,-18.53,1.21,1100,1100,1100,1100,1035,1496,1505,12332,714
63509,0,2.33,0.44,-0.67,0.015,-0.033,0.996,0.00,0.00,0.09,-2.04,-2.24,-2.48,-0.02,-0.32,1.47,-1.20,5.38,3.14,1100,1100,1100,1100,1035,1496,1505,12328,714
63521,0,4.13,5.36,-0.39,-0.015,-0.014,1.057,0.00,0.00,0.04,-1.99,-4.09,-7.35,-0.02,-0.33,1.47,-5.46,-19.22,2.46,1100,1100,1100,1100,1035,1496,1505,12323,714
63533,0,0.48,4.03,-0.56,0.012,-0.025,1.030,0.00,0.00,0.03,-1.98,-0.46,-6.01,-0.02,-0.34,1.50,0.69,-6.78,2.89,1100,1100,1100,1100,1035,1496,1505,12319,717
63545,0,-2.74,2.02,-1.30,-0.012,-0.000,1.044,0.00,0.00,-0.02,-1.97,2.72,-3.99,-0.02,-0.35,1.51,7.79,2.85,4.77,1100,1100,1100,1100,1035,1496,1505,12315,717
63557,0,-0.88,5.86,-0.25,-0.049,-0.017,1.074,0.00,0.00,-0.04,-1.99,0.83,-7.85,-0.02,-0.37,1.53,1.57,-5.34,2.16,1100,1100,1100,1100,1035,1496,1505,12290,717
63569,0,-1.05,1.02,-1.19,-0.045,-0.010,1.042,0.00,0.00,-0.08,-1.88,0.97,-2.90,-0.02,-0.38,1.56,0.44,5.49,4.55,1100,1100,1100,1100,1035,1495,1505,12315,717
63581,0,0.01,-3.94,-0.09,-0.033,0.002,1.025,0.00,0.00,-0.09,-1.67,-0.10,2.27,-0.02,-0.38,1.56,-1.66,10.79,1.78,1100,1100,1100,1100,1035,1495,1505,12311,717
63593,0,-1.74,-6.62,0.07,0.044,-0.033,0.962,0.00,0.00,-0.05,-1.49,1.69,5.13,-0.02,-0.37,1.58,1.40,8.88,1.41,1100,1100,1100,1100,1035,1495,1505,12311,717
63605,0,-2.81,-1.11,-1.69,0.021,-0.047,1.005,0.00,0.00,-0.03,-1.36,2.78,-0.25,-0.02,-0.36,1.59,4.53,-15.56,5.83,1100,1100,1100,1100,1035,1495,1505,12307,717
63617,0,0.13,-2.42,0.15,0.051,-0.035,0.953,0.00,0.00,0.01,-1.36,-0.12,1.06,-0.02,-0.36,1.60,-2.22,5.79,1.22,1100,1100,1100,1100,1035,1495,1505,12323,717
63629,0,0.47,0.87,-0.43,0.067,-0.025,0.995,0.00,0.00,0.02,-1.36,-0.45,-2.23,-0.02,-0.36,1.63,-1.55,-10.41,2.72,1100,1100,1100,1100,1036,1495,1505,12319,720
63641,0,-0.40,4.01,-0.70,0.026,-0.025,1.013,0.00,0.00,0.02,-1.45,0.42,-5.46,-0.02,-0.38,1.65,1.25,-3.02,3.39,1100,1100,1100,1100,1036,1488,1505,12319,720
63653,0,3.08,2.45,-0.13,0.057,-0.003,0.999,0.00,0.00,-0.04,-1.53,-3.12,-3.98,-0.02,-0.39,1.67,-4.95,-1.38,1.99,1100,1100,1100,1100,1036,1488,1505,12328,720
63665,0,2.32,5.08,-1.14,0.065,-0.022,0.990,0.00,0.00,-0.08,-1.61,-2.40,-6.69,-0.02,-0.40,1.69,-3.27,-9.27,4.54,1100,1100,1100,1100,1036,1495,1505,12323,720
63677,0,-0.36,-0.76,-0.14,0.049,-0.010,0.979,0.00,0.00,-0.15,-1.64,0.22,-0.88,-0.02,-0.41,1.69,3.62,8.38,2.04,1100,1100,1100,1100,1036,1495,1505,12328,720
63689,0,0.97,0.74,-0.36,0.047,-0.020,0.980,0.00,0.00,-0.17,-1.68,-1.15,-2.42,-0.02,-0.41,1.71,-0.58,-2.60,2.59,1100,1100,1100,1100,1035,1496,1505,12311,720
63701,0,-0.53,-6.28,-0.45,0.084,-0.038,0.919,0.00,0.00,-0.16,-1.59,0.37,4.69,-0.02,-0.40,1.70,0.79,10.05,2.83,1100,1100,1100,1100,1035,1496,1505,12307,720
63713,0,-2.13,-8.62,0.23,0.083,-0.023,0.920,0.00,0.00,-0.14,-1.53,1.99,7.10,-0.02,-0.39,1.70,4.14,16.09,1.12,1100,1100,1100,1100,1035,1496,1505,12290,720
63725,0,-2.01,-7.03,0.20,0.104,-0.059,0.911,0.00,0.00,-0.07,-1.48,1.94,5.55,-0.02,-0.38,1.69,1.77,3.54,1.19,1100,1100,1100,1100,1035,1496,1505,12298,720
63737,0,-2.75,-3.20,0.07,0.082,-0.036,0.929,0.00,0.00,-0.01,-1.45,2.74,1.75,-0.02,-0.37,1.69,2.09,-8.52,1.52,1100,1100,1100,1100,1035,1496,1505,12311,717
63749,0,-0.56,4.16,0.13,0.009,-0.012,1.013,0.00,0.00,0.02,-1.48,0.57,-5.64,-0.02,-0.38,1.69,-2.35,-19.08,1.37,1100,1100,1100,1100,1035,1496,1505,12332,717
63761,0,-1.65,0.90,0.36,0.029,-0.029,0.991,0.00,0.00,0.08,-1.45,1.72,-2.35,-0.01,-0.38,1.71,-0.63,-3.76,0.80,1100,1100,1100,1100,1035,1496,1505,12323,717
63773,0,-1.46,1.59,-1.44,-0.032,-0.036,1.067,0.00,0.00,0.11,-1.40,1.58,-2.99,-0.01,-0.40,1.73,0.15,5.31,5.34,1100,1100,1100,1100,1035,1496,1505,12328,717
63785,0,-0.58,-3.80,-0.24,0.044,-0.036,0.992,0.00,0.00,0.15,-1.31,0.73,2.49,-0.01,-0.39,1.73,-0.17,7.51,2.33,1100,1100,1100,1100,1035,1496,1505,12332,717
63797,0,1.21,2.00,0.01,0.041,-0.047,0.992,0.00,0.00,0.16,-1.26,-1.05,-3.26,-0.01,-0.39,1.75,-2.21,-14.12,1.72,1100,1100,1100,1100,1035,1496,1505,12319,717
63809,0,1.88,-0.02,-0.46,0.025,-0.046,1.007,0.00,0.00,0.16,-1.28,-1.72,-1.26,-0.01,-0.40,1.75,-2.45,1.78,2.89,1100,1100,1100,1100,1035,1496,1505,12352,717
63821,0,2.52,1.11,-0.14,0.054,-0.023,0.984,0.00,0.00,0.11,-1.30,-2.41,-2.41,-0.01,-0.40,1.76,-0.96,-5.17,2.12,1100,1100,1100,1100,1035,1496,1505,12344,717
63833,0,2.45,-0.98,-1.63,0.087,-0.049,0.956,0.00,0.00,0.08,-1.35,-2.37,-0.37,-0.02,-0.41,1.78,-0.97,7.33,5.85,1100,1100,1100,1100,1035,1496,1505,12357,717
63845,0,0.71,4.96,-0.58,-0.002,-0.033,1.024,0.00,0.00,0.00,-1.40,-0.71,-6.36,-0.02,-0.41,1.78,3.76,-17.30,3.23,1100,1100,1100,1100,1035,1496,1505,12357,717
63857,0,2.52,-3.30,0.34,0.082,-0.005,0.976,0.00,0.00,-0.07,-1.45,-2.58,1.85,-0.02,-0.42,1.81,-0.64,21.14,0.97,1100,1100,1100,1100,1035,1496,1505,12344,717
63869,0,-0.14,7.23,-1.22,-0.023,-0.023,1.050,0.00,0.00,-0.14,-1.48,-0.00,-8.71,-0.02,-0.43,1.83,3.34,-20.53,4.88,1100,1100,1100,1100,1035,1496,1505,12344,717
63881,0,0.72,-2.16,0.20,0.025,0.020,0.985,0.00,0.00,-0.22,-1.46,-0.94,0.70,-0.03,-0.44,1.83,-0.04,14.48,1.34,1100,1100,1100,1100,1035,1495,1505,12332,717
63893,0,-1.31,-3.37,0.34,0.021,-0.017,1.013,0.00,0.00,-0.21,-1.36,1.10,2.02,-0.02,-0.44,1.84,0.88,9.54,0.98,1100,1100,1100,1100,1035,1495,1505,12307,717
63905,0,-2.82,-0.52,-0.37,-0.001,0.003,1.018,0.00,0.00,-0.21,-1.26,2.61,-0.74,-0.02,-0.44,1.84,2.61,-2.78,2.77,1100,1100,1100,1100,1035,1495,1505,12319,717
63917,0,-0.25,-1.61,0.41,-0.004,-0.001,1.017,0.00,0.00,-0.17,-1.11,0.07,0.50,-0.02,-0.44,1.83,-3.54,-5.70,0.82,1100,1100,1100,1100,1035,1495,1505,12328,717
63929,0,-1.66,4.46,-0.11,-0.057,-0.038,1.065,0.00,0.00,-0.12,-1.02,1.53,-5.48,-0.02,-0.44,1.85,-1.51,-18.37,2.13,1100,1100,1100,1100,1035,1495,1505,12328,718
63941,0,-2.51,3.25,-0.91,-0.093,-0.021,1.105,0.00,0.00,-0.09,-0.92,2.42,-4.17,-0.02,-0.45,1.86,2.57,1.87,4.15,1100,1100,1100,1100,1035,1496,1504,12332,718
63953,0,-0.54,6.03,-0.58,-0.135,-0.050,1.156,0.00,0.00,-0.06,-0.82,0.48,-6.85,-0.01,-0.47,1.88,-0.69,-4.85,3.34,1100,1100,1100,1100,1036,1496,1504,12311,718
63965,0,-1.36,-3.72,-1.26,-0.038,-0.038,1.056,0.00,0.00,-0.04,-0.61,1.32,3.11,-0.01,-0.47,1.90,1.75,19.72,5.06,1100,1100,1100,1100,1036,1496,1504,12307,718
63977,0,0.58,2.46,-0.32,-0.083,-0.062,1.075,0.00,0.00,-0.04,-0.45,-0.61,-2.91,-0.02,-0.47,1.90,0.01,-11.55,2.70,1100,1100,1100,1100,1036,1496,1504,12307,718
63989,0,1.68,-1.06,0.17,-0.005,-0.040,1.014,0.00,0.00,-0.02,-0.32,-1.70,0.74,-0.02,-0.47,1.92,-3.29,-0.67,1.50,1100,1100,1100,1100,1035,1496,1505,12332,718
64001,0,0.27,2.28,-1.20,-0.053,-0.042,1.062,0.00,0.00,-0.04,-0.20,-0.31,-2.48,-0.02,-0.47,1.94,2.05,-8.67,4.93,1100,1100,1100,1100,1035,1496,1505,12328,718
64013,0,0.92,1.10,-0.36,-0.057,-0.032,1.082,0.00,0.00,-0.07,-0.16,-0.98,-1.26,-0.02,-0.48,1.95,0.18,6.71,2.86,1100,1100,1100,1100,1035,1496,1505,12311,718
64025,0,0.42,2.90,-0.76,-0.032,-0.035,1.065,0.00,0.00,-0.10,-0.07,-0.52,-2.96,-0.02,-0.49,1.98,1.53,-7.03,3.87,1100,1100,1100,1100,1035,1496,1505,12311,718
64037,0,1.69,-2.19,-0.26,0.002,-0.007,1.020,0.00,0.00,-0.15,0.00,-1.84,2.19,-0.02,-0.49,1.99,-2.24,14.50,2.63,1100,1100,1100,1100,1035,1496,1505,12311,717
64049,0,0.36,5.12,-0.08,-0.015,-0.002,1.034,0.00,0.00,-0.18,0.03,-0.54,-5.09,-0.02,-0.49,2.01,0.09,-18.25,2.21,1100,1100,1100,1100,1035,1496,1505,12315,717
64061,0,0.78,-0.83,-0.45,0.038,-0.035,0.974,0.00,0.00,-0.16,0.08,-0.94,0.91,-0.02,-0.49,2.02,-2.86,5.06,3.15,1100,1100,1100,1100,1035,1496,1505,12323,717
64073,0,-1.49,-1.78,-0.59,0.005,-0.032,0.987,0.00,0.00,-0.13,0.14,1.36,1.92,-0.02,-0.49,2.03,1.60,6.93,3.51,1100,1100,1100,1100,1035,1496,1505,12273,717
64085,0,-0.89,2.94,-0.73,0.004,-0.006,1.021,0.00,0.00,-0.10,0.16,0.79,-2.78,-0.02,-0.49,2.04,0.10,-14.90,3.87,1100,1100,1100,1100,1035,1496,1505,12282,717
64097,0,-1.41,-0.72,-0.03,-0.004,-0.032,1.006,0.00,0.00,-0.07,0.22,1.33,0.94,-0.02,-0.49,2.04,0.24,6.33,2.11,1100,1100,1100,1100,1035,1496,1505,12273,717
64109,0,-2.04,-0.50,0.03,-0.010,-0.008,1.046,0.00,0.00,-0.08,0.26,1.97,0.76,-0.02,-0.50,2.04,2.22,8.04,1.97,1100,1100,1100,1100,1035,1496,1505,12286,717
64121,0,-0.90,7.24,0.06,-0.053,-0.021,1.099,0.00,0.00,-0.07,0.29,0.83,-6.95,-0.02,-0.50,2.04,-0.27,-22.28,1.89,1100,1100,1100,1100,1035,1496,1505,12290,717
64133,0,-0.49,5.45,-0.78,-0.065,-0.018,1.118,0.00,0.00,-0.08,0.28,0.41,-5.17,-0.01,-0.52,2.06,-1.85,-3.71,4.01,1100,1100,1100,1100,1035,1496,1505,12307,717
64145,0,-0.07,6.70,-0.10,-0.057,-0.004,1.125,0.00,0.00,-0.09,0.24,-0.02,-6.46,-0.01,-0.54,2.06,-1.04,0.48,2.31,1100,1100,1100,1100,1035,1496,1505,12315,717
64157,0,-0.64,2.21,0.33,-0.030,-0.050,1.097,0.00,0.00,-0.06,0.32,0.59,-1.89,-0.01,-0.54,2.08,0.37,2.77,1.24,1100,1100,1100,1100,1035,1496,1505,12319,717
64169,0,-0.39,0.68,-1.13,-0.020,-0.038,1.087,0.00,0.00,-0.08,0.35,0.31,-0.33,-0.01,-0.55,2.09,1.72,9.09,4.91,1100,1100,1100,1100,1035,1496,1505,12323,717
64181,0,0.73,2.22,0.08,0.017,-0.026,1.044,0.00,0.00,-0.10,0.35,-0.82,-1.87,-0.02,-0.55,2.10,0.26,-2.89,1.89,1100,1100,1100,1100,1035,1495,1505,12315,717
64193,0,1.39,1.93,-0.16,0.049,-0.040,1.014,0.00,0.00,-0.10,0.32,-1.49,-1.61,-0.02,-0.55,2.12,-1.37,-2.67,2.51,1100,1100,1100,1100,1035,1495,1505,12298,717
64205,0,0.38,-0.08,-0.94,0.011,-0.049,1.010,0.00,0.00,-0.08,0.31,-0.46,0.39,-0.02,-0.56,2.13,0.12,7.97,4.49,1100,1100,1100,1100,1035,1495,1505,12303,717
64217,0,2.90,1.42,-0.11,-0.004,-0.030,1.040,0.00,0.00,-0.10,0.37,-3.00,-1.05,-0.02,-0.55,2.15,-3.81,-8.74,2.43,1100,1100,1100,1100,1035,1495,1505,12298,717
64229,0,1.93,2.31,-1.22,0.002,-0.038,1.040,0.00,0.00,-0.11,0.42,-2.04,-1.89,-0.02,-0.55,2.17,-2.55,-6.70,5.23,1100,1100,1100,1100,1036,1496,1505,12303,717
64241,0,-0.21,-4.11,-0.25,0.018,0.010,1.015,0.00,0.00,-0.18,0.49,0.03,4.60,-0.02,-0.55,2.18,2.73,11.96,2.80,1100,1100,1100,1100,1036,1496,1504,12311,717
64253,0,-0.89,7.34,-0.70,-0.019,-0.032,1.054,0.00,0.00,-0.19,0.43,0.70,-6.91,-0.02,-0.56,2.20,3.41,-16.43,3.96,1100,1100,1100,1100,1036,1496,1504,12311,717
64265,0,0.61,2.67,-1.43,-0.018,-0.043,1.034,0.00,0.00,-0.20,0.42,-0.81,-2.25,-0.02,-0.57,2.22,-2.03,0.93,5.80,1100,1100,1100,1100,1035,1495,1504,12315,717
64277,0,-0.16,7.87,0.05,-0.061,-0.021,1.105,0.00,0.00,-0.22,0.40,-0.06,-7.46,-0.02,-0.58,2.24,1.42,-13.94,2.11,1100,1100,1100,1100,1035,1495,1504,12319,717
64289,0,-0.08,-9.10,0.35,0.061,-0.051,0.978,0.00,0.00,-0.16,0.49,-0.07,9.58,-0.02,-0.57,2.25,-0.80,38.29,1.38,1100,1100,1100,1100,1035,1495,1505,12307,717
64301,0,-1.42,-0.77,-0.44,0.007,-0.032,1.022,0.00,0.00,-0.18,0.61,1.23,1.39,-0.02,-0.56,2.25,2.93,-13.37,3.34,1100,1100,1100,1100,1035,1496,1505,12303,717
64313,0,0.61,-1.45,-0.16,0.026,-0.013,1.009,0.00,0.00,-0.15,0.63,-0.76,2.08,-0.02,-0.56,2.25,-2.65,3.92,2.65,1100,1100,1100,1100,1035,1496,1505,12311,717
64325,0,-0.62,-1.37,-0.19,0.045,-0.061,0.981,0.00,0.00,-0.09,0.69,0.53,2.06,-0.02,-0.55,2.26,-1.34,-8.25,2.73,1100,1100,1100,1100,1035,1496,1505,12311,717
64337,0,-1.03,-6.21,-0.39,0.048,-0.044,0.958,0.00,0.00,-0.03,0.77,1.00,6.98,-0.02,-0.54,2.27,0.55,13.81,3.25,1100,1100,1100,1100,1035,1496,1505,12311,718
64349,0,-0.20,1.07,-0.57,0.004,-0.070,1.030,0.00,0.00,0.05,0.79,0.25,-0.28,-0.02,-0.53,2.30,-0.69,-11.07,3.72,1100,1100,1100,1100,1035,1496,1505,12311,718
64361,0,-1.28,-0.17,-1.74,0.071,-0.041,0.973,0.00,0.00,0.08,0.76,1.36,0.93,-0.02,-0.53,2.33,1.99,0.20,6.67,1100,1100,1100,1100,1035,1496,1505,12307,718
64373,0,1.42,4.75,-1.24,-0.003,-0.026,1.043,0.00,0.00,0.05,0.71,-1.37,-4.04,-0.02,-0.54,2.35,-1.31,-12.81,5.45,1100,1100,1100,1100,1035,1496,1505,12307,718
64385,0,1.33,5.09,-0.44,0.029,-0.028,1.011,0.00,0.00,0.04,0.61,-1.29,-4.48,-0.02,-0.55,2.39,-2.19,-7.91,3.48,1100,1100,1100,1100,1035,1496,1505,12303,718
64397,0,0.59,0.23,-1.20,0.022,-0.008,1.012,0.00,0.00,-0.01,0.61,-0.60,0.39,-0.02,-0.55,2.41,0.88,5.60,5.40,1100,1100,1100,1100,1035,1496,1505,12311,718
64409,0,0.72,1.08,-0.24,-0.021,-0.022,1.042,0.00,0.00,-0.06,0.58,-0.78,-0.50,-0.02,-0.55,2.43,0.26,7.30,3.02,1100,1100,1100,1100,1035,1496,1505,12328,718
64421,0,0.95,-1.66,-0.59,0.039,-0.013,1.007,0.00,0.00,-0.11,0.66,-1.06,2.32,-0.02,-0.54,2.45,-0.46,1.54,3.93,1100,1100,1100,1100,1035,1496,1505,12319,718
64433,0,1.56,-3.09,-0.43,0.017,-0.016,1.012,0.00,0.00,-0.15,0.72,-1.71,3.82,-0.03,-0.54,2.46,-2.01,8.86,3.53,1100,1100,1100,1100,1035,1496,1505,12311,713
64445,0,1.22,3.98,-0.53,-0.009,0.012,1.049,0.00,0.00,-0.20,0.71,-1.42,-3.27,-0.03,-0.54,2.48,-1.43,-13.68,3.80,1100,1100,1100,1100,1035,1496,1505,12307,713
64457,0,0.62,5.61,-1.34,-0.025,-0.019,1.061,0.00,0.00,-0.21,0.74,-0.83,-4.87,-0.03,-0.55,2.52,-0.98,-13.25,5.86,1100,1100,1100,1100,1035,1496,1505,12282,713
64469,0,-1.09,1.00,-1.08,-0.072,-0.037,1.073,0.00,0.00,-0.22,0.80,0.87,-0.20,-0.03,-0.56,2.55,1.89,10.50,5.25,1100,1100,1100,1100,1035,1496,1505,12282,713
64481,0,-0.34,0.69,-0.95,-0.034,-0.018,1.070,0.00,0.00,-0.21,0.88,0.13,0.20,-0.03,-0.56,2.58,0.11,4.06,4.95,1100,1100,1100,1100,1035,1497,1504,12290,713
64493,0,-0.73,-1.41,-0.94,-0.011,-0.035,1.048,0.00,0.00,-0.19,1.01,0.54,2.42,-0.03,-0.55,2.60,-0.27,4.53,4.94,1100,1100,1100,1100,1035,1497,1504,12298,713
64505,0,-2.39,-1.77,-0.34,0.011,0.002,1.037,0.00,0.00,-0.20,1.07,2.19,2.84,-0.02,-0.55,2.61,3.44,1.89,3.46,1100,1100,1100,1100,1035,1496,1505,12307,713
64517,0,-1.03,0.65,-0.00,0.019,-0.046,1.009,0.00,0.00,-0.17,1.11,0.86,0.46,-0.02,-0.54,2.61,0.24,-9.63,2.62,1100,1100,1100,1100,1035,1496,1505,12290,713
64529,0,-2.44,-0.95,-0.65,-0.013,-0.057,1.038,0.00,0.00,-0.12,1.15,2.32,2.10,-0.02,-0.54,2.63,1.18,5.41,4.26,1100,1100,1100,1100,1036,1496,1504,12286,711
64541,0,-2.86,-0.69,-0.16,0.002,-0.012,1.053,0.00,0.00,-0.07,1.19,2.79,1.88,-0.02,-0.54,2.63,3.58,1.45,3.01,1100,1100,1100,1100,1036,1496,1504,12290,711
64553,0,-1.31,-0.12,0.66,0.018,-0.066,1.006,0.00,0.00,0.01,1.26,1.32,1.38,-0.02,-0.53,2.63,0.76,-8.15,0.99,1100,1100,1100,1100,1036,1496,1504,12286,711
64565,0,-1.04,0.91,-0.85,-0.012,-0.057,1.030,0.00,0.00,0.02,1.32,1.06,0.41,-0.02,-0.52,2.64,0.54,-4.54,4.77,1100,1100,1100,1100,1036,1496,1504,12290,711
64577,0,0.70,-1.79,-0.22,-0.006,-0.016,1.022,0.00,0.00,0.01,1.36,-0.69,3.15,-0.02,-0.52,2.65,-1.17,8.88,3.19,1100,1100,1100,1100,1036,1496,1504,12278,711
64589,0,1.18,6.43,-0.75,-0.031,-0.037,1.072,0.00,0.00,0.01,1.37,-1.17,-5.06,-0.02,-0.53,2.68,-1.63,-15.00,4.56,1100,1100,1100,1100,1035,1496,1505,12315,711
64601,0,0.93,4.06,-0.92,-0.084,-0.037,1.099,0.00,0.00,0.00,1.41,-0.93,-2.65,-0.02,-0.54,2.69,-0.55,2.50,4.98,1100,1100,1100,1100,1035,1496,1505,12323,711
64613,0,4.93,2.99,0.58,-0.079,-0.019,1.109,0.00,0.00,-0.05,1.52,-4.97,-1.48,-0.02,-0.54,2.69,-6.68,-2.40,1.23,1100,1100,1100,1100,1035,1496,1505,12340,711
64625,0,3.48,2.77,-0.50,-0.026,-0.028,1.078,0.00,0.00,-0.09,1.56,-3.57,-1.21,-0.03,-0.54,2.70,-3.87,0.81,3.95,1100,1100,1100,1100,1035,1496,1505,12328,711
64637,0,-0.54,3.14,-0.53,-0.061,-0.010,1.075,0.00,0.00,-0.16,1.62,0.38,-1.52,-0.03,-0.55,2.71,4.80,-1.21,4.04,1100,1100,1100,1100,1035,1496,1505,12311,713
64649,0,1.29,-0.50,-0.27,-0.043,-0.026,1.060,0.00,0.00,-0.18,1.72,-1.47,2.22,-0.03,-0.54,2.72,-1.07,5.70,3.40,1100,1100,1100,1100,1035,1496,1505,12311,713
64661,0,-0.84,-9.63,-0.65,0.056,-0.053,0.984,0.00,0.00,-0.15,1.89,0.68,11.52,-0.03,-0.53,2.73,0.34,26.51,4.35,1100,1100,1100,1100,1035,1496,1505,12315,713
64673,0,-4.13,-7.74,0.56,0.079,-0.014,0.941,0.00,0.00,-0.13,2.00,4.01,9.73,-0.03,-0.50,2.72,7.16,0.88,1.33,1100,1100,1100,1100,1035,1496,1505,12328,713
64685,0,-1.08,-3.29,-0.71,0.090,-0.037,0.934,0.00,0.00,-0.09,1.98,0.99,5.27,-0.02,-0.48,2.74,-0.00,-10.70,4.52,1100,1100,1100,1100,1035,1496,1505,12319,713
64697,0,-3.47,-3.37,-0.60,0.083,-0.028,0.940,0.00,0.00,-0.05,1.94,3.42,5.30,-0.02,-0.47,2.74,2.71,1.66,4.23,1100,1100,1100,1100,1035,1496,1505,12332,713
64709,0,-2.06,-1.53,0.46,0.032,-0.016,0.974,0.00,0.00,-0.02,1.91,2.04,3.43,-0.02,-0.46,2.74,2.60,-1.26,1.60,1100,1100,1100,1100,1035,1496,1505,12303,713
64721,0,0.77,2.09,0.20,0.070,-0.056,0.969,0.00,0.00,0.03,1.80,-0.74,-0.29,-0.02,-0.46,2.75,-4.45,-2.76,2.25,1100,1100,1100,1100,1035,1496,1505,12307,713
64733,0,0.02,1.51,-0.24,0.033,-0.007,1.002,0.00,0.00,0.00,1.77,-0.02,0.26,-0.02,-0.46,2.75,-0.44,-6.70,3.34,1100,1100,1100,1100,1035,1496,1505,12273,710
64745,0,3.21,7.09,-0.27,0.002,0.001,1.058,0.00,0.00,-0.05,1.60,-3.26,-5.49,-0.02,-0.47,2.75,-4.44,-5.65,3.44,1100,1100,1100,1100,1035,1496,1505,12290,710
64757,0,0.53,5.13,-0.07,-0.001,-0.028,1.054,0.00,0.00,-0.09,1.56,-0.61,-3.57,-0.02,-0.48,2.76,0.08,-4.15,2.94,1100,1100,1100,1100,1035,1496,1505,12303,710
64769,0,0.39,-2.00,-0.39,-0.043,-0.015,1.064,0.00,0.00,-0.14,1.63,-0.53,3.63,-0.02,-0.48,2.77,1.37,19.35,3.74,1100,1100,1100,1100,1035,1496,1505,12311,710
64781,0,3.59,-2.54,0.34,0.035,-0.023,1.003,0.00,0.00,-0.17,1.69,-3.75,4.23,-0.03,-0.47,2.77,-5.37,5.51,1.93,1100,1100,1100,1100,1035,1496,1505,12311,710
64793,0,2.83,-3.36,-0.38,0.105,-0.022,0.962,0.00,0.00,-0.19,1.76,-3.01,5.12,-0.03,-0.45,2.78,-3.36,-5.66,3.74,1100,1100,1100,1100,1035,1496,1505,12290,710
64805,0,-0.05,-1.89,-1.15,0.059,-0.029,0.945,0.00,0.00,-0.23,1.68,-0.18,3.57,-0.03,-0.45,2.80,3.62,2.15,5.67,1100,1100,1100,1100,1035,1496,1505,12303,710
64817,0,1.67,-4.69,-1.23,0.098,-0.011,0.946,0.00,0.00,-0.27,1.61,-1.94,6.30,-0.03,-0.43,2.84,-1.41,9.80,5.92,1100,1100,1100,1100,1035,1496,1505,12311,710
64829,0,-0.79,0.67,-1.32,0.062,-0.027,0.988,0.00,0.00,-0.29,1.59,0.50,0.93,-0.03,-0.43,2.87,1.94,-10.76,6.18,1100,1100,1100,1100,1036,1496,1505,12311,711
64841,0,-3.72,-6.89,-1.21,0.103,-0.036,0.901,0.00,0.00,-0.27,1.56,3.45,8.45,-0.03,-0.41,2.90,7.07,12.39,5.91,1100,1100,1100,1100,1036,1496,1505,12311,711
64853,0,0.89,3.48,-1.23,0.025,-0.033,1.008,0.00,0.00,-0.26,1.53,-1.15,-1.95,-0.03,-0.40,2.93,-2.80,-26.01,6.01,1100,1100,1100,1100,1035,1496,1505,12323,711
64865,0,-2.34,-0.53,-0.70,0.007,-0.049,1.011,0.00,0.00,-0.22,1.49,2.12,2.01,-0.03,-0.41,2.95,2.07,15.86,4.70,1100,1100,1100,1100,1035,1496,1505,12311,711
64877,0,-1.14,2.03,0.02,-0.025,0.004,1.044,0.00,0.00,-0.25,1.55,0.89,-0.48,-0.03,-0.40,2.97,1.75,-11.30,2.91,1100,1100,1100,1100,1035,1496,1505,12319,711
64889,0,-0.09,0.52,-0.25,0.041,-0.044,1.014,0.00,0.00,-0.20,1.58,-0.11,1.07,-0.03,-0.40,2.98,-1.20,-1.81,3.61,1100,1100,1100,1100,1035,1496,1505,12311,711
64901,0,-1.72,1.16,-0.70,0.005,-0.043,1.032,0.00,0.00,-0.22,1.57,1.50,0.40,-0.03,-0.40,2.99,2.85,-3.35,4.75,1100,1100,1100,1100,1035,1496,1505,12303,711
64913,0,2.28,4.61,-0.17,0.033,0.018,1.037,0.00,0.00,-0.26,1.45,-2.54,-3.16,-0.03,-0.40,3.00,-3.28,-3.39,3.43,1100,1100,1100,1100,1035,1496,1505,12278,711
64925,0,2.42,-3.08,0.45,0.087,-0.040,0.979,0.00,0.00,-0.26,1.44,-2.68,4.52,-0.03,-0.40,3.00,-4.96,12.73,1.89,1100,1100,1100,1100,1035,1496,1505,12290,711
64937,0,-0.97,-5.35,-0.02,0.090,-0.029,0.924,0.00,0.00,-0.27,1.44,0.70,6.80,-0.03,-0.39,3.00,2.69,11.34,3.05,1100,1100,1100,1100,1035,1496,1505,12303,717
64949,0,3.39,-7.89,0.67,0.144,-0.049,0.894,0.00,0.00,-0.26,1.43,-3.65,9.32,-0.03,-0.36,2.98,-5.14,6.97,1.31,1100,1100,1100,1100,1035,1496,1505,12282,717
64961,0,-0.41,-3.53,0.04,0.173,-0.044,0.907,0.00,0.00,-0.23,1.29,0.18,4.82,-0.03,-0.35,2.98,1.20,-4.08,2.88,1100,1100,1100,1100,1035,1496,1505,12294,717
64973,0,-1.24,1.11,-0.91,0.112,-0.018,0.905,0.00,0.00,-0.24,1.08,1.00,-0.03,-0.04,-0.35,2.99,4.87,-11.26,5.25,1100,1100,1100,1100,1035,1496,1505,12294,717
64985,0,1.93,4.86,0.11,0.055,-0.047,0.978,0.00,0.00,-0.20,0.91,-2.13,-3.95,-0.04,-0.35,2.99,-4.81,-16.11,2.71,1100,1100,1100,1100,1035,1496,1505,12298,717
64997,0,-1.85,5.54,-0.79,-0.033,-0.028,1.061,0.00,0.00,-0.22,0.86,1.64,-4.68,-0.03,-0.36,3.01,3.24,-6.62,5.00,1100,1100,1100,1100,1035,1496,1505,12315,717
65009,0,-2.13,0.49,-0.02,-0.070,-0.015,1.060,0.00,0.00,-0.20,0.91,1.92,0.43,-0.03,-0.36,3.01,4.01,11.44,3.05,1100,1100,1100,1100,1035,1496,1505,12340,717
65021,0,-0.86,-1.85,0.34,-0.010,-0.047,1.042,0.00,0.00,-0.18,1.08,0.68,2.92,-0.03,-0.35,3.01,-0.20,2.40,2.16,1100,1100,1100,1100,1035,1496,1505,12328,717
65033,0,-2.14,-3.37,0.16,0.017,-0.026,0.992,0.00,0.00,-0.17,1.18,1.98,4.55,-0.03,-0.35,2.99,3.10,8.33,2.58,1100,1100,1100,1100,1035,1496,1505,12332,717
65045,0,1.14,-1.44,1.05,0.071,-0.019,0.967,0.00,0.00,-0.16,1.18,-1.29,2.62,-0.03,-0.34,2.98,-3.01,-3.57,0.36,1100,1100,1100,1100,1035,1496,1505,12332,717
65057,0,0.12,-7.63,-0.18,0.155,-0.040,0.909,0.00,0.00,-0.12,1.13,-0.24,8.76,-0.03,-0.32,2.99,-1.57,17.96,3.44,1100,1100,1100,1100,1035,1496,1505,12332,717
65069,0,-0.35,-4.34,-0.43,0.166,-0.021,0.876,0.00,0.00,-0.10,1.00,0.25,5.35,-0.03,-0.31,2.99,-0.04,-1.08,4.06,1100,1100,1100,1100,1035,1495,1505,12315,717
65081,0,2.14,-10.88,0.66,0.251,-0.047,0.809,0.00,0.00,-0.03,0.81,-2.18,11.70,-0.03,-0.28,2.98,-4.68,12.16,1.34,1100,1100,1100,1100,1035,1495,1505,12319,717
65093,0,0.55,-5.39,0.35,0.275,-0.044,0.818,0.00,0.00,-0.00,0.48,-0.55,5.87,-0.03,-0.27,2.97,-1.65,1.28,2.10,1100,1100,1100,1100,1035,1495,1505,12315,717
65105,0,-3.07,-3.72,0.28,0.218,-0.031,0.835,0.00,0.00,0.03,0.15,3.10,3.88,-0.03,-0.26,2.96,7.24,-5.89,2.27,1100,1100,1100,1100,1035,1496,1505,12315,717
65117,0,0.85,-1.81,-0.22,0.205,-0.078,0.867,0.00,0.00,0.10,-0.16,-0.75,1.65,-0.03,-0.25,2.96,-2.66,-1.72,3.52,1100,1100,1100,1100,1035,1496,1505,12282,717
65129,0,-0.23,-1.67,-0.23,0.161,-0.038,0.884,0.00,0.00,0.11,-0.34,0.34,1.33,-0.03,-0.25,2.96,-0.15,-4.21,3.54,1100,1100,1100,1100,1036,1496,1505,12290,717
65141,0,-0.14,1.04,-0.14,0.098,-0.013,0.938,0.00,0.00,0.12,-0.50,0.26,-1.55,-0.03,-0.25,2.96,1.69,-7.66,3.30,1100,1100,1100,1100,1036,1496,1505,12290,717
65153,0,0.48,2.61,0.23,0.084,-0.058,0.953,0.00,0.00,0.13,-0.65,-0.35,-3.26,-0.03,-0.26,2.96,-1.33,-6.05,2.39,1100,1100,1100,1100,1036,1496,1505,12294,717
65165,0,-0.83,0.65,-0.54,0.042,-0.015,0.979,0.00,0.00,0.11,-0.68,0.94,-1.33,-0.03,-0.26,2.97,1.35,-3.74,4.33,1100,1100,1100,1100,1036,1496,1505,12290,717
65177,0,-0.10,1.17,-0.27,0.024,-0.017,1.027,0.00,0.00,0.11,-0.73,0.21,-1.90,-0.03,-0.26,2.97,0.32,1.14,3.65,1100,1100,1100,1100,1036,1496,1505,12315,717
65189,0,-2.57,-0.38,0.23,0.064,-0.039,0.981,0.00,0.00,0.13,-0.70,2.70,-0.32,-0.03,-0.26,2.98,3.84,0.01,2.42,1100,1100,1100,1100,1035,1496,1505,12328,717
65201,0,-1.08,-2.12,-0.92,0.051,-0.008,0.985,0.00,0.00,0.11,-0.67,1.19,1.45,-0.03,-0.26,3.00,0.90,3.49,5.29,1100,1100,1100,1100,1035,1496,1505,12323,717
65213,0,1.63,1.32,-0.25,0.058,-0.019,0.987,0.00,0.00,0.10,-0.73,-1.53,-2.06,-0.03,-0.26,3.00,-3.93,-4.94,3.62,1100,1100,1100,1100,1035,1496,1505,12311,717
65225,0,0.30,0.15,0.04,0.085,-0.004,0.954,0.00,0.00,0.10,-0.77,-0.20,-0.92,-0.03,-0.26,3.03,-1.46,-0.20,2.93,1100,1100,1100,1100,1035,1496,1505,12311,717
65237,0,1.07,0.58,-0.90,-0.009,-0.039,1.014,0.00,0.00,0.10,-0.79,-0.98,-1.38,-0.03,-0.27,3.04,-1.17,4.12,5.28,1100,1100,1100,1100,1035,1496,1505,12286,717
65249,0,3.32,-1.11,-0.33,0.079,-0.011,0.979,0.00,0.00,0.04,-0.83,-3.28,0.28,-0.03,-0.28,3.05,-4.76,11.22,3.88,1100,1100,1100,1100,1035,1496,1505,12290,717
65261,0,2.08,5.71,-1.34,0.035,-0.009,1.006,0.00,0.00,-0.01,-0.86,-2.09,-6.57,-0.03,-0.28,3.07,-1.28,-22.46,6.42,1100,1100,1100,1100,1035,1496,1505,12290,717
65273,0,0.72,1.74,-0.57,0.015,-0.047,0.983,0.00,0.00,-0.05,-0.93,-0.77,-2.67,-0.03,-0.29,3.08,1.24,3.85,4.51,1100,1100,1100,1100,1035,1496,1505,12307,717
65285,0,1.03,0.96,0.09,0.023,-0.050,1.018,0.00,0.00,-0.06,-0.93,-1.09,-1.89,-0.04,-0.30,3.10,-0.37,4.74,2.88,1100,1100,1100,1100,1035,1496,1505,12307,717
65297,0,-0.05,-6.70,-0.70,0.023,-0.057,0.979,0.00,0.00,-0.04,-0.79,0.01,5.91,-0.04,-0.29,3.13,0.75,16.72,4.88,1100,1100,1100,1100,1035,1496,1505,12307,717
65309,0,-2.32,-1.63,-0.71,0.065,-0.022,0.971,0.00,0.00,-0.04,-0.75,2.28,0.88,-0.04,-0.29,3.13,6.16,-5.43,4.90,1100,1100,1100,1100,1035,1496,1505,12315,717
65321,0,-0.21,2.77,-0.17,0.074,-0.023,0.968,0.00,0.00,-0.04,-0.75,0.17,-3.52,-0.04,-0.28,3.14,0.46,-25.90,3.57,1100,1100,1100,1100,1035,1496,1505,12311,717
65333,0,-1.19,3.26,-0.83,0.058,-0.033,0.975,0.00,0.00,-0.06,-0.86,1.12,-4.13,-0.04,-0.29,3.15,1.49,-8.68,5.23,1100,1100,1100,1100,1035,1496,1505,12298,717
65345,0,0.27,-2.62,-0.27,0.095,-0.003,0.968,0.00,0.00,-0.09,-0.98,-0.35,1.64,-0.04,-0.30,3.17,-0.46,19.74,3.84,1100,1100,1100,1100,1035,1496,1505,12303,717
65357,0,-0.59,0.49,-0.43,0.087,-0.036,0.993,0.00,0.00,-0.05,-1.04,0.54,-1.52,-0.03,-0.30,3.20,-0.04,0.34,4.27,1100,1100,1100,1100,1035,1496,1505,12311,717
65369,0,0.78,2.51,-1.16,0.070,-0.024,1.001,0.00,0.00,-0.08,-1.12,-0.86,-3.63,-0.04,-0.31,3.22,-1.50,-4.57,6.12,1100,1100,1100,1100,1035,1496,1505,12303,717
65381,0,5.02,6.17,-0.10,0.042,0.007,1.056,0.00,0.00,-0.13,-1.23,-5.15,-7.40,-0.04,-0.32,3.23,-9.36,-12.91,3.47,1100,1100,1100,1100,1035,1496,1505,12303,717
65393,0,1.30,3.06,-0.38,0.064,-0.011,1.034,0.00,0.00,-0.17,-1.34,-1.47,-4.40,-0.04,-0.33,3.26,-1.23,1.33,4.21,1100,1100,1100,1100,1036,1496,1505,12319,717
65405,0,-1.96,2.88,-1.60,0.024,0.002,1.040,0.00,0.00,-0.23,-1.42,1.73,-4.30,-0.04,-0.35,3.28,6.53,4.60,7.28,1100,1100,1100,1100,1036,1496,1505,12328,717
65417,0,1.24,-1.62,0.08,0.031,-0.026,1.011,0.00,0.00,-0.26,-1.39,-1.50,0.23,-0.04,-0.35,3.29,-2.08,9.16,3.10,1100,1100,1100,1100,1036,1496,1505,12328,717
65429,0,0.45,-2.93,-1.02,0.070,-0.025,0.955,0.00,0.00,-0.30,-1.31,-0.74,1.62,-0.04,-0.35,3.32,-0.29,2.27,5.87,1100,1100,1100,1100,1036,1496,1505,12290,717
65441,0,-0.58,-6.33,-0.41,0.127,-0.020,0.907,0.00,0.00,-0.30,-1.30,0.28,5.03,-0.04,-0.33,3.32,2.49,5.56,4.35,1100,1100,1100,1100,1036,1496,1504,12294,717
65453,0,-0.92,-1.08,0.09,0.142,-0.044,0.899,0.00,0.00,-0.29,-1.46,0.62,-0.38,-0.04,-0.33,3.34,1.75,-7.73,3.11,1100,1100,1100,1100,1037,1496,1504,12294,717
65465,0,-0.76,1.06,-1.68,0.133,-0.018,0.897,0.00,0.00,-0.29,-1.61,0.46,-2.68,-0.04,-0.34,3.36,0.69,-8.69,7.56,1100,1100,1100,1100,1037,1496,1504,12307,717
65477,0,-0.46,-3.67,0.29,0.088,-0.019,0.918,0.00,0.00,-0.28,-1.69,0.19,1.97,-0.04,-0.34,3.36,0.06,8.13,2.63,1100,1100,1100,1100,1037,1496,1504,12298,717
65489,0,-0.81,0.69,-0.27,0.080,-0.034,0.946,0.00,0.00,-0.27,-1.75,0.54,-2.45,-0.04,-0.34,3.38,0.75,-8.76,4.05,1100,1100,1100,1100,1037,1496,1504,12307,717
65501,0,-1.51,1.22,-1.02,0.034,-0.028,1.003,0.00,0.00,-0.26,-1.78,1.25,-3.00,-0.04,-0.35,3.39,1.82,-3.02,5.94,1100,1100,1100,1100,1037,1496,1504,12319,717
65513,0,0.39,3.40,0.27,-0.016,-0.016,1.053,0.00,0.00,-0.27,-1.82,-0.65,-5.22,-0.04,-0.36,3.41,-1.44,0.55,2.74,1100,1100,1100,1100,1038,1496,1504,12311,717
65525,0,1.35,-0.10,-0.21,0.030,-0.046,0.998,0.00,0.00,-0.25,-1.75,-1.59,-1.65,-0.04,-0.37,3.43,-2.62,2.18,3.95,1100,1100,1100,1100,1049,1496,1505,12303,717
65537,0,0.78,-3.62,0.16,0.024,-0.039,0.982,0.00,0.00,-0.24,-1.60,-1.02,2.02,-0.04,-0.36,3.41,-1.35,3.55,3.02,1100,1100,1100,1100,1049,1496,1505,12315,718
65549,0,0.57,-3.53,0.26,0.053,-0.016,0.994,0.00,0.00,-0.26,-1.58,-0.83,1.95,-0.04,-0.36,3.41,0.78,7.66,2.77,1100,1100,1100,1100,1050,1496,1505,12311,718
65561,0,-1.36,0.42,-0.05,0.046,-0.042,1.020,0.00,0.00,-0.22,-1.58,1.13,-2.00,-0.04,-0.36,3.41,2.90,-2.68,3.54,1100,1100,1100,1100,1050,1496,1505,12311,718
65573,0,-0.77,2.22,0.06,-0.026,-0.016,1.076,0.00,0.00,-0.24,-1.52,0.53,-3.73,-0.04,-0.37,3.41,1.18,-7.74,3.27,1100,1100,1100,1100,1050,1496,1505,12328,718
65585,0,0.88,-0.34,-0.01,-0.019,-0.019,1.056,0.00,0.00,-0.23,-1.45,-1.11,-1.11,-0.04,-0.38,3.41,-2.74,6.79,3.44,1100,1100,1100,1100,1054,1496,1505,12319,718
65597,0,-0.44,1.32,-0.04,-0.016,-0.040,1.065,0.00,0.00,-0.20,-1.33,0.24,-2.65,-0.04,-0.38,3.41,-1.10,-6.35,3.53,1100,1100,1100,1100,1054,1496,1505,12294,718
65609,0,-1.40,-3.41,-0.25,-0.058,-0.045,1.076,0.00,0.00,-0.17,-1.18,1.23,2.23,-0.04,-0.39,3.41,1.63,17.57,4.05,1100,1100,1100,1100,1054,1496,1505,12290,718
65621,0,-0.49,3.09,-0.37,-0.038,-0.031,1.085,0.00,0.00,-0.14,-1.07,0.35,-4.16,-0.04,-0.39,3.41,-0.63,-13.61,4.33,1100,1100,1100,1100,1054,1496,1505,12298,718
65633,0,-2.49,-1.08,-0.49,0.001,-0.041,1.028,0.00,0.00,-0.10,-0.92,2.39,0.15,-0.04,-0.39,3.42,3.17,0.39,4.65,1100,1100,1100,1100,1072,1496,1505,12311,718
65645,0,-1.51,8.73,-0.15,-0.089,-0.033,1.116,0.00,0.00,-0.09,-0.90,1.43,-9.63,-0.04,-0.40,3.43,1.19,-25.86,3.81,1100,1100,1100,1100,1076,1496,1505,12311,718
65657,0,-1.36,1.98,-0.03,-0.015,-0.042,1.044,0.00,0.00,-0.04,-0.84,1.31,-2.83,-0.04,-0.41,3.45,0.63,1.78,3.51,1100,1100,1100,1100,1076,1496,1505,12315,718
65669,0,-2.15,-2.45,-1.30,-0.007,-0.038,1.052,0.00,0.00,-0.01,-0.74,2.14,1.70,-0.04,-0.41,3.47,2.88,16.46,6.71,1100,1100,1100,1100,1076,1496,1505,12303,718
65681,0,-0.52,1.94,-0.28,-0.005,-0.040,1.047,0.00,0.00,-0.00,-0.68,0.52,-2.62,-0.04,-0.41,3.47,1.04,-11.72,4.17,1100,1100,1100,1100,1076,1496,1505,12294,718
65693,0,2.40,-3.61,0.18,0.125,-0.022,0.957,0.00,0.00,-0.00,-0.69,-2.40,2.92,-0.04,-0.41,3.49,-5.20,11.57,3.04,1100,1100,1100,1100,1099,1496,1505,12290,718
65705,0,0.90,-1.59,-0.70,0.075,-0.024,0.988,0.00,0.00,-0.03,-0.75,-0.93,0.84,-0.04,-0.41,3.50,-0.86,1.33,5.24,1100,1100,1100,1100,1100,1496,1505,12290,718
65717,0,1.69,0.40,-0.31,0.104,-0.002,0.948,0.00,0.00,-0.06,-0.88,-1.75,-1.28,-0.04,-0.42,3.52,-1.70,0.26,4.29,1100,1100,1100,1100,1100,1496,1505,12315,718
65729,0,1.89,6.68,-1.26,0.037,-0.058,1.038,0.00,0.00,-0.05,-0.95,-1.94,-7.63,-0.04,-0.43,3.55,-3.34,-21.26,6.69,1100,1100,1100,1100,1110,1497,1504,12319,718
65741,0,-0.17,6.73,-0.42,-0.057,-0.035,1.086,0.00,0.00,-0.05,-1.04,0.11,-7.77,-0.04,-0.45,3.56,0.73,-2.48,4.62,1100,1100,1100,1100,1110,1497,1504,12311,718
65753,0,1.40,1.44,-0.27,-0.030,-0.028,1.068,0.00,0.00,-0.05,-0.94,-1.46,-2.38,-0.04,-0.45,3.58,-1.12,4.01,4.27,1100,1100,1100,1100,1118,1497,1504,12323,718
65765,0,-1.48,-4.57,-1.11,-0.007,-0.068,1.030,0.00,0.00,-0.02,-0.79,1.46,3.78,-0.04,-0.45,3.60,2.85,18.70,6.37,1100,1100,1100,1100,1118,1496,1504,12315,718
65777,0,-1.93,0.80,-0.17,0.004,-0.014,1.015,0.00,0.00,-0.06,-0.72,1.87,-1.52,-0.04,-0.45,3.60,6.01,-9.18,4.01,1100,1100,1100,1100,1118,1496,1504,12311,718
65789,0,2.18,2.78,0.05,0.036,-0.033,1.017,0.00,0.00,-0.07,-0.74,-2.25,-3.52,-0.04,-0.46,3.61,-4.12,-9.30,3.48,1100,1100,1100,1100,1139,1496,1504,12273,718
65801,0,-0.60,0.34,-0.56,0.019,-0.017,1.021,0.00,0.00,-0.11,-0.72,0.48,-1.07,-0.04,-0.46,3.63,0.69,0.65,5.02,1100,1100,1100,1100,1139,1496,1505,12290,718
65813,0,-1.55,-1.52,-0.69,0.018,0.028,1.029,0.00,0.00,-0.14,-0.70,1.41,0.82,-0.04,-0.46,3.65,3.89,10.19,5.38,1100,1100,1100,1100,1143,1496,1505,12294,718
65825,0,-0.14,-0.54,-0.93,0.027,-0.039,1.042,0.00,0.00,-0.12,-0.64,0.02,-0.10,-0.04,-0.46,3.67,-1.82,-3.11,6.00,1100,1100,1100,1100,1143,1496,1505,12290,718
65837,0,-1.10,-0.89,-0.60,0.040,-0.014,1.023,0.00,0.00,-0.13,-0.61,0.98,0.28,-0.04,-0.46,3.69,0.29,3.35,5.19,1100,1100,1100,1100,1143,1496,1505,12294,718
65849,0,2.74,1.24,0.05,0.041,-0.007,1.040,0.00,0.00,-0.14,-0.65,-2.88,-1.89,-0.04,-0.47,3.70,-5.84,-4.17,3.59,1100,1100,1100,1100,1158,1496,1505,12298,718
65861,0,-0.19,4.39,-0.73,0.017,-0.044,1.071,0.00,0.00,-0.13,-0.73,0.05,-5.12,-0.04,-0.48,3.73,-0.45,-2.12,5.54,1100,1100,1100,1100,1158,1496,1505,12298,718
65873,0,-1.86,7.74,-1.52,-0.070,0.007,1.103,0.00,0.00,-0.18,-0.77,1.68,-8.51,-0.04,-0.51,3.75,4.90,-5.71,7.55,1100,1100,1100,1100,1158,1496,1505,12294,718
65885,0,2.80,1.87,-0.33,-0.050,-0.028,1.076,0.00,0.00,-0.22,-0.70,-3.01,-2.58,-0.04,-0.51,3.77,-4.81,6.80,4.60,1100,1100,1100,1100,1173,1496,1505,12282,718
65897,0,-0.02,-1.51,-0.90,-0.000,-0.030,1.032,0.00,0.00,-0.27,-0.55,-0.25,0.97,-0.04,-0.51,3.79,1.19,4.24,6.05,1100,1100,1100,1100,1173,1496,1505,12290,718
65909,0,-1.80,-2.78,-0.27,0.008,-0.019,0.996,0.00,0.00,-0.29,-0.45,1.52,2.33,-0.05,-0.51,3.79,5.91,5.42,4.47,1100,1100,1100,1100,1173,1496,1505,12248,718
65921,0,1.44,0.22,-0.43,0.052,-0.047,0.982,0.00,0.00,-0.30,-0.44,-1.73,-0.66,-0.05,-0.50,3.81,-2.01,-8.93,4.89,1100,1100,1100,1100,1173,1496,1505,12223,718
65933,0,-1.81,-4.98,-1.14,0.091,-0.050,0.932,0.00,0.00,-0.30,-0.40,1.51,4.58,-0.05,-0.50,3.83,4.59,10.42,6.68,1182,1186,1194,1178,1185,1496,1505,12244,718
65945,0,-1.08,1.24,-0.44,-0.001,-0.021,0.975,0.00,0.00,-0.32,-0.38,0.76,-1.63,-0.05,-0.50,3.84,3.54,-13.08,4.95,1182,1186,1194,1178,1185,1496,1505,12223,718
65957,0,2.08,4.52,-0.53,-0.006,-0.020,1.040,0.00,0.00,-0.34,-0.42,-2.42,-4.94,-0.05,-0.50,3.87,-3.38,-14.93,5.20,1182,1186,1194,1178,1185,1496,1505,12190,718
65969,0,-0.38,3.18,-1.49,0.076,-0.041,1.011,0.00,0.00,-0.33,-0.45,0.05,-3.63,-0.05,-0.51,3.91,0.50,-8.39,7.64,1182,1186,1194,1178,1185,1496,1505,12161,718
65981,0,-0.34,-9.44,-1.10,0.100,-0.014,0.937,0.00,0.00,-0.29,-0.40,0.04,9.05,-0.05,-0.50,3.93,-2.17,31.52,6.68,1182,1186,1194,1178,1185,1496,1505,12165,718
65993,0,-4.95,-7.46,-1.08,0.075,-0.024,0.870,0.00,0.00,-0.20,-0.41,4.75,7.05,-0.05,-0.49,3.96,7.08,11.94,6.66,1182,1186,1194,1178,1207,1496,1505,12203,718
66005,0,-1.15,-0.52,-0.91,0.090,-0.050,0.862,0.00,0.00,-0.14,-0.46,1.00,0.07,-0.04,-0.48,3.99,-0.53,-14.76,6.27,1182,1186,1194,1178,1208,1496,1505,12190,718
66017,0,2.03,-1.52,-0.94,0.152,-0.045,0.924,0.00,0.00,-0.11,-0.50,-2.14,1.02,-0.04,-0.47,4.03,-6.47,-10.64,6.37,1182,1186,1194,1178,1208,1496,1505,12182,718
66029,0,0.61,-7.85,-1.22,0.129,-0.025,0.919,0.00,0.00,-0.04,-0.53,-0.65,7.32,-0.04,-0.46,4.07,-5.31,19.11,7.13,1235,1211,1239,1187,1218,1495,1505,12161,719
66041,0,-6.65,-4.77,-2.12,0.053,-0.067,0.805,0.00,0.00,0.04,-0.63,6.69,4.14,-0.04,-0.46,4.11,13.68,14.29,9.41,1235,1211,1239,1187,1218,1495,1505,12136,719
66053,0,1.58,-0.54,-0.48,0.034,-0.009,0.908,0.00,0.00,-0.00,-0.67,-1.58,-0.13,-0.04,-0.45,4.13,-0.22,-18.58,5.34,1235,1211,1239,1187,1218,1495,1505,12144,719
66065,0,3.13,-10.03,-1.33,0.212,-0.040,0.828,0.00,0.00,0.11,-0.70,-3.02,9.32,-0.04,-0.43,4.19,-6.76,16.99,7.51,1235,1211,1239,1187,1218,1497,1505,12144,719
66077,0,5.70,8.41,-2.22,0.175,-0.096,0.872,0.00,0.00,0.09,-0.76,-5.61,-9.18,-0.04,-0.43,4.22,-10.48,-49.37,9.78,1235,1211,1239,1187,1218,1497,1505,12119,719
66089,0,2.39,-23.12,-0.15,0.259,-0.076,0.795,0.00,0.00,0.17,-0.78,-2.22,22.34,-0.04,-0.38,4.25,-8.37,31.18,4.64,1235,1211,1239,1187,1223,1497,1505,12115,719
66101,0,-7.82,-7.65,-2.47,0.197,-0.089,0.839,0.00,0.00,0.19,-1.29,8.01,6.37,-0.05,-0.41,4.30,20.90,51.68,10.48,1235,1211,1239,1187,1223,1496,1505,12099,719
66113,0,-5.71,2.83,-0.72,-0.042,-0.000,1.079,0.00,0.00,0.24,-1.51,5.94,-4.34,-0.05,-0.40,4.33,17.56,-20.83,6.15,1235,1211,1239,1187,1223,1496,1505,12090,719
66125,0,9.29,24.96,-1.38,0.010,0.003,1.040,0.00,0.00,0.08,-1.98,-9.21,-26.93,-0.06,-0.47,4.37,-9.44,-34.21,7.83,1235,1211,1239,1187,1225,1496,1505,12086,719
66137,0,7.42,7.07,-0.29,0.051,-0.058,0.914,0.00,0.00,0.19,-1.67,-7.23,-8.73,-0.05,-0.43,4.38,-15.18,-68.74,5.11,1297,1100,1373,1141,1225,1496,1505,12111,722
66149,0,9.33,25.45,-1.17,-0.017,-0.029,1.087,0.00,0.00,0.18,-1.75,-9.15,-27.21,-0.05,-0.47,4.42,-22.28,-83.22,7.34,1297,1100,1373,1141,1227,1496,1505,12082,722
66161,0,4.26,-12.83,-0.13,0.174,-0.025,0.942,0.00,0.00,0.11,-1.63,-4.15,11.20,-0.05,-0.46,4.45,-10.07,49.21,4.76,1297,1100,1373,1141,1227,1496,1505,12069,722
66173,0,-1.70,-6.71,-0.72,0.005,-0.012,1.004,0.00,0.00,0.12,-1.39,1.82,5.32,-0.05,-0.45,4.48,-1.45,3.83,6.29,1297,1100,1373,1141,1227,1496,1505,12044,722
66185,0,-4.26,-3.58,-1.15,-0.158,-0.022,1.098,0.00,0.00,0.15,-1.05,4.41,2.52,-0.05,-0.46,4.53,1.90,9.87,7.40,1297,1100,1373,1141,1238,1496,1505,12061,722
66197,0,-9.85,-22.09,-1.33,-0.032,-0.042,1.071,0.00,0.00,0.17,-0.90,10.02,21.19,-0.04,-0.47,4.59,15.39,109.94,7.91,1297,1100,1373,1141,1238,1496,1505,12074,722
66209,0,-12.13,-25.01,-1.94,-0.091,-0.006,0.993,0.00,0.00,0.18,-0.65,12.30,24.36,-0.04,-0.46,4.63,23.15,88.07,9.48,1297,1100,1373,1141,1238,1496,1505,12086,722
66221,0,-7.65,8.00,-4.46,-0.223,0.032,1.126,0.00,0.00,0.09,-0.67,7.74,-8.68,-0.04,-0.48,4.71,19.30,-6.71,15.87,1297,1100,1373,1141,1238,1496,1505,12090,722
66233,0,-6.28,2.11,-4.24,-0.075,0.045,1.010,0.00,0.00,0.05,-0.68,6.33,-2.79,-0.04,-0.49,4.81,15.81,13.74,15.42,1203,1333,1185,1275,1249,1496,1505,12040,721
66245,0,0.72,3.64,-3.27,-0.022,0.068,0.967,0.00,0.00,0.06,-0.56,-0.66,-4.20,-0.04,-0.47,4.88,-3.27,-39.60,13.06,1203,1333,1185,1275,1253,1496,1505,12032,721
66257,0,11.63,34.16,-4.51,-0.112,0.077,1.148,0.00,0.00,-0.15,-0.61,-11.78,-34.77,-0.04,-0.48,4.98,-20.06,-110.00,16.25,1203,1333,1185,1275,1253,1496,1505,12032,721
66269,0,9.47,18.41,-4.85,0.061,-0.023,1.048,0.00,0.00,-0.26,-0.69,-9.73,-19.11,-0.05,-0.49,5.14,-13.99,-57.73,17.27,1203,1333,1185,1275,1254,1496,1505,11961,721
66281,0,4.27,7.12,-4.26,0.165,-0.118,0.921,0.00,0.00,-0.09,-0.65,-4.36,-7.77,-0.04,-0.49,5.29,-12.68,-39.87,15.93,1203,1333,1185,1275,1254,1496,1505,11965,721
66293,0,3.49,15.51,-3.56,0.074,-0.141,0.993,0.00,0.00,0.05,-0.54,-3.44,-16.05,-0.04,-0.48,5.42,-11.65,-82.18,14.33,1203,1333,1185,1275,1255,1496,1505,11945,721
66305,0,6.39,-2.98,-2.89,0.159,-0.101,0.948,0.00,0.00,0.01,-0.41,-6.38,2.57,-0.04,-0.48,5.54,-12.74,-5.13,12.77,1203,1333,1185,1275,1262,1496,1505,11949,721
66317,0,2.76,-17.50,-3.03,0.238,-0.069,0.936,0.00,0.00,-0.08,-0.33,-2.84,17.17,-0.05,-0.47,5.67,-2.24,48.79,13.24,1203,1333,1185,1275,1262,1496,1505,11986,721
66329,0,2.15,-16.16,-3.72,0.139,-0.039,1.015,0.00,0.00,-0.21,-0.27,-2.36,15.90,-0.05,-0.46,5.81,-1.15,48.38,15.10,1303,1237,1331,1205,1269,1496,1505,11990,723
66341,0,-0.68,-23.11,-3.71,0.060,-0.060,0.982,0.00,0.00,-0.25,-0.18,0.43,22.93,-0.05,-0.46,5.95,2.14,94.12,15.22,1303,1237,1331,1205,1269,1496,1504,11982,723
66353,0,-4.21,-15.94,-3.75,-0.080,-0.101,1.024,0.00,0.00,-0.21,-0.15,3.99,15.79,-0.05,-0.48,6.08,9.20,89.46,15.47,1303,1237,1331,1205,1271,1496,1504,11995,723
66365,0,-5.33,-2.35,-4.76,-0.219,-0.127,1.164,0.00,0.00,-0.09,-0.17,5.24,2.18,-0.05,-0.51,6.24,9.99,53.18,18.13,1303,1237,1331,1205,1273,1496,1504,11990,723
66377,0,-3.23,1.94,-4.83,-0.251,-0.117,1.205,0.00,0.00,0.04,-0.23,3.27,-2.17,-0.05,-0.55,6.41,5.20,49.29,18.47,1303,1237,1331,1205,1273,1496,1504,12015,723
66389,0,0.44,4.63,-4.61,-0.246,-0.048,1.198,0.00,0.00,0.13,-0.23,-0.32,-4.86,-0.05,-0.57,6.57,-2.04,34.70,18.10,1303,1237,1331,1205,1274,1496,1504,11995,723
66401,0,0.34,-1.18,-3.92,-0.205,-0.011,1.094,0.00,0.00,0.15,-0.11,-0.19,1.08,-0.05,-0.58,6.71,0.17,30.43,16.52,1303,1237,1331,1205,1274,1496,1505,11982,723
66413,0,-0.85,-0.16,-3.53,-0.168,0.019,1.057,0.00,0.00,0.15,0.01,1.00,0.17,-0.05,-0.58,6.84,1.54,12.28,15.68,1303,1237,1331,1205,1279,1496,1505,11982,723
66425,0,-2.23,-1.07,-3.58,-0.056,-0.013,0.949,0.00,0.00,0.17,-0.02,2.39,1.06,-0.05,-0.59,6.98,2.20,21.75,15.94,1303,1237,1331,1205,1279,1496,1505,11957,723
66437,0,-2.11,-5.96,-4.34,0.072,-0.033,0.883,0.00,0.00,0.20,-0.06,2.31,5.90,-0.05,-0.56,7.12,1.20,8.37,17.97,1361,1189,1403,1163,1279,1496,1505,11995,718
66449,0,-3.84,-10.91,-5.13,0.192,-0.034,0.789,0.00,0.00,0.25,-0.23,4.09,10.68,-0.04,-0.53,7.27,3.94,15.47,20.11,1361,1189,1403,1163,1283,1496,1505,11953,718
66461,0,-5.86,-6.92,-6.02,0.237,-0.073,0.729,0.00,0.00,0.31,-0.45,6.17,6.48,-0.04,-0.49,7.44,12.07,-22.79,22.50,1361,1189,1403,1163,1283,1496,1505,11953,718
66473,0,-3.80,-2.18,-6.36,0.222,-0.110,0.767,0.00,0.00,0.40,-0.71,4.20,1.47,-0.04,-0.46,7.62,10.17,-45.26,23.52,1361,1189,1403,1163,1283,1496,1505,11928,718
66485,0,-9.21,-2.92,-7.06,0.217,-0.115,0.773,0.00,0.00,0.54,-0.98,9.75,1.93,-0.04,-0.42,7.82,22.01,-38.58,25.47,1361,1189,1403,1163,1286,1496,1505,11924,718
66497,0,-11.22,1.20,-7.78,0.109,-0.151,0.864,0.00,0.00,0.70,-1.13,11.92,-2.33,-0.04,-0.41,8.04,25.29,-35.60,27.49,1361,1189,1403,1163,1286,1496,1505,11920,718
66509,0,-14.67,8.89,-8.27,-0.071,-0.200,0.979,0.00,0.00,0.90,-1.10,15.57,-9.99,-0.04,-0.40,8.28,31.15,-53.90,28.94,1361,1189,1403,1163,1289,1496,1505,11936,718
66521,0,-20.78,24.91,-8.86,-0.308,-0.236,1.176,0.00,0.00,1.19,-1.02,21.98,-25.93,-0.04,-0.43,8.53,38.38,-77.93,30.68,1361,1189,1403,1163,1289,1496,1505,11932,718
66533,0,-24.90,11.63,-8.04,-0.369,-0.220,1.210,0.00,0.00,1.53,-0.73,26.43,-12.36,-0.03,-0.45,8.78,41.13,-26.26,28.88,1312,1268,1374,1210,1291,1496,1505,11895,719
66545,0,-32.34,7.89,-8.65,-0.352,-0.263,1.145,0.00,0.00,1.98,-0.53,34.32,-8.42,-0.01,-0.49,9.05,49.40,14.66,30.68,1312,1268,1374,1210,1293,1496,1505,11890,719
66557,0,-23.55,-17.06,-7.59,-0.220,-0.232,1.091,0.00,0.00,2.47,-0.02,26.02,17.05,0.01,-0.48,9.32,26.84,78.95,28.29,1312,1268,1374,1210,1293,1496,1505,11911,719
66569,0,-21.20,-15.40,-6.69,-0.103,-0.203,1.027,0.00,0.00,2.97,0.47,24.17,15.88,0.03,-0.46,9.56,18.56,42.19,26.29,1312,1268,1374,1210,1293,1496,1505,11915,719
66581,0,-23.10,-11.60,-7.00,-0.044,-0.218,0.994,0.00,0.00,3.29,0.89,26.39,12.49,0.04,-0.41,9.79,30.76,-10.45,27.30,1312,1268,1374,1210,1293,1496,1505,11945,719
66593,0,-17.19,-9.35,-6.99,0.002,-0.233,0.946,0.00,0.00,3.60,0.96,20.79,10.31,0.05,-0.40,10.02,21.41,23.50,27.50,1312,1268,1374,1210,1293,1496,1505,11940,719
66605,0,-17.42,-12.41,-6.42,0.090,-0.264,0.840,0.00,0.00,3.93,1.05,21.35,13.45,0.06,-0.38,10.24,22.71,28.23,26.30,1312,1268,1374,1210,1298,1496,1505,11936,719
66617,0,-13.84,13.78,-7.50,-0.001,-0.217,1.049,0.00,0.00,4.04,0.98,17.88,-12.80,0.07,-0.37,10.46,19.72,-68.30,29.21,1312,1268,1374,1210,1298,1496,1505,11961,719
66629,0,-15.02,7.42,-7.35,0.035,-0.183,1.098,0.00,0.00,4.03,0.77,19.05,-6.65,0.08,-0.39,10.67,26.93,-8.38,29.06,1241,1315,1351,1309,1304,1497,1504,11965,723
66641,0,-10.92,5.08,-7.20,0.064,-0.153,1.060,0.00,0.00,3.85,0.58,14.77,-4.51,0.08,-0.40,10.87,23.67,6.39,28.87,1241,1315,1351,1309,1304,1497,1504,11945,723
66653,0,-8.70,0.54,-7.23,0.128,-0.112,1.034,0.00,0.00,3.60,0.45,12.30,-0.09,0.08,-0.38,11.05,19.98,-10.22,29.13,1241,1315,1351,1309,1304,1497,1504,11949,723
66665,0,-12.99,-10.97,-6.12,0.120,-0.101,0.963,0.00,0.00,3.31,0.40,16.31,11.37,0.08,-0.36,11.19,27.78,19.94,26.49,1241,1315,1351,1309,1305,1496,1504,11949,723
66677,0,-14.36,-8.75,-5.98,0.026,-0.107,0.980,0.00,0.00,3.01,0.49,17.38,9.24,0.08,-0.34,11.32,28.66,12.49,26.27,1241,1315,1351,1309,1305,1496,1504,11945,723
66689,0,-12.28,-25.01,-5.04,0.128,-0.135,0.861,0.00,0.00,2.68,0.75,14.97,25.76,0.08,-0.29,11.43,25.06,48.01,24.04,1241,1315,1351,1309,1305,1496,1504,11911,723
66701,0,-9.88,-20.67,-4.72,0.264,-0.137,0.810,0.00,0.00,2.33,0.84,12.21,21.52,0.08,-0.24,11.55,19.94,7.66,23.35,1241,1315,1351,1309,1305,1496,1505,11907,723
66713,0,-12.24,-19.21,-3.86,0.427,-0.198,0.730,0.00,0.00,2.04,0.51,14.28,19.71,0.08,-0.19,11.67,23.22,4.99,21.32,1241,1315,1351,1309,1304,1496,1505,11911,723
66725,0,-6.40,-0.09,-3.21,0.438,-0.222,0.806,0.00,0.00,1.71,-0.19,8.11,-0.11,0.07,-0.17,11.81,14.51,-33.02,19.83,1241,1315,1351,1309,1304,1496,1505,11911,723
66737,0,-1.34,11.50,-2.60,0.395,-0.211,0.842,0.00,0.00,1.30,-1.10,2.64,-12.59,0.07,-0.17,11.94,7.71,-62.84,18.45,1390,1344,1302,1180,1304,1496,1505,11878,728
66749,0,1.01,28.25,-3.52,0.299,-0.182,0.934,0.00,0.00,0.96,-2.25,-0.05,-30.50,0.06,-0.21,12.10,0.23,-74.99,20.89,1390,1344,1302,1180,1305,1496,1505,11865,728
66761,0,1.43,29.08,-4.91,0.184,-0.157,1.025,0.00,0.00,0.71,-3.41,-0.72,-32.49,0.06,-0.29,12.33,-3.27,-20.24,24.60,1390,1344,1302,1180,1305,1496,1505,11861,728
66773,0,3.66,36.17,-6.44,-0.082,-0.133,1.191,0.00,0.00,0.46,-4.36,-3.19,-40.53,0.06,-0.40,12.61,-6.20,-4.13,28.71,1390,1344,1302,1180,1305,1496,1505,11816,728
66785,0,6.95,24.85,-6.49,-0.262,-0.174,1.259,0.00,0.00,0.22,-4.83,-6.73,-29.68,0.05,-0.50,12.88,-7.60,39.07,29.11,1390,1344,1302,1180,1305,1496,1505,11820,728
66797,0,13.53,10.56,-6.28,-0.300,-0.181,1.254,0.00,0.00,0.06,-4.81,-13.47,-15.37,0.04,-0.57,13.12,-19.33,53.39,28.82,1390,1344,1302,1180,1305,1496,1505,11824,728
66809,0,16.20,-4.84,-5.71,-0.168,-0.184,1.175,0.00,0.00,-0.06,-4.36,-16.26,0.48,0.03,-0.58,13.32,-23.17,37.50,27.60,1390,1344,1302,1180,1305,1496,1505,11828,728
66821,0,23.05,-18.67,-6.58,0.081,-0.133,1.071,0.00,0.00,-0.20,-4.01,-23.25,14.66,0.02,-0.57,13.52,-36.93,53.36,29.96,1390,1344,1302,1180,1305,1496,1505,11841,728
66833,0,27.26,-33.76,-5.63,0.308,-0.139,0.888,0.00,0.00,-0.32,-3.82,-27.58,29.94,0.01,-0.54,13.70,-43.61,81.39,27.79,1326,1242,1418,1234,1305,1496,1505,11853,724
66845,0,35.82,-16.86,-6.73,0.289,-0.080,0.951,0.00,0.00,-0.53,-3.83,-36.35,13.03,-0.01,-0.53,13.90,-58.20,19.81,30.71,1326,1242,1418,1234,1305,1496,1505,11861,724
66857,0,26.08,6.57,-6.76,0.142,0.082,1.069,0.00,0.00,-0.74,-4.02,-26.82,-10.59,-0.02,-0.55,14.09,-36.25,-27.49,30.98,1326,1242,1418,1234,1305,1496,1505,11861,724
66869,0,17.87,-16.47,-5.48,0.214,0.089,0.947,0.00,0.00,-0.90,-3.85,-18.77,12.62,-0.03,-0.52,14.29,-20.67,17.83,27.99,1326,1242,1418,1234,1305,1496,1505,11861,724
66881,0,10.02,4.36,-6.44,0.117,0.102,1.004,0.00,0.00,-0.97,-3.96,-10.99,-8.32,-0.03,-0.54,14.50,-10.41,-24.15,30.59,1326,1242,1418,1234,1305,1496,1505,11899,724
66893,0,3.55,7.98,-8.04,-0.051,0.027,1.094,0.00,0.00,-0.94,-3.90,-4.50,-11.88,-0.04,-0.56,14.74,1.04,-22.86,34.85,1326,1242,1418,1234,1305,1496,1505,11915,724
66905,0,2.73,-5.27,-10.00,-0.097,0.002,1.103,0.00,0.00,-0.82,-3.37,-3.54,1.90,-0.04,-0.54,14.96,2.61,-8.80,39.96,1326,1242,1418,1234,1305,1496,1505,11903,724
66917,0,-3.57,1.99,-11.88,-0.120,-0.019,1.195,0.00,0.00,-0.70,-2.81,2.87,-4.80,-0.04,-0.51,15.20,18.44,-60.72,44.89,1326,1242,1418,1234,1305,1496,1505,11895,724
66929,0,-4.83,-12.85,-11.89,-0.029,0.035,1.229,0.00,0.00,-0.69,-2.17,4.14,10.67,-0.05,-0.46,15.42,22.83,-31.71,45.14,1207,1359,1341,1313,1305,1496,1505,11861,725
66941,0,-7.81,-28.58,-9.59,0.134,0.059,1.099,0.00,0.00,-0.84,-1.57,6.97,27.01,-0.06,-0.39,15.60,32.21,10.52,39.59,1207,1359,1341,1313,1305,1496,1504,11861,725
66953,0,-11.42,-22.44,-7.95,0.291,0.074,0.935,0.00,0.00,-1.03,-1.29,10.40,21.14,-0.06,-0.33,15.77,35.76,-16.68,35.64,1207,1359,1341,1313,1305,1496,1504,11878,725
66965,0,-13.77,-6.60,-7.12,0.263,0.083,0.951,0.00,0.00,-1.16,-1.34,12.60,5.26,-0.06,-0.28,15.94,31.84,-62.85,33.75,1207,1359,1341,1313,1306,1496,1504,11878,725
66977,0,-12.33,-5.24,-5.62,0.219,0.058,0.913,0.00,0.00,-1.33,-1.48,11.00,3.76,-0.06,-0.25,16.12,25.44,-35.68,30.16,1207,1359,1341,1313,1306,1496,1504,11874,725
66989,0,-10.27,-20.32,-4.23,0.297,-0.008,0.717,0.00,0.00,-1.45,-1.54,8.82,18.78,-0.06,-0.19,16.27,18.92,-0.04,26.85,1207,1359,1341,1313,1306,1496,1504,11895,725
67001,0,-6.41,-10.78,-5.72,0.343,-0.062,0.682,0.00,0.00,-1.41,-1.87,5.00,8.92,-0.06,-0.14,16.43,9.24,-38.68,30.72,1207,1359,1341,1313,1306,1496,1505,11865,725
67013,0,-4.09,-19.58,-6.34,0.438,-0.068,0.611,0.00,0.00,-1.30,-2.43,2.78,17.15,-0.06,-0.10,16.63,5.24,12.57,32.49,1207,1359,1341,1313,1305,1496,1505,11853,725
67025,0,-3.12,-13.77,-7.13,0.485,-0.080,0.641,0.00,0.00,-1.17,-3.08,1.96,10.68,-0.07,-0.08,16.86,5.64,8.41,34.69,1207,1359,1341,1313,1305,1496,1505,11853,725
67037,0,0.83,-21.34,-6.53,0.636,-0.081,0.542,0.00,0.00,-1.12,-3.96,-1.95,17.38,-0.08,-0.05,17.08,3.34,37.39,33.41,1312,1348,1328,1232,1305,1496,1505,11824,720
67049,0,2.75,-0.32,-6.96,0.611,-0.064,0.596,0.00,0.00,-1.16,-5.18,-3.91,-4.86,-0.08,-0.07,17.31,2.40,-5.38,34.72,1312,1348,1328,1232,1305,1496,1505,11824,720
67061,0,4.27,17.24,-7.56,0.426,-0.091,0.724,0.00,0.00,-1.30,-6.40,-5.57,-23.64,-0.09,-0.12,17.56,1.36,-32.88,36.46,1312,1348,1328,1232,1305,1496,1505,11824,720
67073,0,12.37,23.70,-7.95,0.279,-0.129,0.828,0.00,0.00,-1.47,-7.43,-13.84,-31.12,-0.11,-0.19,17.82,-14.67,-26.31,37.70,1312,1348,1328,1232,1306,1496,1505,11807,720
67085,0,21.89,20.02,-7.00,0.242,-0.179,0.827,0.00,0.00,-1.66,-8.22,-23.55,-28.24,-0.12,-0.26,18.07,-31.73,-14.81,35.57,1312,1348,1328,1232,1306,1496,1505,11807,720
67097,0,30.03,13.88,-6.67,0.340,-0.200,0.743,0.00,0.00,-1.77,-9.03,-31.81,-22.90,-0.14,-0.32,18.31,-47.10,4.34,34.99,1312,1348,1328,1232,1306,1496,1505,11841,720
67109,0,37.96,23.69,-6.61,0.299,-0.121,0.806,0.00,0.00,-1.95,-9.96,-39.91,-33.65,-0.16,-0.40,18.55,-61.22,-26.20,35.09,1312,1348,1328,1232,1305,1496,1505,11803,720
67121,0,41.47,30.39,-6.24,0.209,-0.028,0.926,0.00,0.00,-2.23,-10.88,-43.70,-41.27,-0.18,-0.50,18.79,-65.02,-24.36,34.40,1312,1348,1328,1232,1305,1496,1505,11824,720
67133,0,38.98,16.47,-5.53,0.225,-0.013,0.911,0.00,0.00,-2.46,-11.56,-41.44,-28.02,-0.20,-0.58,19.01,-57.22,13.57,32.84,1277,1323,1365,1255,1305,1496,1505,11836,722
67145,0,35.78,26.78,-5.76,0.168,-0.018,0.981,0.00,0.00,-2.71,-12.27,-38.48,-39.05,-0.22,-0.67,19.25,-45.23,-20.24,33.66,1277,1323,1365,1255,1305,1496,1505,11820,722
67157,0,38.40,36.73,-6.44,-0.029,0.013,1.124,0.00,0.00,-3.04,-12.86,-41.44,-49.59,-0.25,-0.78,19.48,-44.34,-48.52,35.59,1277,1323,1365,1255,1305,1496,1505,11857,722
67169,0,36.24,25.23,-6.98,-0.057,0.007,1.163,0.00,0.00,-3.36,-13.11,-39.60,-38.34,-0.28,-0.86,19.71,-37.68,-21.21,37.17,1277,1323,1365,1255,1305,1496,1505,11824,722
67181,0,37.71,16.58,-7.35,0.010,0.031,1.148,0.00,0.00,-3.77,-13.21,-41.48,-29.79,-0.31,-0.93,19.95,-36.50,-20.67,38.32,1277,1323,1365,1255,1305,1496,1505,11824,722
67193,0,41.42,19.96,-7.15,-0.010,0.094,1.212,0.00,0.00,-4.34,-13.38,-45.77,-33.34,-0.35,-1.01,20.18,-38.57,-29.50,38.06,1277,1323,1365,1255,1305,1496,1505,11841,722
67205,0,43.02,12.19,-5.95,-0.070,0.148,1.227,0.00,0.00,-4.94,-13.34,-47.96,-25.52,-0.38,-1.07,20.39,-40.76,-9.07,35.25,1277,1323,1365,1255,1305,1496,1505,11828,722
67217,0,39.80,-9.67,-4.21,0.009,0.168,1.098,0.00,0.00,-5.51,-12.97,-45.32,-3.30,-0.42,-1.10,20.56,-35.31,38.45,31.08,1277,1323,1365,1255,1305,1496,1505,11828,722
67229,0,37.37,-22.15,-3.17,0.131,0.200,0.947,0.00,0.00,-6.12,-12.57,-43.49,9.57,-0.45,-1.10,20.73,-30.75,56.25,28.65,1363,1307,1359,1191,1305,1495,1505,11803,723
67241,0,37.46,-20.95,-2.65,0.178,0.236,0.906,0.00,0.00,-6.84,-12.31,-44.30,8.64,-0.49,-1.12,20.90,-31.65,51.70,27.52,1363,1307,1359,1191,1305,1495,1505,11832,723
67253,0,35.74,-28.99,-2.57,0.277,0.216,0.803,0.00,0.00,-7.53,-11.97,-43.27,17.02,-0.53,-1.10,21.05,-32.64,52.52,27.46,1363,1307,1359,1191,1306,1495,1505,11820,723
67265,0,33.68,-24.92,-3.80,0.430,0.200,0.735,0.00,0.00,-8.13,-11.89,-41.80,13.03,-0.56,-1.06,21.21,-34.54,1.06,30.71,1363,1307,1359,1191,1306,1495,1505,11820,723
67277,0,32.98,-17.33,-4.55,0.556,0.234,0.678,0.00,0.00,-8.79,-12.31,-41.77,5.02,-0.59,-1.05,21.39,-34.77,-10.70,32.77,1363,1307,1359,1191,1306,1495,1505,11861,723
67289,0,29.62,-1.58,-5.78,0.449,0.267,0.736,0.00,0.00,-9.40,-12.84,-39.02,-11.26,-0.62,-1.06,21.57,-31.10,-42.25,36.02,1363,1307,1359,1191,1306,1495,1505,11886,723
67301,0,23.62,-0.56,-6.72,0.377,0.280,0.731,0.00,0.00,-9.86,-13.27,-33.47,-12.71,-0.65,-1.08,21.75,-23.40,-32.49,38.54,1363,1307,1359,1191,1306,1495,1505,11882,723
67313,0,19.72,-5.03,-7.81,0.358,0.270,0.728,0.00,0.00,-10.10,-13.56,-29.82,-8.53,-0.67,-1.08,21.94,-20.08,-32.87,41.47,1363,1307,1359,1191,1306,1495,1505,11895,723
67325,0,15.80,-6.72,-7.95,0.315,0.234,0.760,0.00,0.00,-10.18,-13.75,-25.98,-7.04,-0.69,-1.09,22.16,-13.32,-32.30,42.04,1363,1307,1359,1191,1306,1496,1505,11899,723
67337,0,12.38,-8.88,-7.89,0.290,0.210,0.767,0.00,0.00,-10.16,-13.92,-22.54,-5.04,-0.71,-1.10,22.42,-6.83,-3.92,42.15,1127,1355,1345,1397,1306,1496,1505,11903,723
67349,0,9.38,1.61,-7.88,0.162,0.182,0.885,0.00,0.00,-10.16,-14.06,-19.54,-15.67,-0.73,-1.15,22.69,1.90,-16.61,42.38,1127,1355,1345,1397,1306,1496,1505,11857,723
67361,0,6.57,10.65,-8.75,-0.075,0.168,1.062,0.00,0.00,-10.22,-14.03,-16.78,-24.69,-0.76,-1.21,22.97,8.70,-19.97,44.85,1127,1355,1345,1397,1306,1496,1505,11853,723
67373,0,5.13,0.86,-9.53,-0.160,0.136,1.120,0.00,0.00,-10.30,-13.67,-15.43,-14.54,-0.78,-1.26,23.25,10.18,9.27,47.06,1127,1355,1345,1397,1305,1496,1505,11791,723
67385,0,5.66,1.58,-11.34,-0.203,0.134,1.158,0.00,0.00,-10.37,-13.22,-16.03,-14.79,-0.80,-1.30,23.57,5.44,-6.57,51.93,1127,1355,1345,1397,1305,1496,1505,11791,723
67397,0,4.37,4.87,-11.80,-0.220,0.123,1.170,0.00,0.00,-10.43,-12.73,-14.80,-17.60,-0.82,-1.33,23.91,5.82,-25.94,53.40,1127,1355,1345,1397,1305,1496,1505,11832,723
67409,0,5.35,8.83,-12.01,-0.224,0.125,1.189,0.00,0.00,-10.46,-12.18,-15.81,-21.00,-0.84,-1.35,24.24,1.67,-56.02,54.26,1127,1355,1345,1397,1305,1496,1505,11828,723
67421,0,3.63,-3.92,-11.59,-0.130,0.124,1.088,0.00,0.00,-10.39,-11.48,-14.03,-7.56,-0.86,-1.35,24.56,2.21,-31.55,53.53,1127,1355,1345,1397,1305,1496,1505,11828,723
67433,0,-0.41,-17.90,-11.07,0.036,0.157,0.948,0.00,0.00,-10.27,-10.75,-9.86,7.14,-0.87,-1.32,24.87,9.57,-6.82,52.56,1387,1349,1357,1127,1305,1496,1505,11811,719
67445,0,-6.87,-16.96,-11.19,0.153,0.206,0.908,0.00,0.00,-10.10,-10.24,-3.23,6.71,-0.88,-1.29,25.19,21.49,-19.65,53.16,1387,1349,1357,1127,1305,1496,1505,11816,719
67457,0,-10.30,-16.46,-10.94,0.127,0.236,0.976,0.00,0.00,-9.99,-9.80,0.32,6.65,-0.89,-1.27,25.51,28.45,-16.53,52.86,1387,1349,1357,1127,1305,1496,1505,11845,719
67469,0,-14.69,-35.48,-9.95,0.218,0.187,0.884,0.00,0.00,-9.85,-9.19,4.85,26.29,-0.90,-1.22,25.81,35.02,32.77,50.68,1387,1349,1357,1127,1305,1496,1505,11841,719
67481,0,-14.13,-39.37,-10.17,0.339,0.135,0.757,0.00,0.00,-9.74,-8.64,4.39,30.73,-0.91,-1.15,26.09,33.84,15.14,51.51,1387,1349,1357,1127,1305,1496,1505,11816,719
67493,0,-10.84,-32.11,-10.57,0.379,0.146,0.699,0.00,0.00,-9.69,-8.33,1.15,23.78,-0.92,-1.08,26.37,26.70,-21.07,52.78,1387,1349,1357,1127,1305,1496,1505,11791,719
67505,0,-6.25,-15.31,-11.33,0.277,0.160,0.822,0.00,0.00,-9.59,-8.14,-3.34,7.17,-0.93,-1.03,26.66,12.49,-64.69,54.98,1387,1349,1357,1127,1305,1495,1505,11811,719
67517,0,-12.10,-16.88,-10.42,0.214,0.049,0.861,0.00,0.00,-9.29,-7.88,2.82,9.00,-0.93,-0.99,26.96,19.39,-39.82,53.00,1387,1349,1357,1127,1305,1495,1505,11857,719
67529,0,-11.24,-11.05,-10.73,0.189,0.112,0.894,0.00,0.00,-9.08,-7.68,2.16,3.37,-0.94,-0.96,27.26,23.30,-43.91,54.08,1185,1379,1339,1317,1305,1495,1505,11849,719
67541,0,-12.22,3.95,-12.06,0.051,0.168,1.055,0.00,0.00,-8.95,-7.56,3.28,-11.51,-0.95,-0.96,27.58,28.33,-60.40,57.73,1185,1379,1339,1317,1305,1495,1505,11870,719
67553,0,-16.33,12.82,-12.58,-0.098,0.145,1.214,0.00,0.00,-8.80,-7.47,7.53,-20.29,-0.96,-0.99,27.92,36.36,-50.34,59.38,1185,1379,1339,1317,1305,1495,1505,11832,719
67565,0,-17.59,1.65,-11.52,-0.123,0.077,1.203,0.00,0.00,-8.61,-7.16,8.97,-8.81,-0.97,-1.02,28.23,37.40,-4.64,57.03,1185,1379,1339,1317,1306,1496,1505,11824,719
67577,0,-17.90,-14.96,-10.71,0.060,0.006,0.972,0.00,0.00,-8.34,-6.70,9.56,8.27,-0.97,-1.00,28.51,34.05,25.28,55.28,1185,1379,1339,1317,1306,1496,1505,11791,719
67589,0,-12.88,-14.79,-10.80,0.171,0.009,0.887,0.00,0.00,-8.07,-6.41,4.81,8.38,-0.98,-0.98,28.79,20.91,-1.63,55.79,1185,1379,1339,1317,1306,1496,1505,11841,719
67601,0,-9.21,-12.50,-11.29,0.147,0.010,0.898,0.00,0.00,-7.81,-6.22,1.40,6.28,-0.98,-0.96,29.09,9.65,-4.03,57.30,1185,1379,1339,1317,1306,1496,1505,11841,719
67613,0,-7.04,-14.07,-11.05,0.130,0.019,0.875,0.00,0.00,-7.50,-5.87,-0.46,8.20,-0.98,-0.93,29.36,2.15,-17.69,56.99,1185,1379,1339,1317,1305,1496,1505,11845,719
67625,0,-8.38,-23.33,-10.52,0.182,0.055,0.800,0.00,0.00,-7.12,-5.53,1.25,17.81,-0.98,-0.88,29.64,3.87,1.06,55.94,1185,1379,1339,1317,1305,1496,1505,11849,719
67637,0,-14.56,-22.46,-10.58,0.197,0.089,0.804,0.00,0.00,-6.71,-5.28,7.85,17.18,-0.97,-0.84,29.92,14.46,4.35,56.37,1225,1321,1397,1277,1305,1496,1505,11849,723
67649,0,-20.41,-24.93,-9.98,0.220,0.097,0.819,0.00,0.00,-6.33,-4.99,14.08,19.94,-0.97,-0.79,30.19,26.12,12.16,55.15,1225,1321,1397,1277,1305,1496,1505,11878,723
67661,0,-22.44,-22.71,-9.24,0.181,0.082,0.860,0.00,0.00,-6.00,-4.54,16.44,18.17,-0.96,-0.73,30.44,29.96,-17.96,53.54,1225,1321,1397,1277,1305,1496,1505,11878,723
67673,0,-23.45,-21.73,-9.11,0.169,0.058,0.846,0.00,0.00,-5.66,-4.12,17.80,17.61,-0.95,-0.67,30.68,29.13,-30.09,53.47,1225,1321,1397,1277,1305,1496,1505,11878,723
67685,0,-22.46,-12.15,-9.41,0.085,0.061,0.922,0.00,0.00,-5.33,-3.83,17.12,8.32,-0.94,-0.63,30.95,23.77,-38.04,54.47,1225,1321,1397,1277,1305,1496,1505,11849,723
67697,0,-22.05,6.80,-9.98,-0.130,0.093,1.102,0.00,0.00,-5.09,-3.60,16.96,-10.40,-0.93,-0.64,31.22,22.73,-58.49,56.17,1225,1321,1397,1277,1305,1496,1505,11861,723
67709,0,-22.23,24.80,-10.51,-0.413,0.122,1.288,0.00,0.00,-4.80,-3.39,17.44,-28.19,-0.92,-0.67,31.49,19.85,-78.66,57.76,1225,1321,1397,1277,1305,1496,1505,11824,723
67721,0,-26.04,29.85,-11.68,-0.574,0.087,1.438,0.00,0.00,-4.36,-3.19,21.68,-33.04,-0.90,-0.73,31.77,22.52,-62.89,60.96,1225,1321,1397,1277,1305,1496,1505,11820,723
67733,0,-27.02,21.67,-11.47,-0.578,0.064,1.458,0.00,0.00,-3.88,-2.79,23.14,-24.46,-0.88,-0.76,32.05,23.93,-39.36,60.72,1298,1358,1352,1212,1305,1496,1505,11774,724
67745,0,-27.22,5.18,-8.14,-0.424,0.090,1.321,0.00,0.00,-3.43,-2.26,23.79,-7.45,-0.87,-0.78,32.30,26.17,7.41,52.64,1298,1358,1352,1212,1305,1496,1505,11774,724
67757,0,-26.43,-4.95,-6.75,-0.220,0.067,1.192,0.00,0.00,-2.88,-1.59,23.55,3.36,-0.84,-0.77,32.53,20.52,5.79,49.42,1298,1358,1352,1212,1305,1496,1505,11795,724
67769,0,-23.48,-25.41,-4.59,-0.015,0.047,0.992,0.00,0.00,-2.22,-0.76,21.26,24.65,-0.82,-0.71,32.75,7.12,29.83,44.23,1298,1358,1352,1212,1305,1496,1505,11807,724
67781,0,-22.95,-59.45,-3.46,0.268,0.010,0.730,0.00,0.00,-1.43,0.24,21.52,59.69,-0.79,-0.59,32.94,-0.57,84.93,41.60,1298,1358,1352,1212,1305,1496,1505,11824,724
67793,0,-17.48,-64.40,-4.50,0.481,0.052,0.580,0.00,0.00,-0.69,0.89,16.79,65.29,-0.76,-0.45,33.14,-11.70,53.29,44.39,1298,1358,1352,1212,1305,1496,1505,11832,724
67805,0,-14.99,-44.68,-5.41,0.452,0.146,0.589,0.00,0.00,-0.17,1.07,14.82,45.75,-0.72,-0.33,33.33,-15.84,-13.86,46.86,1298,1358,1352,1212,1305,1496,1505,11836,724
67817,0,-15.89,-33.58,-7.11,0.435,0.141,0.688,0.00,0.00,0.39,1.09,16.27,34.67,-0.69,-0.23,33.53,-18.08,-27.40,51.31,1298,1358,1352,1212,1305,1496,1505,11824,724
67829,0,-9.37,-16.64,-7.50,0.318,0.155,0.809,0.00,0.00,0.89,0.99,10.26,17.63,-0.65,-0.17,33.73,-31.41,-44.19,52.48,1240,1432,1282,1266,1305,1496,1505,11807,724
67841,0,-3.87,-17.60,-5.30,0.214,0.136,0.827,0.00,0.00,1.38,0.96,5.25,18.56,-0.62,-0.12,33.93,-42.52,-5.93,47.19,1240,1432,1282,1266,1305,1496,1505,11811,724
67853,0,-3.88,-29.13,-5.12,0.316,0.109,0.745,0.00,0.00,1.91,1.03,5.79,30.15,-0.59,-0.07,34.14,-41.10,49.75,46.95,1240,1432,1282,1266,1306,1496,1505,11816,724
67865,0,1.10,-41.42,-5.10,0.562,0.113,0.519,0.00,0.00,2.48,0.78,1.38,42.20,-0.55,-0.00,34.37,-47.74,76.73,47.12,1240,1432,1282,1266,1306,1495,1505,11816,724
67877,0,3.44,-28.54,-6.22,0.679,0.123,0.456,0.00,0.00,3.02,-0.07,-0.42,28.47,-0.52,0.06,34.60,-47.99,21.98,50.15,1240,1432,1282,1266,1306,1495,1505,11778,724
67889,0,3.20,-24.66,-7.02,0.777,0.131,0.449,0.00,0.00,3.42,-1.31,0.22,23.35,-0.49,0.08,34.86,-43.38,51.45,52.40,1240,1432,1282,1266,1307,1495,1505,11791,724
67901,0,4.50,-23.56,-6.58,0.783,0.144,0.424,0.00,0.00,3.58,-2.59,-0.93,20.96,-0.47,0.12,35.08,-40.16,26.67,51.53,1240,1432,1282,1266,1307,1496,1505,11799,724
67913,0,4.78,-16.90,-6.45,0.741,0.132,0.460,0.00,0.00,3.63,-3.99,-1.16,12.91,-0.45,0.14,35.32,-38.49,14.94,51.44,1240,1432,1282,1266,1307,1496,1505,11816,724
67925,0,5.45,-6.83,-7.13,0.588,0.146,0.607,0.00,0.00,3.60,-5.21,-1.85,1.62,-0.43,0.14,35.57,-37.24,3.07,53.39,1240,1432,1282,1266,1305,1496,1505,11799,724
67937,0,3.28,-5.92,-7.31,0.541,0.168,0.634,0.00,0.00,3.55,-6.20,0.27,-0.28,-0.41,0.13,35.81,-30.77,10.78,54.09,1177,1359,1377,1307,1305,1496,1505,11811,719
67949,0,-0.23,12.83,-9.04,0.401,0.195,0.814,0.00,0.00,3.52,-7.14,3.75,-19.97,-0.38,0.09,36.07,-23.85,-38.30,58.66,1177,1359,1377,1307,1305,1496,1505,11832,719
67961,0,2.43,15.00,-9.45,0.261,0.221,0.953,0.00,0.00,3.47,-7.83,1.04,-22.83,-0.36,0.04,36.33,-29.40,-18.13,59.97,1177,1359,1377,1307,1305,1496,1505,11824,719
67973,0,3.69,9.58,-7.84,0.217,0.195,0.942,0.00,0.00,3.47,-8.25,-0.21,-17.83,-0.34,-0.00,36.56,-34.01,-9.89,56.16,1177,1359,1377,1307,1305,1496,1505,11841,719
67985,0,2.38,13.65,-6.29,0.091,0.170,1.019,0.00,0.00,3.59,-8.60,1.21,-22.25,-0.32,-0.06,36.79,-34.07,-10.94,52.52,1177,1359,1377,1307,1305,1496,1505,11820,719
67997,0,-1.71,6.55,-5.75,0.092,0.126,1.033,0.00,0.00,3.80,-8.80,5.52,-15.34,-0.29,-0.11,37.03,-27.45,16.11,51.41,1177,1359,1377,1307,1305,1496,1505,11795,719
68009,0,-1.95,13.91,-5.68,-0.060,0.126,1.149,0.00,0.00,4.07,-9.01,6.02,-22.92,-0.27,-0.17,37.27,-27.39,1.77,51.48,1177,1359,1377,1307,1305,1496,1505,11795,719
68021,0,-6.76,-2.66,-5.58,-0.094,0.076,1.123,0.00,0.00,4.42,-8.85,11.17,-6.19,-0.24,-0.21,37.49,-19.59,45.10,51.44,1177,1359,1377,1307,1305,1496,1505,11795,719
68033,0,-9.03,-9.79,-6.85,-0.024,0.026,1.128,0.00,0.00,4.88,-8.53,13.90,1.25,-0.21,-0.23,37.72,-20.27,39.52,54.84,1265,1321,1393,1241,1305,1496,1505,11791,719
68045,0,-8.25,-11.02,-6.80,-0.043,0.009,1.198,0.00,0.00,5.31,-8.14,13.56,2.88,-0.17,-0.24,37.93,-25.31,28.85,54.94,1265,1321,1393,1241,1305,1496,1505,11799,719
68057,0,-9.89,-17.22,-5.10,0.027,-0.049,1.138,0.00,0.00,5.78,-7.61,15.67,9.61,-0.13,-0.22,38.09,-25.31,16.90,50.84,1265,1321,1393,1241,1305,1496,1505,11778,719
68069,0,-13.99,-26.29,-1.74,0.068,-0.089,1.021,0.00,0.00,6.34,-7.17,20.34,19.12,-0.09,-0.19,38.20,-22.19,40.98,42.56,1265,1321,1393,1241,1305,1496,1505,11803,719
68081,0,-20.12,-43.44,-0.47,0.245,-0.135,0.826,0.00,0.00,7.01,-6.75,27.14,36.69,-0.05,-0.14,38.30,-13.89,84.13,39.47,1265,1321,1393,1241,1305,1496,1505,11803,719
68093,0,-22.21,-35.95,-1.67,0.327,-0.124,0.784,0.00,0.00,7.71,-6.61,29.91,29.35,-0.00,-0.08,38.41,-10.26,39.30,42.58,1265,1321,1393,1241,1305,1496,1505,11803,719
68105,0,-26.24,-31.74,-1.62,0.241,-0.084,0.775,0.00,0.00,8.28,-6.47,34.51,25.27,0.04,-0.02,38.52,0.16,19.32,42.57,1265,1321,1393,1241,1305,1495,1505,11807,719
68117,0,-33.93,-29.79,-3.77,0.177,-0.076,0.860,0.00,0.00,8.78,-6.21,42.71,23.58,0.09,0.03,38.63,16.83,15.93,48.05,1265,1321,1393,1241,1305,1495,1505,11799,719
68129,0,-36.58,-16.96,-4.95,-0.015,-0.067,1.046,0.00,0.00,9.17,-5.75,45.75,11.21,0.13,0.07,38.75,24.17,-23.59,51.12,1207,1355,1357,1301,1305,1495,1505,11770,724
68141,0,-35.19,-7.26,-3.96,-0.261,-0.085,1.215,0.00,0.00,9.50,-5.19,44.70,2.06,0.17,0.09,38.88,22.87,-26.07,48.78,1207,1355,1357,1301,1305,1496,1505,11782,724
68153,0,-35.48,-9.13,-3.90,-0.317,-0.116,1.284,0.00,0.00,9.87,-4.49,45.35,4.64,0.21,0.10,39.00,24.64,-1.40,48.75,1207,1355,1357,1301,1306,1496,1505,11832,724
68165,0,-35.91,-4.42,-4.81,-0.324,-0.118,1.317,0.00,0.00,10.31,-3.70,46.22,0.72,0.26,0.12,39.11,24.26,-29.53,51.13,1207,1355,1357,1301,1306,1497,1504,11836,724
68177,0,-35.41,-5.38,-4.03,-0.318,-0.090,1.284,0.00,0.00,10.78,-2.91,46.20,2.47,0.31,0.15,39.21,23.51,-31.12,49.29,1207,1355,1357,1301,1306,1497,1504,11832,724
68189,0,-34.43,-12.52,-2.59,-0.234,-0.066,1.288,0.00,0.00,11.25,-2.18,45.67,10.34,0.35,0.19,39.28,23.38,-4.42,45.76,1207,1355,1357,1301,1306,1497,1504,11845,724
68201,0,-39.08,-9.35,-2.89,-0.346,-0.105,1.361,0.00,0.00,11.76,-1.51,50.84,7.84,0.40,0.21,39.35,30.73,-3.75,46.58,1207,1355,1357,1301,1306,1496,1505,11828,724
68213,0,-38.58,-25.87,-0.83,-0.316,-0.143,1.236,0.00,0.00,12.37,-0.61,50.94,25.26,0.45,0.25,39.42,25.87,49.43,41.49,1207,1355,1357,1301,1305,1496,1505,11853,724
68225,0,-40.79,-30.10,-0.90,-0.178,-0.136,1.124,0.00,0.00,13.03,0.36,53.83,30.45,0.50,0.32,39.48,29.40,40.33,41.74,1207,1355,1357,1301,1305,1496,1505,11845,724
68237,0,-42.23,-29.17,-1.98,-0.102,-0.097,1.067,0.00,0.00,13.71,1.26,55.95,30.44,0.56,0.39,39.52,32.45,18.38,44.49,1344,1286,1404,1186,1305,1496,1505,11841,723
68249,0,-43.90,-41.68,-2.07,0.081,-0.057,0.898,0.00,0.00,14.37,2.15,58.27,43.83,0.61,0.50,39.57,37.43,34.99,44.75,1344,1286,1404,1186,1305,1497,1503,11816,723
68261,0,-45.17,-48.43,-2.74,0.295,-0.026,0.726,0.00,0.00,15.05,2.82,60.22,51.25,0.67,0.63,39.60,39.50,22.10,46.45,1344,1286,1404,1186,1305,1497,1503,11816,723
68273,0,-43.37,-35.07,-3.57,0.324,0.002,0.732,0.00,0.00,15.58,3.18,58.95,38.25,0.73,0.74,39.63,36.38,-26.47,48.55,1344,1286,1404,1186,1306,1497,1503,11816,723
68285,0,-40.68,-23.77,-2.69,0.167,0.010,0.827,0.00,0.00,16.01,3.47,56.69,27.24,0.78,0.82,39.67,30.58,-35.20,46.40,1344,1286,1404,1186,1306,1496,1505,11795,723
68297,0,-40.07,-19.68,-2.75,0.103,0.005,0.867,0.00,0.00,16.40,3.76,56.47,23.44,0.84,0.88,39.72,30.41,-7.70,46.60,1344,1286,1404,1186,1306,1496,1505,11824,723
68309,0,-35.43,0.35,-4.52,-0.116,-0.010,1.064,0.00,0.00,16.78,3.99,52.21,3.64,0.90,0.90,39.79,23.75,-38.94,51.10,1344,1286,1404,1186,1305,1496,1505,11824,723
68321,0,-33.58,2.52,-4.83,-0.196,-0.028,1.140,0.00,0.00,17.14,4.13,50.72,1.61,0.95,0.90,39.89,23.14,-4.65,51.96,1344,1286,1404,1186,1305,1496,1505,11820,723
68333,0,-33.49,14.88,-5.97,-0.365,-0.059,1.265,0.00,0.00,17.48,4.18,50.97,-10.71,1.00,0.87,40.00,26.20,-11.79,54.94,1198,1372,1336,1314,1305,1496,1505,11791,724
68345,0,-29.77,14.51,-6.30,-0.495,-0.101,1.371,0.00,0.00,17.79,4.39,47.56,-10.12,1.05,0.85,40.12,21.39,-5.68,55.88,1198,1372,1336,1314,1305,1496,1505,11774,724
68357,0,-24.06,5.25,-4.23,-0.476,-0.077,1.333,0.00,0.00,18.02,4.78,42.08,-0.48,1.09,0.85,40.23,14.40,13.79,50.81,1198,1372,1336,1314,1305,1496,1505,11753,724
68369,0,-22.91,5.17,-3.52,-0.414,-0.015,1.298,0.00,0.00,18.14,5.20,41.05,0.03,1.14,0.85,40.31,16.66,-1.75,49.12,1198,1372,1336,1314,1305,1496,1505,11807,724
68381,0,-24.58,6.02,-3.67,-0.377,0.033,1.314,0.00,0.00,18.24,5.57,42.83,-0.45,1.18,0.86,40.38,21.87,-10.10,49.55,1198,1372,1336,1314,1305,1496,1505,11811,724
68393,0,-28.13,-2.42,-3.28,-0.293,0.063,1.258,0.00,0.00,18.34,5.97,46.46,8.38,1.23,0.88,40.45,31.13,10.29,48.65,1198,1372,1336,1314,1305,1496,1505,11803,724
68405,0,-31.23,0.31,-3.79,-0.283,0.071,1.265,0.00,0.00,18.43,6.28,49.66,5.97,1.27,0.90,40.53,40.11,3.11,50.02,1198,1372,1336,1314,1305,1496,1505,11791,724
68417,0,-33.52,4.35,-4.25,-0.296,0.044,1.266,0.00,0.00,18.56,6.62,52.08,2.27,1.32,0.91,40.61,46.61,-11.91,51.24,1198,1372,1336,1314,1305,1496,1505,11757,724
68429,0,-32.14,12.02,-4.59,-0.337,0.034,1.327,0.00,0.00,18.69,6.93,50.82,-5.09,1.36,0.92,40.70,43.63,-43.20,52.16,1167,1357,1357,1339,1305,1496,1505,11741,719
68441,0,-27.94,12.89,-4.04,-0.351,0.042,1.349,0.00,0.00,18.77,7.19,46.72,-5.70,1.40,0.93,40.80,36.19,-38.69,50.90,1167,1357,1357,1339,1305,1496,1504,11761,719
68453,0,-24.73,10.67,-4.25,-0.327,0.037,1.334,0.00,0.00,18.84,7.48,43.57,-3.20,1.44,0.94,40.90,31.41,-29.54,51.53,1167,1357,1357,1339,1306,1496,1504,11782,719
68465,0,-20.59,16.51,-4.95,-0.384,0.077,1.375,0.00,0.00,18.87,7.71,39.46,-8.80,1.48,0.93,41.00,26.18,-43.20,53.38,1167,1357,1357,1339,1306,1496,1504,11791,719
68477,0,-20.39,18.09,-5.66,-0.440,0.081,1.435,0.00,0.00,18.93,7.89,39.32,-10.20,1.52,0.92,41.11,26.34,-34.62,55.26,1167,1357,1357,1339,1306,1496,1504,11816,719
68489,0,-17.56,10.04,-6.23,-0.494,0.054,1.465,0.00,0.00,19.03,8.12,36.59,-1.92,1.56,0.91,41.24,20.02,5.17,56.80,1167,1357,1357,1339,1306,1496,1504,11820,719
68501,0,-10.93,-6.32,-4.83,-0.445,0.019,1.383,0.00,0.00,19.14,8.82,30.08,15.14,1.60,0.95,41.33,6.93,20.90,53.40,1167,1357,1357,1339,1306,1496,1504,11791,719
68513,0,-3.64,-22.83,-2.49,-0.329,0.007,1.215,0.00,0.00,19.29,9.89,22.93,32.72,1.64,1.03,41.39,-9.36,21.63,47.62,1167,1357,1357,1339,1305,1496,1504,11807,719
68525,0,3.91,-42.82,0.35,-0.198,0.049,1.056,0.00,0.00,19.41,11.16,15.51,53.98,1.68,1.15,41.43,-26.35,50.91,40.56,1167,1357,1357,1339,1305,1496,1505,11799,719
68537,0,7.79,-63.90,1.41,0.051,0.077,0.880,0.00,0.00,19.45,12.46,11.66,76.36,1.72,1.30,41.46,-32.66,95.11,37.93,1240,1286,1416,1278,1305,1496,1505,11782,715
68549,0,13.16,-68.32,1.46,0.265,0.108,0.732,0.00,0.00,19.36,13.43,6.20,81.74,1.75,1.47,41.49,-38.72,89.86,37.83,1240,1286,1416,1278,1305,1496,1505,11774,715
68561,0,14.52,-62.79,1.84,0.403,0.119,0.616,0.00,0.00,19.14,13.84,4.62,76.64,1.78,1.63,41.50,-37.00,69.64,36.89,1240,1286,1416,1278,1305,1496,1505,11782,715
68573,0,13.13,-48.75,0.22,0.431,0.080,0.689,0.00,0.00,18.86,13.85,5.74,62.60,1.81,1.75,41.53,-30.65,53.51,40.98,1240,1286,1416,1278,1305,1496,1505,11786,715
68585,0,17.31,-29.78,0.10,0.319,0.006,0.775,0.00,0.00,18.53,13.70,1.21,43.48,1.83,1.85,41.56,-33.44,9.75,41.31,1240,1286,1416,1278,1305,1496,1505,11782,715
68597,0,18.93,-11.01,0.38,0.209,-0.051,0.870,0.00,0.00,18.26,13.32,-0.67,24.34,1.85,1.91,41.62,-33.82,-3.79,40.67,1240,1286,1416,1278,1305,1496,1505,11774,715
68609,0,18.62,5.74,-0.30,0.046,-0.071,0.996,0.00,0.00,18.01,12.83,-0.61,7.09,1.87,1.92,41.70,-28.72,-1.75,42.45,1240,1286,1416,1278,1305,1496,1505,11732,715
68621,0,17.35,-1.80,0.56,0.068,-0.107,0.892,0.00,0.00,17.77,12.46,0.42,14.25,1.88,1.93,41.76,-20.18,44.46,40.35,1240,1286,1416,1278,1305,1496,1505,11745,715
68633,0,16.38,-7.10,-0.36,0.222,-0.145,0.777,0.00,0.00,17.64,12.06,1.26,19.16,1.89,1.95,41.81,-15.39,43.12,42.71,1289,1307,1391,1233,1305,1496,1505,11774,719
68645,0,18.40,-9.87,-0.05,0.380,-0.147,0.645,0.00,0.00,17.49,11.42,-0.91,21.29,1.90,1.99,41.86,-14.84,36.89,41.98,1289,1307,1391,1233,1305,1496,1505,11766,719
68657,0,23.17,-3.98,-0.03,0.416,-0.123,0.590,0.00,0.00,17.25,10.53,-5.92,14.51,1.91,2.02,41.90,-21.07,7.42,41.97,1289,1307,1391,1233,1305,1496,1505,11736,719
68669,0,29.37,3.73,-0.91,0.348,-0.074,0.655,0.00,0.00,16.91,9.56,-12.45,5.83,1.91,2.04,41.97,-32.92,-7.83,44.24,1289,1307,1391,1233,1305,1496,1505,11761,719
68681,0,34.15,18.07,-2.31,0.145,0.009,0.881,0.00,0.00,16.41,8.72,-17.74,-9.35,1.91,2.02,42.08,-40.32,-26.18,47.87,1289,1307,1391,1233,1305,1496,1505,11761,719
68693,0,35.63,20.44,-2.08,-0.040,0.083,1.027,0.00,0.00,15.80,8.13,-19.82,-12.31,1.91,1.98,42.19,-40.07,-1.23,47.39,1289,1307,1391,1233,1305,1496,1505,11761,719
68705,0,31.76,19.27,-2.49,-0.113,0.077,1.095,0.00,0.00,15.26,7.70,-16.50,-11.57,1.91,1.94,42.30,-32.10,13.32,48.52,1289,1307,1391,1233,1305,1496,1505,11745,719
68717,0,31.46,13.92,-3.12,-0.059,0.073,1.095,0.00,0.00,14.80,7.32,-16.66,-6.60,1.92,1.90,42.44,-32.68,36.35,50.25,1289,1307,1391,1233,1305,1496,1505,11761,719
68729,0,31.82,23.60,-3.02,-0.035,0.061,1.126,0.00,0.00,14.33,6.84,-17.49,-16.76,1.92,1.86,42.57,-32.37,-0.44,50.11,1287,1387,1323,1223,1305,1496,1505,11778,718
68741,0,33.09,25.74,-2.26,-0.035,0.045,1.138,0.00,0.00,13.86,6.21,-19.23,-19.53,1.91,1.80,42.71,-35.17,4.77,48.36,1287,1387,1323,1223,1305,1495,1505,11795,718
68753,0,31.19,28.90,-1.63,-0.109,0.022,1.167,0.00,0.00,13.42,5.49,-17.77,-23.41,1.91,1.72,42.85,-33.83,16.02,46.94,1287,1387,1323,1223,1305,1495,1505,11824,718
68765,0,32.08,13.58,-2.81,-0.136,-0.038,1.159,0.00,0.00,13.05,5.01,-19.03,-8.57,1.92,1.66,43.02,-38.92,69.67,50.04,1287,1387,1323,1223,1306,1496,1505,11811,718
68777,0,35.24,-2.69,-3.84,-0.056,-0.087,1.052,0.00,0.00,12.76,4.92,-22.47,7.62,1.92,1.64,43.18,-45.03,81.28,52.78,1287,1387,1323,1223,1306,1496,1505,11845,718
68789,0,34.88,-13.86,-3.94,0.067,-0.121,0.885,0.00,0.00,12.53,5.00,-22.35,18.86,1.91,1.66,43.31,-42.72,66.81,53.16,1287,1387,1323,1223,1306,1496,1504,11807,718
68801,0,31.20,-39.80,-3.59,0.293,-0.130,0.651,0.00,0.00,12.39,5.05,-18.82,44.85,1.91,1.73,43.42,-34.68,105.47,52.39,1287,1387,1323,1223,1306,1496,1504,11803,718
68813,0,25.54,-44.27,-3.07,0.382,-0.127,0.555,0.00,0.00,12.26,4.93,-13.28,49.20,1.91,1.83,43.50,-22.32,73.08,51.17,1287,1387,1323,1223,1306,1496,1504,11774,718
68825,0,22.69,-48.91,-1.81,0.467,-0.153,0.457,0.00,0.00,12.18,4.58,-10.51,53.50,1.91,1.94,43.54,-15.82,62.44,48.08,1287,1387,1323,1223,1305,1496,1505,11774,718
68837,0,28.01,-55.88,0.22,0.575,-0.137,0.323,0.00,0.00,12.03,4.08,-15.98,59.96,1.90,2.08,43.57,-21.92,50.51,43.02,1356,1264,1426,1174,1305,1496,1505,11761,719
68849,0,30.92,-43.34,-0.76,0.712,-0.096,0.315,0.00,0.00,11.52,3.15,-19.40,46.50,1.88,2.20,43.63,-19.73,12.43,45.53,1356,1264,1426,1174,1305,1496,1505,11774,719
68861,0,38.08,-11.53,-1.08,0.573,-0.107,0.498,0.00,0.00,10.62,1.95,-27.46,13.49,1.85,2.25,43.67,-21.25,-43.29,46.38,1356,1264,1426,1174,1305,1496,1505,11791,719
68873,0,38.24,11.11,-4.32,0.360,-0.139,0.703,0.00,0.00,9.81,0.67,-28.43,-10.44,1.83,2.22,43.78,-22.65,-25.40,54.57,1356,1264,1426,1174,1305,1496,1505,11791,719
68885,0,43.29,29.13,-4.62,0.112,-0.195,0.907,0.00,0.00,8.88,-0.35,-34.41,-29.48,1.80,2.15,43.89,-29.18,-32.17,55.45,1356,1264,1426,1174,1305,1496,1505,11791,719
68897,0,48.59,33.68,-3.65,0.013,-0.247,0.934,0.00,0.00,7.94,-1.28,-40.65,-34.96,1.76,2.06,44.01,-35.73,-14.15,53.13,1356,1264,1426,1174,1305,1496,1505,11774,719
68909,0,49.72,33.49,-3.55,0.083,-0.230,0.913,0.00,0.00,7.01,-2.31,-42.71,-35.80,1.72,1.97,44.13,-34.86,-4.77,53.01,1356,1264,1426,1174,1305,1496,1505,11741,719
68921,0,46.93,32.28,-3.05,0.097,-0.158,0.911,0.00,0.00,5.96,-3.37,-40.96,-35.65,1.68,1.88,44.25,-23.30,7.14,51.88,1356,1264,1426,1174,1305,1496,1505,11732,719
68933,0,44.98,24.01,-2.11,0.103,-0.058,0.873,0.00,0.00,4.78,-4.28,-40.20,-28.29,1.63,1.80,44.34,-14.63,21.47,49.60,1187,1393,1329,1311,1305,1496,1505,11766,715
68945,0,37.87,22.33,-2.71,0.110,0.002,0.888,0.00,0.00,3.58,-5.10,-34.29,-27.43,1.58,1.73,44.44,0.09,6.63,51.21,1187,1393,1329,1311,1305,1496,1505,11757,715
68957,0,30.25,28.15,-4.35,0.063,-0.018,0.985,0.00,0.00,2.40,-5.93,-27.85,-34.08,1.54,1.65,44.57,13.58,-2.42,55.45,1187,1393,1329,1311,1305,1496,1505,11782,715
68969,0,30.03,41.98,-6.29,-0.086,-0.058,1.185,0.00,0.00,1.32,-6.71,-28.72,-48.69,1.49,1.54,44.74,8.03,-35.62,60.47,1187,1393,1329,1311,1305,1496,1505,11795,715
68981,0,31.89,41.65,-6.11,-0.184,-0.103,1.285,0.00,0.00,0.32,-7.38,-31.57,-49.03,1.45,1.43,44.91,-1.08,-24.89,60.19,1187,1393,1329,1311,1305,1496,1505,11741,715
68993,0,33.23,38.57,-5.14,-0.149,-0.112,1.240,0.00,0.00,-0.59,-7.99,-33.82,-46.56,1.40,1.32,45.08,-6.34,-14.14,57.93,1187,1393,1329,1311,1306,1496,1505,11761,715
69005,0,30.95,31.41,-4.30,-0.084,-0.105,1.162,0.00,0.00,-1.41,-8.48,-32.36,-39.88,1.36,1.22,45.23,-4.26,-5.90,55.99,1187,1393,1329,1311,1305,1496,1504,11753,715
69017,0,24.13,16.86,-4.67,0.043,-0.117,1.068,0.00,0.00,-2.09,-8.86,-26.22,-25.72,1.32,1.15,45.38,5.16,19.40,57.05,1187,1393,1329,1311,1305,1496,1504,11791,715
69029,0,20.91,12.31,-5.36,0.107,-0.109,1.037,0.00,0.00,-2.74,-9.29,-23.65,-21.61,1.29,1.09,45.56,9.87,22.74,58.97,1261,1333,1395,1235,1306,1497,1504,11807,714
69041,0,19.04,15.35,-6.37,0.078,-0.108,1.051,0.00,0.00,-3.35,-9.66,-22.39,-25.01,1.25,1.03,45.73,11.54,-7.48,61.65,1261,1333,1395,1235,1306,1497,1504,11791,714
69053,0,17.65,7.28,-6.94,0.066,-0.101,1.011,0.00,0.00,-3.92,-9.91,-21.56,-17.18,1.21,0.99,45.89,11.22,6.60,63.24,1261,1333,1395,1235,1305,1497,1504,11824,714
69065,0,17.27,1.32,-7.25,0.064,-0.056,0.985,0.00,0.00,-4.51,-10.01,-21.79,-11.33,1.17,0.95,46.05,10.78,22.07,64.17,1261,1333,1395,1235,1305,1497,1504,11807,714
69077,0,14.95,13.91,-7.66,-0.124,-0.002,1.153,0.00,0.00,-5.17,-9.98,-20.12,-23.89,1.14,0.91,46.21,14.65,-27.12,65.37,1261,1333,1395,1235,1305,1497,1504,11807,714
69089,0,12.53,3.93,-7.21,-0.229,-0.024,1.235,0.00,0.00,-5.79,-9.70,-18.32,-13.63,1.10,0.87,46.38,16.85,16.44,64.39,1261,1333,1395,1235,1305,1496,1504,11799,714
69101,0,16.27,-3.59,-5.05,-0.207,-0.055,1.187,0.00,0.00,-6.41,-9.34,-22.67,-5.75,1.06,0.83,46.55,9.88,38.48,59.18,1261,1333,1395,1235,1305,1496,1504,11791,714
69113,0,22.07,-7.47,-3.37,-0.127,-0.085,1.097,0.00,0.00,-7.02,-8.96,-29.09,-1.49,1.02,0.81,46.69,-1.20,42.50,55.13,1261,1333,1395,1235,1306,1496,1504,11770,714
69125,0,25.44,-9.44,-3.68,0.059,-0.098,1.019,0.00,0.00,-7.58,-8.70,-33.02,0.75,0.97,0.81,46.80,-9.37,25.24,56.00,1261,1333,1395,1235,1306,1496,1505,11774,714
69137,0,27.37,-14.47,-3.81,0.251,-0.106,0.886,0.00,0.00,-8.13,-8.76,-35.50,5.72,0.93,0.79,46.89,-10.49,48.83,56.41,1297,1405,1315,1207,1306,1496,1505,11791,723
69149,0,27.06,-25.62,-4.55,0.535,-0.125,0.665,0.00,0.00,-8.46,-9.10,-35.52,16.52,0.89,0.82,46.95,-8.51,47.28,58.32,1297,1405,1315,1207,1305,1496,1505,11770,723
69161,0,25.35,-19.37,-3.73,0.623,-0.081,0.615,0.00,0.00,-8.62,-9.80,-33.97,9.57,0.84,0.87,46.99,-4.45,-21.93,56.31,1297,1405,1315,1207,1305,1496,1505,11774,723
69173,0,16.32,-25.17,-1.50,0.624,-0.052,0.510,0.00,0.00,-8.90,-10.67,-25.22,14.50,0.80,0.91,47.00,17.98,1.96,50.75,1297,1405,1315,1207,1305,1496,1505,11778,723
69185,0,7.03,-8.09,-1.66,0.568,-0.039,0.513,0.00,0.00,-9.28,-11.69,-16.30,-3.60,0.76,0.91,47.03,38.65,-29.36,51.18,1297,1405,1315,1207,1305,1496,1505,11778,723
69197,0,5.41,18.06,-2.82,0.357,-0.006,0.695,0.00,0.00,-9.75,-12.61,-15.16,-30.67,0.71,0.88,47.09,41.57,-91.58,54.15,1297,1405,1315,1207,1305,1496,1505,11795,723
69209,0,11.87,30.97,-2.66,0.185,0.044,0.826,0.00,0.00,-10.41,-13.31,-22.28,-44.29,0.67,0.81,47.16,27.94,-100.23,53.81,1297,1405,1315,1207,1305,1496,1505,11795,723
69221,0,17.93,35.08,-2.07,0.064,0.100,0.911,0.00,0.00,-11.13,-13.91,-29.06,-48.99,0.62,0.72,47.22,15.04,-69.44,52.39,1297,1405,1315,1207,1305,1496,1505,11791,723
69233,0,22.48,16.09,-1.12,0.134,0.139,0.831,0.00,0.00,-11.90,-14.29,-34.39,-30.38,0.57,0.64,47.23,7.37,3.08,50.03,1330,1350,1348,1192,1305,1496,1505,11807,723
69245,0,23.60,13.25,-1.29,0.188,0.191,0.826,0.00,0.00,-12.66,-14.56,-36.26,-27.82,0.52,0.59,47.21,6.78,-21.75,50.44,1330,1350,1348,1192,1306,1496,1505,11770,723
69257,0,19.51,7.94,-0.84,0.229,0.249,0.881,0.00,0.00,-13.35,-14.84,-32.86,-22.78,0.47,0.55,47.19,14.36,-31.39,49.30,1330,1350,1348,1192,1306,1496,1505,11741,723
69269,0,11.63,10.39,-0.60,0.162,0.223,0.970,0.00,0.00,-13.95,-15.10,-25.58,-25.49,0.43,0.50,47.18,28.10,-33.22,48.69,1330,1350,1348,1192,1306,1496,1505,11753,723
69281,0,6.32,9.00,-0.62,0.111,0.158,1.022,0.00,0.00,-14.37,-15.21,-20.69,-24.21,0.39,0.45,47.18,31.04,-27.73,48.73,1330,1350,1348,1192,1306,1496,1505,11753,723
69293,0,1.84,18.47,-1.81,0.036,0.075,1.078,0.00,0.00,-14.59,-15.28,-16.43,-33.75,0.35,0.40,47.17,31.44,-66.92,51.69,1330,1350,1348,1192,1306,1496,1505,11774,723
69305,0,-0.95,19.12,-2.08,0.005,0.024,1.081,0.00,0.00,-14.70,-15.42,-13.75,-34.54,0.32,0.32,47.17,30.23,-38.87,52.37,1330,1350,1348,1192,1306,1496,1505,11770,723
69317,0,0.46,14.95,-2.43,0.020,0.010,1.067,0.00,0.00,-14.69,-15.44,-15.15,-30.39,0.29,0.26,47.17,18.50,-22.78,53.25,1330,1350,1348,1192,1306,1496,1505,11753,723
69329,0,4.85,11.26,-2.14,0.049,0.030,1.078,0.00,0.00,-14.61,-15.37,-19.45,-26.63,0.27,0.21,47.17,3.22,-35.18,52.54,1216,1390,1326,1292,1306,1496,1505,11736,721
69341,0,6.06,-0.92,-0.16,0.090,0.060,1.040,0.00,0.00,-14.48,-15.23,-20.54,-14.31,0.24,0.19,47.16,-2.51,-11.28,47.57,1216,1390,1326,1292,1306,1497,1504,11741,721
69353,0,-0.01,-13.90,0.74,0.189,0.029,0.930,0.00,0.00,-14.30,-15.12,-14.29,-1.22,0.22,0.17,47.15,8.89,28.54,45.30,1216,1390,1326,1292,1306,1497,1504,11741,721
69365,0,-1.98,-10.48,0.24,0.142,0.022,0.957,0.00,0.00,-14.15,-14.97,-12.18,-4.49,0.20,0.15,47.14,14.01,19.82,46.53,1216,1390,1326,1292,1306,1496,1504,11724,721
69377,0,-1.57,-5.53,-2.02,0.049,0.026,1.033,0.00,0.00,-14.03,-14.58,-12.46,-9.05,0.18,0.14,47.13,13.62,-23.98,52.18,1216,1390,1326,1292,1306,1496,1504,11728,721
69389,0,-0.13,-6.41,-2.73,0.005,0.040,1.063,0.00,0.00,-13.96,-14.10,-13.83,-7.68,0.16,0.15,47.13,11.45,-50.28,53.96,1216,1390,1326,1292,1306,1496,1504,11778,721
69401,0,0.71,-18.13,-1.56,-0.018,0.045,0.991,0.00,0.00,-14.04,-13.55,-14.75,4.58,0.13,0.17,47.11,14.15,-5.85,51.01,1216,1390,1326,1292,1306,1496,1504,11774,721
69413,0,0.61,-14.35,-1.23,0.093,0.035,0.905,0.00,0.00,-14.24,-13.16,-14.85,1.19,0.10,0.16,47.08,19.83,-0.16,50.16,1216,1390,1326,1292,1306,1496,1504,11816,721
69425,0,0.75,14.80,-1.54,0.099,0.068,0.998,0.00,0.00,-14.50,-13.20,-15.25,-28.00,0.07,0.13,47.07,22.47,-75.91,50.93,1216,1390,1326,1292,1305,1496,1505,11791,721
69437,0,3.70,27.80,0.01,-0.013,0.103,1.096,0.00,0.00,-14.85,-13.43,-18.55,-41.23,0.03,0.07,47.05,20.14,-89.21,47.02,1313,1339,1355,1213,1305,1496,1505,11824,717
69449,0,6.07,20.03,1.87,-0.021,0.106,0.999,0.00,0.00,-15.31,-13.64,-21.38,-33.67,-0.01,0.01,47.03,21.56,-41.32,42.36,1313,1339,1355,1213,1305,1496,1505,11820,717
69461,0,5.46,20.90,2.09,-0.009,0.078,0.939,0.00,0.00,-15.73,-13.88,-21.20,-34.78,-0.06,-0.07,47.01,26.11,-24.58,41.78,1313,1339,1355,1213,1305,1496,1505,11807,717
69473,0,7.32,21.89,1.24,0.074,0.042,0.866,0.00,0.00,-16.13,-14.21,-23.46,-36.10,-0.11,-0.16,46.98,26.25,-13.69,43.88,1313,1339,1355,1213,1306,1496,1505,11807,717
69485,0,12.42,26.11,-0.02,0.186,0.060,0.841,0.00,0.00,-16.55,-14.69,-28.97,-40.79,-0.16,-0.24,46.95,19.26,-38.31,47.01,1313,1339,1355,1213,1306,1496,1505,11807,717
69497,0,15.89,28.63,-0.17,0.217,0.098,0.822,0.00,0.00,-17.07,-15.46,-32.96,-44.08,-0.21,-0.33,46.90,17.26,-37.72,47.33,1313,1339,1355,1213,1306,1496,1505,11824,717
69509,0,16.72,19.02,-0.23,0.288,0.094,0.787,0.00,0.00,-17.61,-16.30,-34.33,-35.32,-0.27,-0.42,46.85,17.93,-0.07,47.43,1313,1339,1355,1213,1305,1496,1505,11749,717
69521,0,19.55,35.84,-0.82,0.225,0.132,0.906,0.00,0.00,-18.16,-17.28,-37.71,-53.12,-0.33,-0.54,46.80,13.72,-54.34,48.86,1313,1339,1355,1213,1305,1496,1505,11745,717
69533,0,12.63,12.99,3.30,0.193,-0.010,0.801,0.00,0.00,-18.55,-18.08,-31.18,-31.07,-0.38,-0.64,46.71,26.67,45.58,38.47,1283,1423,1273,1241,1305,1496,1505,11757,719
69545,0,1.98,13.91,2.00,0.174,-0.125,0.784,0.00,0.00,-18.86,-18.74,-20.84,-32.65,-0.44,-0.75,46.67,44.41,40.21,41.67,1283,1423,1273,1241,1306,1496,1505,11753,719
69557,0,6.24,31.92,1.08,0.111,-0.183,0.918,0.00,0.00,-19.08,-19.32,-25.32,-51.24,-0.49,-0.86,46.63,27.97,-43.66,43.93,1283,1423,1273,1241,1306,1496,1505,11732,719
69569,0,6.15,17.51,2.45,0.176,-0.244,0.899,0.00,0.00,-19.23,-19.87,-25.38,-37.38,-0.54,-0.95,46.55,24.94,0.14,40.44,1283,1423,1273,1241,1306,1496,1505,11716,719
69581,0,11.12,29.27,2.63,0.203,-0.249,0.938,0.00,0.00,-19.38,-20.63,-30.50,-49.90,-0.60,-1.07,46.46,13.60,-26.81,39.87,1283,1423,1273,1241,1306,1496,1505,11732,719
69593,0,12.75,31.68,4.29,0.163,-0.265,0.942,0.00,0.00,-19.38,-21.41,-32.13,-53.09,-0.65,-1.18,46.33,7.74,-44.49,35.59,1283,1423,1273,1241,1306,1496,1505,11753,719
69605,0,12.66,17.76,5.76,0.209,-0.278,0.806,0.00,0.00,-19.31,-22.18,-31.97,-39.94,-0.70,-1.29,46.18,7.95,14.79,31.78,1283,1423,1273,1241,1306,1496,1505,11770,719
69617,0,10.13,15.64,6.18,0.222,-0.288,0.765,0.00,0.00,-19.17,-22.87,-29.31,-38.51,-0.75,-1.39,46.03,12.45,4.50,30.59,1283,1423,1273,1241,1306,1496,1505,11791,719
69629,0,13.34,21.95,5.23,0.241,-0.257,0.826,0.00,0.00,-19.12,-23.59,-32.45,-45.54,-0.80,-1.50,45.88,5.59,-25.08,32.81,1244,1358,1318,1304,1306,1496,1505,11803,723
69641,0,15.79,19.97,5.36,0.285,-0.209,0.840,0.00,0.00,-19.19,-24.38,-34.98,-44.35,-0.85,-1.61,45.72,3.43,-11.46,32.33,1244,1358,1318,1304,1306,1497,1504,11791,723
69653,0,17.07,15.71,5.02,0.365,-0.170,0.815,0.00,0.00,-19.27,-25.15,-36.34,-40.86,-0.90,-1.71,45.53,1.71,-10.28,32.99,1244,1358,1318,1304,1306,1497,1504,11774,723
69665,0,17.74,27.44,4.43,0.305,-0.116,0.920,0.00,0.00,-19.38,-25.99,-37.12,-53.43,-0.96,-1.82,45.35,1.92,-50.08,34.29,1244,1358,1318,1304,1306,1496,1504,11774,723
69677,0,13.40,19.66,5.03,0.213,-0.108,0.988,0.00,0.00,-19.46,-26.68,-32.85,-46.35,-1.01,-1.93,45.18,12.11,-12.96,32.61,1244,1358,1318,1304,1306,1496,1504,11807,723
69689,0,8.77,8.09,5.93,0.192,-0.132,0.963,0.00,0.00,-19.52,-27.15,-28.29,-35.24,-1.06,-2.04,45.01,22.25,33.38,30.19,1244,1358,1318,1304,1307,1496,1504,11807,723
69701,0,8.32,1.87,6.28,0.200,-0.154,0.895,0.00,0.00,-19.56,-27.37,-27.88,-29.24,-1.11,-2.13,44.82,22.97,27.17,29.12,1244,1358,1318,1304,1307,1496,1504,11803,723
69713,0,7.51,1.27,5.90,0.271,-0.176,0.823,0.00,0.00,-19.53,-27.61,-27.04,-28.89,-1.16,-2.20,44.62,22.24,-0.22,29.87,1244,1358,1318,1304,1307,1496,1504,11774,723
69725,0,5.82,9.95,5.20,0.219,-0.177,0.850,0.00,0.00,-19.49,-28.03,-25.32,-37.99,-1.21,-2.29,44.42,22.43,-21.17,31.43,1244,1358,1318,1304,1305,1496,1505,11774,723
69737,0,5.74,19.39,4.56,0.130,-0.192,0.873,0.00,0.00,-19.48,-28.54,-25.22,-47.92,-1.26,-2.42,44.25,21.18,-14.30,32.85,1275,1427,1229,1289,1305,1496,1505,11774,723
69749,0,3.49,16.20,4.69,0.059,-0.230,0.881,0.00,0.00,-19.40,-28.90,-22.89,-45.11,-1.31,-2.55,44.08,24.35,15.35,32.35,1275,1427,1229,1289,1305,1496,1505,11782,723
69761,0,2.25,12.48,5.55,-0.007,-0.261,0.926,0.00,0.00,-19.31,-29.01,-21.56,-41.49,-1.36,-2.67,43.91,25.16,23.60,30.04,1275,1427,1229,1289,1305,1496,1505,11778,723
69773,0,2.41,-10.12,7.06,0.178,-0.295,0.847,0.00,0.00,-19.27,-28.90,-21.68,-18.79,-1.41,-2.74,43.72,28.00,62.14,26.06,1275,1427,1229,1289,1306,1496,1505,11703,723
69785,0,5.18,-6.19,8.45,0.282,-0.275,0.880,0.00,0.00,-19.32,-28.96,-24.50,-22.78,-1.46,-2.82,43.51,23.45,30.21,22.39,1275,1427,1229,1289,1306,1496,1505,11716,723
69797,0,11.52,0.62,9.51,0.313,-0.277,0.933,0.00,0.00,-19.60,-29.10,-31.12,-29.72,-1.52,-2.89,43.26,15.07,-10.90,19.48,1275,1427,1229,1289,1306,1496,1505,11703,723
69809,0,22.12,10.10,9.71,0.240,-0.219,0.979,0.00,0.00,-20.06,-29.38,-42.18,-39.47,-1.58,-2.97,43.00,-5.66,-31.90,18.72,1275,1427,1229,1289,1305,1496,1505,11732,723
69821,0,27.54,11.06,9.56,0.157,-0.170,0.993,0.00,0.00,-20.60,-29.59,-48.13,-40.65,-1.64,-3.07,42.73,-16.81,-24.04,18.83,1275,1427,1229,1289,1305,1496,1505,11724,723
69833,0,30.44,8.14,11.13,0.082,-0.127,1.005,0.00,0.00,-21.17,-29.70,-51.61,-37.85,-1.70,-3.16,42.45,-22.99,-7.07,14.64,1213,1359,1299,1349,1305,1496,1505,11741,722
69845,0,32.04,1.80,12.28,0.060,-0.103,0.961,0.00,0.00,-21.69,-29.58,-53.73,-31.37,-1.76,-3.24,42.17,-30.83,-9.72,11.47,1213,1359,1299,1349,1306,1496,1505,11745,722
69857,0,34.32,10.99,11.11,0.000,-0.103,1.011,0.00,0.00,-22.16,-29.49,-56.48,-40.48,-1.81,-3.33,41.94,-38.00,-35.31,14.17,1213,1359,1299,1349,1306,1496,1505,11786,722
69869,0,36.84,-1.01,9.92,-0.068,-0.163,1.027,0.00,0.00,-22.52,-29.10,-59.36,-28.09,-1.87,-3.40,41.73,-44.85,-3.07,16.94,1213,1359,1299,1349,1306,1496,1505,11795,722
69881,0,43.86,-5.30,7.73,-0.086,-0.197,1.139,0.00,0.00,-22.82,-28.42,-66.67,-23.12,-1.93,-3.44,41.57,-58.86,-19.35,22.25,1213,1359,1299,1349,1306,1496,1505,11807,722
