time_ms,flags,gyro_x,gyro_y,gyro_z,accel_x,accel_y,accel_z,roll,pitch,rate_sp_roll,rate_sp_pitch,rate_err_roll,rate_err_pitch,rate_i_roll,rate_i_pitch,rate_i_yaw,pid_roll,pid_pitch,pid_yaw,m1,m2,m3,m4,rc_thr,rc_roll,rc_pitch,battery_mv,loop_us
125709,0,-0.00,-0.01,0.05,0.042,-0.027,1.001,0.00,0.00,-0.24,-0.33,-0.24,-0.32,-0.00,-0.00,-0.00,-0.08,-0.12,-0.13,1000,1000,1000,1000,1031,1496,1508,12427,711
125721,0,0.05,0.01,-0.01,0.042,-0.027,1.001,0.00,0.00,-0.24,-0.33,-0.30,-0.33,-0.00,-0.00,-0.00,-0.12,-0.19,0.03,1000,1000,1000,1000,1031,1496,1507,12432,711
125733,0,0.06,-0.02,0.01,0.042,-0.027,1.001,0.00,0.00,-0.24,-0.33,-0.30,-0.31,-0.00,-0.00,-0.00,-0.08,-0.13,-0.04,1100,1100,1100,1100,1031,1496,1507,12432,714
125745,0,0.02,-0.01,0.03,0.042,-0.026,1.000,0.00,0.00,-0.25,-0.33,-0.26,-0.32,-0.00,-0.00,-0.00,-0.03,-0.14,-0.07,1100,1100,1100,1100,1032,1497,1507,12427,714
125757,0,0.03,0.02,0.02,0.042,-0.026,1.000,0.00,0.00,-0.25,-0.33,-0.28,-0.36,-0.00,-0.00,-0.00,-0.09,-0.26,-0.04,1100,1100,1100,1100,1032,1497,1507,12432,714
125769,0,0.01,0.03,-0.00,0.041,-0.027,1.000,0.00,0.00,-0.25,-0.33,-0.26,-0.36,-0.00,-0.00,-0.00,-0.07,-0.09,0.01,1100,1100,1100,1100,1032,1496,1507,12432,714
125781,0,0.01,0.00,0.02,0.041,-0.027,0.999,0.00,0.00,-0.25,-0.33,-0.26,-0.34,-0.00,-0.01,-0.00,-0.06,-0.15,-0.04,1100,1100,1100,1100,1032,1496,1507,12427,714
125793,0,0.01,-0.00,0.01,0.042,-0.026,0.999,0.00,0.00,-0.25,-0.34,-0.26,-0.34,-0.00,-0.01,-0.00,-0.05,-0.19,-0.04,1100,1100,1100,1100,1032,1496,1507,12432,714
125805,0,-0.01,-0.03,-0.00,0.042,-0.026,1.001,0.00,0.00,-0.25,-0.34,-0.24,-0.31,-0.00,-0.01,-0.00,-0.05,-0.05,0.01,1100,1100,1100,1100,1032,1496,1508,12432,714
125817,0,-0.01,-0.04,0.08,0.042,-0.027,1.000,0.00,0.00,-0.25,-0.34,-0.24,-0.30,-0.00,-0.01,-0.01,-0.02,0.04,-0.20,1100,1100,1100,1100,1032,1496,1508,12419,714
125829,0,0.01,-0.05,-0.02,0.041,-0.028,1.000,0.00,0.00,-0.25,-0.34,-0.27,-0.29,-0.00,-0.01,-0.01,-0.08,-0.08,0.03,1100,1100,1100,1100,1031,1496,1508,12415,714
125841,0,-0.00,-0.03,-0.07,0.042,-0.028,0.999,0.00,0.00,-0.25,-0.34,-0.25,-0.31,-0.00,-0.01,-0.00,-0.03,-0.13,0.18,1100,1100,1100,1100,1031,1496,1509,12415,714
125853,0,0.02,-0.03,0.00,0.042,-0.027,1.000,0.00,0.00,-0.25,-0.34,-0.27,-0.31,-0.00,-0.01,-0.00,-0.12,-0.12,-0.00,1100,1100,1100,1100,1031,1496,1509,12415,714
125865,0,0.07,-0.06,-0.08,0.043,-0.027,1.000,0.00,0.00,-0.25,-0.34,-0.32,-0.29,-0.00,-0.01,-0.00,-0.20,-0.14,0.21,1100,1100,1100,1100,1031,1497,1509,12415,714
125877,0,0.07,-0.02,0.02,0.042,-0.026,1.001,0.00,0.00,-0.25,-0.34,-0.32,-0.32,-0.00,-0.01,0.00,-0.14,-0.21,-0.06,1100,1100,1100,1100,1031,1497,1509,12415,714
125889,0,0.00,0.04,0.20,0.043,-0.026,1.002,0.00,0.00,-0.26,-0.35,-0.26,-0.39,-0.01,-0.01,-0.01,-0.04,-0.35,-0.50,1100,1100,1100,1100,1031,1496,1509,12402,714
125901,0,-0.01,-0.10,-0.11,0.042,-0.026,1.002,0.00,0.00,-0.26,-0.35,-0.24,-0.25,-0.01,-0.01,-0.01,0.01,0.33,0.26,1100,1100,1100,1100,1031,1498,1507,12402,714
125913,0,-0.03,-0.35,0.25,0.043,-0.022,1.002,0.00,0.00,-0.26,-0.35,-0.23,0.00,-0.01,-0.01,-0.01,-0.04,0.61,-0.64,1100,1100,1100,1100,1031,1498,1507,12402,714
125925,0,0.09,0.40,-0.13,0.037,-0.025,1.006,0.00,0.00,-0.27,-0.35,-0.36,-0.75,-0.01,-0.01,-0.01,-0.12,-1.59,0.32,1100,1100,1100,1100,1031,1496,1509,12394,714
125937,0,0.11,0.44,-0.57,0.036,-0.025,1.008,0.00,0.00,-0.27,-0.35,-0.38,-0.79,-0.01,-0.02,0.00,-0.10,-0.85,1.42,1100,1100,1100,1100,1031,1496,1509,12390,717
125949,0,-0.24,1.07,0.57,0.028,-0.024,1.015,0.00,0.00,-0.28,-0.36,-0.04,-1.43,-0.01,-0.02,0.00,0.77,-1.34,-1.43,1100,1100,1100,1100,1031,1496,1509,12365,717
125961,0,-0.04,1.18,0.74,0.026,-0.026,1.014,0.00,0.00,-0.28,-0.36,-0.24,-1.53,-0.01,-0.02,-0.02,-0.00,-2.14,-1.89,1100,1100,1100,1100,1031,1496,1509,12365,717
125973,0,-0.03,-0.13,-0.52,0.031,-0.030,1.004,0.00,0.00,-0.27,-0.34,-0.25,-0.21,-0.01,-0.02,-0.02,-0.05,2.86,1.29,1100,1100,1100,1100,1031,1496,1509,12377,717
125985,0,0.10,0.46,-0.09,0.041,-0.027,0.996,0.00,0.00,-0.27,-0.35,-0.38,-0.81,-0.01,-0.03,-0.01,-0.40,-1.56,0.22,1100,1100,1100,1100,1031,1496,1509,12352,717
125997,0,-0.31,0.55,0.03,0.046,-0.029,0.996,0.00,0.00,-0.26,-0.36,0.05,-0.92,-0.01,-0.03,-0.01,0.25,-0.88,-0.08,1100,1100,1100,1100,1031,1496,1509,12319,717
126009,0,-0.23,1.76,-0.16,0.024,-0.034,1.016,0.00,0.00,-0.23,-0.38,-0.00,-2.14,-0.01,-0.03,-0.01,0.14,-2.95,0.39,1100,1100,1100,1100,1031,1496,1509,12315,717
126021,0,-0.15,2.26,0.30,0.015,-0.036,1.023,0.00,0.00,-0.22,-0.39,-0.07,-2.65,-0.01,-0.04,-0.01,-0.01,-2.54,-0.77,1100,1100,1100,1100,1031,1496,1509,12298,717
126033,0,-0.19,1.73,0.25,0.019,-0.039,1.027,0.00,0.00,-0.20,-0.38,-0.01,-2.11,-0.01,-0.04,-0.02,0.18,-1.24,-0.65,1100,1100,1100,1100,1031,1496,1509,12261,717
126045,0,0.23,0.82,-0.25,0.028,-0.029,1.026,0.00,0.00,-0.20,-0.39,-0.43,-1.21,-0.01,-0.05,-0.01,-0.14,0.85,0.61,1100,1100,1100,1100,1031,1497,1509,12273,717
126057,0,0.07,-0.60,0.15,0.047,-0.027,1.007,0.00,0.00,-0.20,-0.39,-0.28,0.21,-0.01,-0.05,-0.01,0.19,3.59,-0.39,1100,1100,1100,1100,1031,1497,1509,12240,717
126069,0,0.05,0.16,0.11,0.050,-0.028,0.996,0.00,0.00,-0.20,-0.42,-0.25,-0.58,-0.01,-0.05,-0.02,0.49,0.24,-0.30,1100,1100,1100,1100,1031,1496,1509,12211,717
126081,0,0.08,0.30,-0.15,0.047,-0.025,1.005,0.00,0.00,-0.20,-0.45,-0.28,-0.75,-0.01,-0.05,-0.01,0.24,1.37,0.36,1100,1100,1100,1100,1031,1496,1509,12211,717
126093,0,0.03,-1.19,0.30,0.071,-0.025,0.982,0.00,0.00,-0.20,-0.46,-0.22,0.73,-0.01,-0.05,-0.02,-0.37,2.44,-0.77,1100,1100,1100,1100,1031,1496,1509,12228,717
126105,0,0.05,0.28,0.47,0.063,-0.028,0.989,0.00,0.00,-0.20,-0.49,-0.24,-0.78,-0.01,-0.05,-0.03,-0.54,-3.48,-1.20,1100,1100,1100,1100,1031,1496,1509,12223,717
126117,0,-0.20,0.79,-0.27,0.051,-0.035,0.992,0.00,0.00,-0.19,-0.52,0.01,-1.31,-0.01,-0.05,-0.03,0.00,-3.66,0.65,1100,1100,1100,1100,1031,1496,1509,12240,717
126129,0,0.04,1.40,-0.01,0.037,-0.023,1.003,0.00,0.00,-0.19,-0.55,-0.23,-1.95,-0.01,-0.06,-0.02,-0.10,-2.91,0.01,1100,1100,1100,1100,1031,1497,1509,12223,714
126141,0,0.39,0.78,-0.16,0.022,-0.026,1.018,0.00,0.00,-0.20,-0.55,-0.60,-1.33,-0.01,-0.06,-0.02,-0.67,0.93,0.38,1100,1100,1100,1100,1031,1497,1509,12232,714
126153,0,0.18,0.00,-0.10,0.032,-0.027,1.014,0.00,0.00,-0.20,-0.53,-0.39,-0.53,-0.01,-0.06,-0.02,0.04,1.72,0.23,1100,1100,1100,1100,1031,1497,1509,12240,714
126165,0,-0.06,0.60,0.17,0.028,-0.031,1.013,0.00,0.00,-0.20,-0.52,-0.14,-1.12,-0.01,-0.06,-0.02,0.08,-1.25,-0.44,1100,1100,1100,1100,1031,1497,1509,12244,714
126177,0,0.13,-0.29,-0.14,0.039,-0.029,1.003,0.00,0.00,-0.20,-0.51,-0.33,-0.22,-0.01,-0.07,-0.02,-0.13,1.27,0.33,1100,1100,1100,1100,1031,1497,1509,12232,714
126189,0,-0.53,-0.84,0.31,0.035,-0.022,1.006,0.00,0.00,-0.20,-0.48,0.33,0.36,-0.01,-0.07,-0.02,0.94,1.64,-0.79,1100,1100,1100,1100,1031,1497,1509,12223,714
126201,0,-0.03,0.50,-0.42,0.036,-0.040,1.000,0.00,0.00,-0.19,-0.47,-0.16,-0.97,-0.01,-0.07,-0.02,-0.77,-3.92,1.02,1100,1100,1100,1100,1031,1497,1509,12240,714
126213,0,0.78,0.71,0.01,0.033,-0.017,0.996,0.00,0.00,-0.21,-0.47,-0.98,-1.18,-0.01,-0.07,-0.01,-1.72,-3.11,-0.03,1100,1100,1100,1100,1031,1497,1509,12232,714
126225,0,-0.82,-1.08,0.53,0.046,-0.018,0.996,0.00,0.00,-0.21,-0.45,0.60,0.63,-0.01,-0.07,-0.03,1.11,4.11,-1.36,1100,1100,1100,1100,1031,1497,1509,12240,714
126237,0,-0.55,0.52,-0.73,0.043,-0.022,1.008,0.00,0.00,-0.21,-0.46,0.34,-0.98,-0.01,-0.07,-0.02,0.73,-1.75,1.81,1100,1100,1100,1100,1031,1497,1509,12240,714
126249,0,0.14,0.30,0.69,0.027,-0.012,1.017,0.00,0.00,-0.23,-0.48,-0.37,-0.78,-0.01,-0.08,-0.03,0.07,3.72,-1.76,1100,1100,1100,1100,1031,1497,1509,12253,714
126261,0,-0.03,0.45,-0.83,0.044,-0.020,1.009,0.00,0.00,-0.24,-0.49,-0.20,-0.94,-0.01,-0.08,-0.01,-0.22,-0.58,2.06,1100,1100,1100,1100,1031,1497,1509,12257,714
126273,0,0.83,0.78,0.76,0.015,-0.026,1.024,0.00,0.00,-0.24,-0.49,-1.07,-1.27,-0.01,-0.08,-0.02,-1.40,-0.52,-1.92,1100,1100,1100,1100,1031,1497,1509,12261,714
126285,0,-0.20,0.41,-0.82,0.025,-0.020,1.002,0.00,0.00,-0.25,-0.45,-0.05,-0.86,-0.01,-0.08,-0.01,0.51,-1.43,2.04,1100,1100,1100,1100,1031,1497,1509,12261,714
126297,0,1.40,1.07,0.54,0.016,-0.044,1.011,0.00,0.00,-0.25,-0.41,-1.66,-1.49,-0.01,-0.08,-0.01,-2.69,-6.20,-1.36,1100,1100,1100,1100,1031,1497,1509,12257,714
126309,0,-0.05,-0.85,-0.66,0.040,-0.009,0.990,0.00,0.00,-0.27,-0.38,-0.22,0.47,-0.02,-0.08,-0.01,0.85,1.29,1.64,1100,1100,1100,1100,1031,1497,1509,12261,714
126321,0,0.18,0.06,0.33,0.033,-0.047,1.000,0.00,0.00,-0.27,-0.37,-0.45,-0.43,-0.02,-0.08,0.00,-0.35,-2.25,-0.81,1100,1100,1100,1100,1031,1497,1509,12265,714
126333,0,-0.48,-1.56,-0.49,0.050,-0.017,0.995,0.00,0.00,-0.27,-0.35,0.22,1.21,-0.02,-0.08,0.00,0.79,3.52,1.22,1100,1100,1100,1100,1031,1497,1509,12290,714
126345,0,0.38,-0.07,0.28,0.029,-0.045,1.007,0.00,0.00,-0.26,-0.34,-0.64,-0.28,-0.02,-0.08,0.01,-1.01,-2.36,-0.69,1100,1100,1100,1100,1031,1497,1509,12290,714
126357,0,-0.96,-0.57,-0.44,0.052,-0.020,0.977,0.00,0.00,-0.26,-0.32,0.70,0.24,-0.02,-0.08,0.01,1.54,0.18,1.12,1100,1100,1100,1100,1031,1497,1509,12294,714
126369,0,1.30,0.20,0.36,0.031,-0.043,0.998,0.00,0.00,-0.25,-0.34,-1.55,-0.55,-0.02,-0.08,0.01,-3.06,-2.12,-0.89,1100,1100,1100,1100,1032,1497,1509,12307,714
126381,0,-0.22,2.49,-0.79,0.028,-0.022,0.999,0.00,0.00,-0.25,-0.34,-0.03,-2.83,-0.02,-0.08,0.02,-0.06,-9.48,1.98,1100,1100,1100,1100,1032,1497,1509,12311,714
126393,0,0.94,-0.41,0.30,0.025,-0.031,1.003,0.00,0.00,-0.24,-0.35,-1.18,0.06,-0.02,-0.08,0.02,-2.06,6.52,-0.72,1100,1100,1100,1100,1032,1497,1509,12290,714
126405,0,0.47,-1.53,-0.26,0.047,-0.014,0.994,0.00,0.00,-0.25,-0.30,-0.72,1.23,-0.02,-0.08,0.02,-1.82,0.88,0.68,1100,1100,1100,1100,1032,1497,1509,12294,714
126417,0,0.50,1.70,0.33,0.016,-0.023,1.011,0.00,0.00,-0.27,-0.31,-0.77,-2.01,-0.02,-0.08,0.02,0.18,-8.49,-0.81,1100,1100,1100,1100,1032,1497,1509,12311,714
126429,0,0.16,-1.61,-0.36,0.062,-0.018,0.992,0.00,0.00,-0.29,-0.29,-0.45,1.31,-0.02,-0.08,0.03,0.03,6.11,0.92,1100,1100,1100,1100,1032,1497,1508,12286,718
126441,0,0.85,-1.75,0.02,0.041,-0.005,0.989,0.00,0.00,-0.32,-0.29,-1.17,1.46,-0.02,-0.08,0.02,-0.16,3.12,-0.02,1100,1100,1100,1100,1032,1497,1509,12282,718
126453,0,0.08,-1.07,-0.35,0.068,-0.044,0.999,0.00,0.00,-0.32,-0.30,-0.40,0.76,-0.02,-0.07,0.03,1.37,-1.27,0.90,1100,1100,1100,1100,1032,1497,1509,12273,718
126465,0,-1.95,0.15,-0.05,0.030,-0.023,1.021,0.00,0.00,-0.34,-0.30,1.60,-0.45,-0.02,-0.08,0.02,4.67,0.81,0.15,1100,1100,1100,1100,1031,1497,1509,12273,718
126477,0,2.28,3.76,-0.21,0.007,-0.014,1.064,0.00,0.00,-0.38,-0.35,-2.67,-4.11,-0.02,-0.09,0.03,-4.00,-6.90,0.56,1100,1100,1100,1100,1031,1497,1509,12261,718
126489,0,0.48,0.62,-0.22,0.026,-0.025,1.041,0.00,0.00,-0.37,-0.33,-0.85,-0.96,-0.02,-0.09,0.04,-1.96,5.86,0.60,1100,1100,1100,1100,1031,1497,1509,12265,718
126501,0,-1.22,4.80,-0.25,-0.017,-0.018,1.060,0.00,0.00,-0.38,-0.37,0.84,-5.16,-0.02,-0.10,0.05,2.92,-8.60,0.67,1100,1100,1100,1100,1031,1497,1509,12265,718
126513,0,0.03,5.46,-0.23,0.046,-0.051,1.042,0.00,0.00,-0.35,-0.42,-0.38,-5.87,-0.02,-0.11,0.06,-1.37,-10.15,0.64,1100,1100,1100,1100,1031,1497,1509,12257,718
126525,0,-1.32,-4.04,0.39,0.063,-0.027,0.982,0.00,0.00,-0.34,-0.42,0.98,3.62,-0.02,-0.11,0.07,2.17,23.13,-0.92,1100,1100,1100,1100,1031,1497,1509,12257,718
126537,0,2.62,-1.23,-0.51,0.090,-0.036,0.972,0.00,0.00,-0.34,-0.48,-2.95,0.75,-0.02,-0.11,0.07,-4.93,-0.89,1.35,1100,1100,1100,1100,1031,1497,1509,12269,718
126549,0,0.16,-3.60,-0.16,0.092,-0.042,0.940,0.00,0.00,-0.31,-0.47,-0.48,3.13,-0.02,-0.10,0.07,-1.44,2.20,0.46,1100,1100,1100,1100,1031,1497,1509,12290,718
126561,0,-2.09,-2.23,-0.47,0.073,-0.006,0.947,0.00,0.00,-0.31,-0.51,1.78,1.72,-0.02,-0.10,0.07,4.94,-1.62,1.24,1100,1100,1100,1100,1031,1497,1509,12286,718
126573,0,-1.19,-0.51,0.37,0.087,-0.032,0.963,0.00,0.00,-0.29,-0.56,0.90,-0.04,-0.02,-0.10,0.08,1.14,-1.66,-0.85,1100,1100,1100,1100,1031,1497,1509,12278,718
126585,0,-2.57,3.54,-0.23,-0.007,-0.013,1.029,0.00,0.00,-0.32,-0.57,2.25,-4.11,-0.02,-0.10,0.09,3.69,-9.76,0.66,1100,1100,1100,1100,1031,1497,1509,12282,718
126597,0,3.37,4.55,-0.15,0.009,0.004,1.054,0.00,0.00,-0.35,-0.62,-3.72,-5.17,-0.02,-0.11,0.10,-7.85,-7.99,0.47,1100,1100,1100,1100,1031,1497,1509,12282,718
126609,0,0.18,4.30,-0.75,-0.003,-0.019,1.077,0.00,0.00,-0.35,-0.66,-0.53,-4.96,-0.02,-0.13,0.13,-2.59,4.78,2.01,1100,1100,1100,1100,1031,1497,1509,12290,718
126621,0,-1.49,10.47,-1.98,-0.076,0.022,1.151,0.00,0.00,-0.40,-0.71,1.09,-11.18,-0.02,-0.15,0.15,3.62,-20.63,5.11,1100,1100,1100,1100,1031,1497,1509,12290,718
126633,0,0.57,9.10,-0.28,-0.051,-0.003,1.137,0.00,0.00,-0.43,-0.70,-0.99,-9.80,-0.02,-0.17,0.16,-1.82,-15.92,0.85,1100,1100,1100,1100,1031,1497,1509,12273,714
126645,0,-2.95,2.17,-0.51,-0.062,-0.003,1.129,0.00,0.00,-0.46,-0.67,2.49,-2.84,-0.02,-0.18,0.18,4.90,17.78,1.46,1100,1100,1100,1100,1031,1496,1509,12269,714
126657,0,1.68,9.75,0.07,-0.097,0.008,1.187,0.00,0.00,-0.53,-0.69,-2.21,-10.44,-0.02,-0.20,0.19,-2.65,-12.63,0.01,1100,1100,1100,1100,1031,1496,1509,12248,714
126669,0,2.75,4.10,-0.39,-0.035,0.013,1.137,0.00,0.00,-0.61,-0.66,-3.36,-4.76,-0.03,-0.22,0.22,-6.23,7.75,1.18,1100,1100,1100,1100,1031,1497,1509,12265,714
126681,0,-0.58,5.95,-1.39,-0.055,0.039,1.123,0.00,0.00,-0.70,-0.66,-0.12,-6.61,-0.03,-0.24,0.23,2.97,-1.46,3.72,1100,1100,1100,1100,1031,1498,1508,12273,714
126693,0,0.82,3.13,-0.45,-0.002,0.011,1.072,0.00,0.00,-0.77,-0.62,-1.59,-3.75,-0.03,-0.24,0.25,-0.68,-1.05,1.38,1100,1100,1100,1100,1031,1498,1508,12273,714
126705,0,-1.37,-1.26,-0.91,0.011,-0.009,1.023,0.00,0.00,-0.82,-0.56,0.55,0.70,-0.03,-0.25,0.27,2.00,10.97,2.55,1100,1100,1100,1100,1031,1498,1508,12282,714
126717,0,-0.04,-1.02,0.43,0.021,-0.001,1.022,0.00,0.00,-0.87,-0.52,-0.83,0.50,-0.03,-0.24,0.26,0.71,-3.10,-0.82,1100,1100,1100,1100,1031,1498,1508,12294,714
126729,0,0.66,-0.89,-0.20,0.062,-0.029,0.994,0.00,0.00,-0.86,-0.50,-1.52,0.39,-0.03,-0.24,0.28,-2.39,3.06,0.77,1100,1100,1100,1100,1031,1498,1508,12290,714
126741,0,-2.76,-0.39,-0.79,0.000,-0.009,1.047,0.00,0.00,-0.87,-0.45,1.90,-0.06,-0.03,-0.24,0.29,4.85,-1.50,2.27,1100,1100,1100,1100,1031,1497,1508,12286,714
126753,0,1.35,2.18,-0.22,0.029,0.004,1.034,0.00,0.00,-0.91,-0.49,-2.26,-2.67,-0.03,-0.25,0.30,-2.39,-3.00,0.85,1100,1100,1100,1100,1031,1497,1508,12273,714
126765,0,2.41,4.23,-0.84,0.016,-0.021,1.050,0.00,0.00,-0.93,-0.50,-3.34,-4.73,-0.03,-0.26,0.32,-6.18,-6.37,2.43,1100,1100,1100,1100,1031,1497,1508,12273,714
126777,0,-0.53,-0.06,-0.04,-0.006,0.015,1.040,0.00,0.00,-0.98,-0.47,-0.45,-0.41,-0.04,-0.27,0.32,2.04,5.30,0.42,1100,1100,1100,1100,1031,1497,1508,12257,714
126789,0,1.25,3.02,-0.54,-0.015,-0.045,1.049,0.00,0.00,-0.98,-0.41,-2.22,-3.43,-0.04,-0.27,0.34,-1.60,-10.56,1.68,1100,1100,1100,1100,1031,1497,1509,12273,714
126801,0,-1.46,-2.34,-0.51,-0.009,-0.045,1.022,0.00,0.00,-0.97,-0.29,0.49,2.04,-0.04,-0.26,0.34,2.34,6.77,1.61,1100,1100,1100,1100,1031,1497,1509,12278,714
126813,0,-1.46,-2.87,-0.07,0.003,-0.018,1.014,0.00,0.00,-0.95,-0.21,0.51,2.66,-0.04,-0.26,0.35,3.70,8.49,0.52,1100,1100,1100,1100,1031,1497,1509,12253,714
126825,0,0.58,-0.52,0.44,0.040,-0.044,1.014,0.00,0.00,-0.92,-0.15,-1.50,0.38,-0.04,-0.26,0.35,-2.38,-3.85,-0.75,1100,1100,1100,1100,1031,1497,1509,12261,714
126837,0,-3.29,4.18,-0.14,-0.022,-0.013,1.059,0.00,0.00,-0.91,-0.10,2.38,-4.28,-0.04,-0.26,0.36,5.19,-16.43,0.72,1100,1100,1100,1100,1031,1497,1509,12240,714
126849,0,3.33,0.42,-0.38,-0.019,-0.008,1.072,0.00,0.00,-0.93,-0.08,-4.26,-0.50,-0.04,-0.27,0.37,-7.65,6.65,1.31,1100,1100,1100,1100,1031,1497,1509,12240,714
126861,0,0.41,2.06,-1.50,0.013,-0.017,1.071,0.00,0.00,-0.91,-0.05,-1.32,-2.12,-0.04,-0.28,0.40,-4.04,2.78,4.16,1100,1100,1100,1100,1031,1497,1509,12257,714
126873,0,-3.17,1.57,-1.49,-0.031,0.003,1.075,0.00,0.00,-0.88,0.01,2.29,-1.55,-0.04,-0.28,0.42,5.68,-2.32,4.14,1100,1100,1100,1100,1031,1497,1509,12273,714
126885,0,-0.62,-0.44,-0.32,0.018,-0.089,1.032,0.00,0.00,-0.78,0.06,-0.16,0.50,-0.04,-0.28,0.45,-0.89,2.61,1.25,1100,1100,1100,1100,1031,1497,1509,12273,714
126897,0,-0.85,-2.86,-0.93,0.038,-0.085,0.977,0.00,0.00,-0.72,0.15,0.14,3.01,-0.04,-0.27,0.48,0.25,4.74,2.81,1100,1100,1100,1100,1031,1497,1509,12265,714
126909,0,1.52,-6.01,-0.41,0.055,-0.073,0.956,0.00,0.00,-0.64,0.19,-2.16,6.20,-0.04,-0.26,0.50,-2.09,11.13,1.53,1100,1100,1100,1100,1031,1497,1509,12265,714
126921,0,0.93,-1.94,-0.43,0.122,-0.084,0.917,0.00,0.00,-0.54,0.17,-1.46,2.11,-0.04,-0.25,0.52,-1.76,-9.57,1.60,1100,1100,1100,1100,1031,1497,1509,12257,714
126933,0,-0.44,0.64,-1.04,0.057,-0.058,0.962,0.00,0.00,-0.49,0.16,-0.06,-0.48,-0.05,-0.25,0.54,3.13,-12.06,3.13,1100,1100,1100,1100,1031,1497,1509,12278,719
126945,0,1.58,0.22,-0.71,0.053,-0.057,0.959,0.00,0.00,-0.47,0.08,-2.05,-0.15,-0.05,-0.25,0.55,-0.85,0.60,2.33,1100,1100,1100,1100,1031,1497,1509,12278,719
126957,0,3.21,-1.99,-0.28,0.111,-0.025,0.925,0.00,0.00,-0.49,0.03,-3.70,2.02,-0.05,-0.24,0.57,-4.45,2.95,1.26,1100,1100,1100,1100,1031,1497,1509,12290,719
126969,0,0.49,-2.23,-0.40,0.117,-0.011,0.925,0.00,0.00,-0.50,-0.10,-0.99,2.13,-0.05,-0.24,0.59,0.95,7.94,1.58,1100,1100,1100,1100,1031,1497,1509,12307,719
126981,0,2.95,2.23,-0.53,0.121,-0.001,0.952,0.00,0.00,-0.56,-0.28,-3.51,-2.51,-0.06,-0.24,0.61,-3.44,-11.42,1.93,1100,1100,1100,1100,1031,1498,1508,12315,719
126993,0,0.84,0.43,-1.01,0.095,-0.018,0.937,0.00,0.00,-0.58,-0.38,-1.41,-0.81,-0.06,-0.25,0.64,-1.83,-0.14,3.16,1100,1100,1100,1100,1032,1498,1508,12328,719
127005,0,-2.65,0.94,-1.05,0.044,0.006,0.972,0.00,0.00,-0.61,-0.48,2.04,-1.42,-0.06,-0.25,0.66,5.62,3.39,3.29,1100,1100,1100,1100,1032,1498,1508,12311,719
127017,0,-1.21,1.80,-0.47,0.067,-0.032,0.973,0.00,0.00,-0.59,-0.53,0.62,-2.33,-0.06,-0.25,0.68,0.63,-10.92,1.85,1100,1100,1100,1100,1032,1498,1508,12311,719
127029,0,-2.94,-2.37,-0.48,0.056,-0.032,0.952,0.00,0.00,-0.56,-0.52,2.38,1.85,-0.05,-0.25,0.70,2.07,7.70,1.90,1100,1100,1100,1100,1033,1498,1508,12311,714
127041,0,-2.54,1.23,-1.29,0.035,0.006,1.014,0.00,0.00,-0.55,-0.57,1.99,-1.81,-0.05,-0.25,0.71,2.56,-3.25,3.92,1100,1100,1100,1100,1033,1497,1509,12311,714
127053,0,-1.44,1.52,0.37,0.075,-0.017,0.991,0.00,0.00,-0.50,-0.62,0.94,-2.14,-0.05,-0.26,0.72,-1.28,-3.98,-0.21,1100,1100,1100,1100,1045,1497,1509,12319,714
127065,0,-2.08,4.18,-0.72,0.004,-0.014,1.028,0.00,0.00,-0.51,-0.66,1.57,-4.84,-0.05,-0.27,0.75,1.46,-8.99,2.54,1100,1100,1100,1100,1049,1497,1508,12307,714
127077,0,2.16,2.95,-0.57,0.021,-0.018,1.011,0.00,0.00,-0.50,-0.70,-2.67,-3.66,-0.05,-0.28,0.76,-6.29,-2.24,2.19,1100,1100,1100,1100,1049,1497,1508,12298,714
127089,0,1.04,-1.74,-0.32,0.075,-0.033,0.987,0.00,0.00,-0.49,-0.73,-1.53,1.01,-0.05,-0.28,0.79,-3.56,14.55,1.58,1100,1100,1100,1100,1053,1497,1508,12319,714
127101,0,-1.76,4.60,-1.86,0.004,-0.024,1.041,0.00,0.00,-0.45,-0.78,1.31,-5.38,-0.05,-0.29,0.82,4.08,-9.19,5.47,1100,1100,1100,1100,1053,1497,1508,12319,714
127113,0,2.13,1.64,-0.46,-0.002,-0.071,1.038,0.00,0.00,-0.43,-0.74,-2.56,-2.38,-0.05,-0.29,0.83,-3.05,-3.05,1.97,1100,1100,1100,1100,1062,1497,1508,12319,714
127125,0,1.47,-1.51,-1.15,-0.013,-0.063,1.034,0.00,0.00,-0.41,-0.63,-1.88,0.88,-0.05,-0.30,0.87,-2.25,8.45,3.74,1100,1100,1100,1100,1065,1497,1508,12315,714
127137,0,0.97,0.91,-0.60,-0.011,-0.034,1.035,0.00,0.00,-0.42,-0.61,-1.40,-1.52,-0.06,-0.30,0.88,0.72,3.11,2.38,1100,1100,1100,1100,1065,1497,1508,12298,714
127149,0,2.06,3.45,-0.07,0.019,-0.028,1.027,0.00,0.00,-0.43,-0.56,-2.49,-4.01,-0.06,-0.31,0.91,-2.53,-14.92,1.08,1100,1100,1100,1100,1082,1497,1509,12290,714
127161,0,-1.22,-0.92,-2.01,-0.002,-0.034,1.002,0.00,0.00,-0.44,-0.50,0.79,0.42,-0.06,-0.31,0.95,3.16,6.12,5.96,1100,1100,1100,1100,1082,1497,1509,12286,714
127173,0,-0.28,-0.15,-1.60,0.038,-0.021,1.011,0.00,0.00,-0.45,-0.50,-0.17,-0.35,-0.06,-0.31,0.98,1.46,3.11,4.98,1100,1100,1100,1100,1097,1497,1509,12286,714
127185,0,0.37,-0.24,-1.03,0.077,-0.019,1.017,0.00,0.00,-0.44,-0.50,-0.81,-0.26,-0.06,-0.31,1.02,-1.87,-6.49,3.59,1100,1100,1100,1100,1112,1497,1509,12273,714
127197,0,-4.20,-0.99,-1.48,0.027,-0.045,0.985,0.00,0.00,-0.41,-0.49,3.79,0.50,-0.06,-0.31,1.07,7.60,0.60,4.77,1100,1100,1100,1100,1112,1497,1509,12282,714
127209,0,-0.57,-2.93,-0.82,0.026,-0.024,1.012,0.00,0.00,-0.38,-0.44,0.18,2.49,-0.06,-0.30,1.11,-0.72,10.19,3.16,1100,1100,1100,1100,1123,1497,1509,12248,714
127221,0,1.63,-4.98,-1.19,0.069,-0.029,0.979,0.00,0.00,-0.38,-0.33,-2.01,4.65,-0.06,-0.29,1.15,-4.96,3.38,4.13,1100,1100,1100,1100,1123,1497,1509,12257,714
127233,0,-2.67,5.24,-0.92,-0.000,-0.018,1.031,0.00,0.00,-0.38,-0.30,2.29,-5.54,-0.06,-0.29,1.18,4.58,-27.23,3.47,1100,1100,1100,1100,1123,1497,1509,12273,714
127245,0,2.62,1.37,-0.29,-0.004,-0.019,1.067,0.00,0.00,-0.38,-0.32,-3.01,-1.70,-0.06,-0.30,1.20,-6.43,3.90,1.91,1100,1100,1100,1100,1126,1497,1509,12278,714
127257,0,1.36,4.36,-1.47,-0.020,-0.025,1.064,0.00,0.00,-0.38,-0.29,-1.74,-4.65,-0.06,-0.31,1.23,-4.31,-6.02,4.90,1100,1100,1100,1100,1126,1497,1509,12273,714
127269,0,-0.93,-2.53,-0.98,-0.015,0.016,1.050,0.00,0.00,-0.42,-0.20,0.51,2.33,-0.06,-0.31,1.23,3.50,14.31,3.69,1100,1100,1100,1100,1127,1497,1509,12265,714
127281,0,0.39,5.72,0.16,-0.057,-0.068,1.080,0.00,0.00,-0.41,-0.16,-0.80,-5.89,-0.06,-0.32,1.25,0.28,-12.73,0.85,1100,1100,1100,1100,1127,1497,1509,12265,714
127293,0,2.45,-1.15,-0.59,-0.008,-0.038,1.011,0.00,0.00,-0.46,-0.05,-2.91,1.10,-0.06,-0.32,1.27,-3.90,6.48,2.74,1100,1100,1100,1100,1158,1497,1509,12265,714
127305,0,1.66,-1.98,-0.68,0.039,-0.038,1.004,0.00,0.00,-0.45,-0.03,-2.11,1.95,-0.07,-0.32,1.29,-0.78,9.97,2.98,1100,1100,1100,1100,1162,1497,1509,12273,714
127317,0,1.87,0.51,-0.70,0.089,-0.053,0.963,0.00,0.00,-0.47,-0.05,-2.33,-0.55,-0.07,-0.32,1.32,-0.58,-10.96,3.07,1100,1100,1100,1100,1162,1497,1509,12257,714
127329,0,-0.84,3.35,-1.59,0.028,-0.049,0.991,0.00,0.00,-0.45,-0.08,0.38,-3.42,-0.07,-0.32,1.34,4.10,-15.63,5.33,1143,1183,1161,1181,1167,1497,1509,12186,711
127341,0,1.32,-3.00,0.10,0.047,-0.031,0.985,0.00,0.00,-0.48,-0.13,-1.80,2.87,-0.07,-0.32,1.36,-0.99,12.05,1.11,1143,1183,1161,1181,1167,1496,1509,12182,711
127353,0,-2.02,1.16,-0.66,0.079,-0.009,0.997,0.00,0.00,-0.48,-0.17,1.54,-1.33,-0.07,-0.32,1.39,4.09,-2.44,3.03,1143,1183,1161,1181,1167,1496,1509,12169,711
127365,0,-5.16,-0.64,-1.51,0.011,-0.046,1.005,0.00,0.00,-0.41,-0.14,4.75,0.50,-0.07,-0.32,1.41,8.62,2.63,5.18,1143,1183,1161,1181,1185,1496,1509,12174,711
127377,0,-1.28,-0.80,-1.07,-0.002,-0.038,1.025,0.00,0.00,-0.41,-0.09,0.87,0.71,-0.07,-0.32,1.44,0.95,3.41,4.11,1143,1183,1161,1181,1185,1496,1509,12165,711
127389,0,-3.31,-3.38,-1.05,0.093,-0.026,0.974,0.00,0.00,-0.37,-0.04,2.94,3.33,-0.07,-0.31,1.47,5.73,0.55,4.09,1143,1183,1161,1181,1200,1497,1508,12169,711
127401,0,-5.60,4.10,-1.72,-0.035,-0.078,1.029,0.00,0.00,-0.30,-0.02,5.29,-4.12,-0.07,-0.31,1.50,9.57,-20.72,5.80,1143,1183,1161,1181,1200,1497,1508,12153,711
127413,0,-0.38,6.71,-0.95,-0.069,-0.032,1.080,0.00,0.00,-0.33,-0.03,0.05,-6.74,-0.07,-0.32,1.52,0.19,-17.78,3.91,1143,1183,1161,1181,1203,1497,1508,12182,711
127425,0,5.01,0.97,-0.18,0.035,0.028,1.022,0.00,0.00,-0.42,-0.03,-5.43,-1.00,-0.07,-0.32,1.54,-8.40,-0.48,2.00,1143,1183,1161,1181,1204,1497,1508,12169,711
127437,0,5.55,-7.71,0.39,0.123,-0.004,0.931,0.00,0.00,-0.47,-0.04,-6.02,7.67,-0.07,-0.32,1.56,-10.88,23.19,0.59,1178,1218,1198,1222,1204,1497,1508,12165,713
127449,0,-3.13,-16.55,-0.91,0.191,-0.017,0.907,0.00,0.00,-0.44,-0.07,2.69,16.48,-0.07,-0.30,1.60,5.18,53.89,3.88,1178,1218,1198,1222,1207,1497,1509,12140,713
127461,0,-8.53,-5.43,-1.82,0.115,-0.091,0.862,0.00,0.00,-0.36,-0.14,8.16,5.29,-0.07,-0.29,1.63,18.38,5.82,6.17,1178,1218,1198,1222,1207,1496,1509,12128,713
127473,0,5.27,10.03,-1.77,0.013,-0.068,0.976,0.00,0.00,-0.35,-0.15,-5.62,-10.18,-0.07,-0.28,1.66,-10.86,-60.94,6.08,1178,1218,1198,1222,1212,1496,1509,12157,713
127485,0,2.78,-3.11,-0.39,0.029,-0.042,0.994,0.00,0.00,-0.16,-0.03,-2.94,3.07,-0.07,-0.27,1.71,-10.92,-9.92,2.68,1178,1218,1198,1222,1218,1496,1509,12136,713
127497,0,-3.11,-10.85,-1.69,0.034,-0.086,0.951,0.00,0.00,-0.08,0.06,3.03,10.91,-0.07,-0.27,1.76,5.92,46.61,5.98,1178,1218,1198,1222,1218,1496,1509,12132,713
127509,0,2.38,1.74,-1.02,-0.076,-0.081,1.052,0.00,0.00,-0.13,0.26,-2.51,-1.48,-0.07,-0.27,1.80,0.36,-16.71,4.35,1178,1218,1198,1222,1218,1496,1509,12128,713
127521,0,3.35,-14.17,-2.83,0.108,-0.030,0.904,0.00,0.00,-0.09,0.33,-3.44,14.50,-0.08,-0.25,1.85,-5.75,43.25,8.94,1178,1218,1198,1222,1218,1496,1509,12103,713
127533,0,-0.92,12.97,-2.90,-0.005,-0.076,1.025,0.00,0.00,-0.04,0.28,0.88,-12.69,-0.08,-0.25,1.89,3.08,-67.40,9.14,1199,1241,1203,1241,1221,1496,1509,12136,718
127545,0,-1.58,-15.38,-0.35,0.230,-0.018,0.810,0.00,0.00,-0.04,0.19,1.54,15.57,-0.08,-0.23,1.98,4.32,51.29,2.85,1199,1241,1203,1241,1221,1496,1509,12107,718
127557,0,4.47,19.76,-2.96,0.008,0.030,1.066,0.00,0.00,-0.00,0.12,-4.47,-19.64,-0.07,-0.25,2.07,-12.92,-65.83,9.47,1199,1241,1203,1241,1221,1496,1509,12065,718
127569,0,-4.23,-17.71,-2.43,0.062,-0.085,0.947,0.00,0.00,0.01,0.24,4.24,17.95,-0.07,-0.23,2.16,9.22,54.15,8.23,1199,1241,1203,1241,1224,1497,1509,12065,718
127581,0,-1.12,2.06,-3.83,-0.055,-0.039,1.041,0.00,0.00,0.07,0.17,1.19,-1.89,-0.07,-0.25,2.25,-0.68,8.58,11.82,1199,1241,1203,1241,1224,1497,1509,12065,718
127593,0,-1.57,-8.72,-3.21,0.010,-0.026,1.009,0.00,0.00,0.05,0.29,1.62,9.01,-0.07,-0.23,2.32,1.23,12.48,10.36,1199,1241,1203,1241,1233,1497,1509,12074,718
127605,0,-1.81,0.42,-2.70,0.006,-0.003,0.971,0.00,0.00,0.19,0.34,2.00,-0.08,-0.07,-0.22,2.39,-4.12,-7.04,9.14,1199,1241,1203,1241,1242,1497,1509,12061,718
127617,0,-3.76,2.43,-1.93,0.082,0.007,1.023,0.00,0.00,0.19,0.40,3.95,-2.04,-0.06,-0.21,2.43,4.18,-28.16,7.24,1199,1241,1203,1241,1242,1497,1509,12061,718
127629,0,-7.08,-1.12,-0.28,0.087,-0.036,0.912,0.00,0.00,0.28,0.50,7.36,1.62,-0.06,-0.19,2.48,10.71,-21.80,3.18,1208,1256,1234,1270,1242,1497,1509,12044,713
127641,0,3.50,5.42,-0.71,0.085,0.061,1.005,0.00,0.00,0.28,0.55,-3.22,-4.87,-0.06,-0.19,2.53,-11.66,-35.39,4.32,1208,1256,1234,1270,1242,1497,1509,12036,713
127653,0,6.86,-14.47,-1.53,0.121,-0.004,0.960,0.00,0.00,0.19,0.61,-6.67,15.08,-0.06,-0.18,2.61,-13.51,54.43,6.44,1208,1256,1234,1270,1246,1497,1509,12011,713
127665,0,6.14,-10.33,-2.29,0.068,-0.049,0.974,0.00,0.00,0.25,0.60,-5.89,10.94,-0.06,-0.18,2.69,-14.31,43.94,8.42,1208,1256,1234,1270,1246,1497,1508,11995,713
127677,0,10.43,-29.38,-2.77,0.166,0.000,0.858,0.00,0.00,0.23,0.65,-10.20,30.03,-0.06,-0.16,2.77,-21.54,98.04,9.71,1208,1256,1234,1270,1246,1497,1508,12011,713
127689,0,9.50,2.14,-5.31,-0.123,0.011,1.112,0.00,0.00,0.05,0.61,-9.45,-1.52,-0.06,-0.15,2.89,-13.96,-20.83,16.15,1208,1256,1234,1270,1248,1497,1508,12082,713
127701,0,1.47,7.40,-5.01,-0.108,-0.045,1.052,0.00,0.00,-0.02,0.32,-1.48,-7.08,-0.07,-0.19,3.01,1.38,24.16,15.53,1208,1256,1234,1270,1248,1497,1508,12061,713
127713,0,-5.27,-13.91,-4.69,0.120,-0.049,0.863,0.00,0.00,-0.00,0.26,5.27,14.18,-0.07,-0.17,3.11,12.18,55.93,14.83,1208,1256,1234,1270,1258,1497,1508,12061,713
127725,0,-7.54,-8.06,-5.41,0.141,-0.023,0.886,0.00,0.00,-0.06,0.27,7.48,8.33,-0.07,-0.13,3.22,17.16,-22.67,16.76,1208,1256,1234,1270,1259,1498,1508,12044,713
127737,0,-8.74,25.84,-6.22,-0.097,0.003,1.071,0.00,0.00,-0.00,0.24,8.74,-25.60,-0.06,-0.13,3.38,15.17,-110.00,18.93,1300,1236,1312,1188,1259,1498,1508,12049,713
127749,0,-2.14,24.79,-5.87,-0.075,0.064,1.064,0.00,0.00,0.04,0.18,2.18,-24.61,-0.06,-0.16,3.56,-1.82,-71.68,18.24,1300,1236,1312,1188,1267,1497,1509,12074,713
127761,0,1.72,13.23,-5.65,0.024,0.079,1.039,0.00,0.00,-0.01,0.35,-1.73,-12.88,-0.06,-0.15,3.74,-5.17,-55.76,17.87,1300,1236,1312,1188,1267,1497,1509,12057,713
127773,0,5.54,0.49,-6.10,0.090,0.083,0.999,0.00,0.00,-0.08,0.54,-5.62,0.05,-0.06,-0.14,3.93,-8.33,-16.24,19.17,1300,1236,1312,1188,1268,1497,1509,12028,713
127785,0,5.75,-2.35,-6.79,0.039,0.032,1.022,0.00,0.00,-0.03,0.63,-5.78,2.98,-0.06,-0.15,4.13,-10.15,20.02,21.11,1300,1236,1312,1188,1268,1497,1509,12019,713
127797,0,12.19,-33.56,-5.42,0.224,0.040,0.855,0.00,0.00,0.15,0.80,-12.04,34.37,-0.05,-0.12,4.33,-29.49,110.00,17.87,1300,1236,1312,1188,1268,1497,1509,11999,713
127809,0,18.27,-45.42,-5.38,0.316,0.102,0.800,0.00,0.00,0.21,0.92,-18.06,46.34,-0.05,-0.07,4.51,-44.22,110.00,17.98,1300,1236,1312,1188,1268,1497,1509,12032,713
127821,0,25.08,-18.34,-7.02,0.067,0.092,1.055,0.00,0.00,0.06,0.96,-25.03,19.31,-0.05,-0.05,4.74,-52.80,32.45,22.29,1300,1236,1312,1188,1268,1497,1509,12019,713
127833,0,29.51,-2.19,-7.07,-0.098,0.038,1.177,0.00,0.00,-0.09,0.74,-29.60,2.93,-0.05,-0.08,5.00,-60.53,41.28,22.67,1121,1387,1219,1373,1275,1497,1509,12019,713
127845,0,27.30,13.31,-7.72,-0.223,-0.063,1.221,0.00,0.00,-0.20,0.56,-27.49,-12.75,-0.06,-0.12,5.27,-55.19,2.73,24.58,1121,1387,1219,1373,1286,1497,1509,11995,713
127857,0,24.24,6.69,-7.84,-0.126,-0.142,1.081,0.00,0.00,-0.14,0.49,-24.39,-6.20,-0.06,-0.15,5.55,-52.63,24.55,25.15,1121,1387,1219,1373,1286,1497,1509,11990,713
127869,0,22.53,-6.86,-6.99,0.048,-0.145,0.928,0.00,0.00,-0.08,0.50,-22.61,7.37,-0.06,-0.14,5.81,-49.85,46.30,23.29,1121,1387,1219,1373,1289,1497,1509,11924,713
127881,0,20.83,-29.34,-6.02,0.222,-0.120,0.723,0.00,0.00,-0.00,0.66,-20.83,30.00,-0.06,-0.09,6.03,-46.15,62.21,21.08,1121,1387,1219,1373,1289,1497,1509,11932,713
127893,0,13.82,-30.60,-6.19,0.254,-0.124,0.669,0.00,0.00,0.03,0.74,-13.79,31.33,-0.06,-0.01,6.24,-31.48,24.70,21.72,1121,1387,1219,1373,1293,1497,1509,11895,713
127905,0,10.50,-36.70,-5.68,0.351,-0.144,0.536,0.00,0.00,0.36,0.55,-10.15,37.25,-0.06,0.07,6.43,-29.47,37.01,20.63,1121,1387,1219,1373,1293,1497,1509,11903,713
127917,0,6.40,-35.66,-5.98,0.315,-0.125,0.555,0.00,0.00,0.51,0.33,-5.89,35.99,-0.06,0.16,6.60,-16.81,15.49,21.55,1121,1387,1219,1373,1293,1497,1509,11861,713
127929,0,5.86,-18.08,-6.39,0.125,-0.076,0.750,0.00,0.00,0.45,0.30,-5.41,18.38,-0.06,0.22,6.78,-12.04,-27.76,22.76,1256,1354,1276,1286,1293,1497,1509,11895,713
127941,0,3.45,4.83,-7.12,-0.135,-0.055,1.005,0.00,0.00,0.26,0.38,-3.19,-4.44,-0.06,0.24,6.97,-2.43,-60.39,24.77,1256,1354,1276,1286,1293,1497,1509,11861,713
127953,0,1.35,20.54,-7.89,-0.313,-0.057,1.190,0.00,0.00,0.03,0.46,-1.31,-20.08,-0.07,0.22,7.20,6.62,-64.86,26.92,1256,1354,1276,1286,1294,1497,1509,11899,713
127965,0,-0.15,27.45,-8.72,-0.399,-0.092,1.303,0.00,0.00,-0.18,0.50,-0.04,-26.96,-0.08,0.18,7.43,13.42,-52.17,29.23,1256,1354,1276,1286,1293,1497,1510,11899,713
127977,0,-0.56,27.25,-9.32,-0.378,-0.127,1.293,0.00,0.00,-0.43,0.53,0.14,-26.71,-0.09,0.13,7.67,19.21,-34.52,30.97,1256,1354,1276,1286,1293,1497,1510,11928,713
127989,0,-1.33,8.39,-9.41,-0.254,-0.150,1.180,0.00,0.00,-0.68,0.88,0.66,-7.50,-0.11,0.12,7.89,24.30,-0.27,31.41,1256,1354,1276,1286,1302,1497,1509,11911,713
128001,0,-1.11,-6.31,-9.59,-0.137,-0.204,1.020,0.00,0.00,-0.85,1.46,0.26,7.77,-0.13,0.15,8.10,23.17,5.11,32.07,1256,1354,1276,1286,1302,1498,1508,11899,713
128013,0,2.48,-12.94,-10.60,-0.065,-0.229,0.969,0.00,0.00,-0.98,2.07,-3.46,15.01,-0.14,0.20,8.34,15.04,-11.60,34.85,1256,1354,1276,1286,1304,1498,1508,11882,713
128025,0,7.80,-8.98,-10.53,-0.076,-0.219,1.046,0.00,0.00,-1.11,2.45,-8.90,11.43,-0.16,0.24,8.63,2.88,-15.66,34.96,1256,1354,1276,1286,1306,1498,1508,11895,713
128037,0,10.90,-12.89,-9.27,-0.070,-0.196,1.077,0.00,0.00,-1.30,2.75,-12.20,15.64,-0.18,0.27,8.93,-1.53,10.56,32.10,1318,1374,1294,1238,1306,1498,1508,11861,714
128049,0,11.46,-23.85,-8.82,0.024,-0.168,0.972,0.00,0.00,-1.57,3.11,-13.03,26.96,-0.20,0.32,9.24,2.17,46.21,31.29,1318,1374,1294,1238,1307,1497,1508,11895,714
128061,0,12.78,-31.49,-8.94,0.132,-0.158,0.847,0.00,0.00,-1.87,3.52,-14.65,35.01,-0.23,0.39,9.52,3.61,51.16,31.87,1318,1374,1294,1238,1307,1497,1508,11886,714
128073,0,15.99,-36.20,-9.65,0.268,-0.132,0.757,0.00,0.00,-2.20,3.79,-18.20,40.00,-0.25,0.48,9.81,0.26,49.46,33.94,1318,1374,1294,1238,1309,1497,1508,11882,714
128085,0,16.41,-37.85,-9.74,0.383,-0.131,0.675,0.00,0.00,-2.50,3.86,-18.91,41.71,-0.28,0.57,10.10,0.11,37.53,34.45,1318,1374,1294,1238,1310,1497,1509,11878,714
128097,0,23.69,-36.94,-9.61,0.443,-0.103,0.667,0.00,0.00,-2.90,3.76,-26.59,40.70,-0.31,0.67,10.40,-11.22,26.23,34.42,1318,1374,1294,1238,1310,1497,1509,11870,714
128109,0,26.20,-46.12,-8.64,0.612,-0.088,0.518,0.00,0.00,-3.36,3.42,-29.56,49.53,-0.35,0.77,10.71,-10.80,58.94,32.32,1318,1374,1294,1238,1310,1497,1509,11870,714
128121,0,29.34,-30.80,-10.17,0.653,-0.057,0.562,0.00,0.00,-4.02,2.76,-33.36,33.56,-0.39,0.84,11.02,-12.17,16.15,36.45,1318,1374,1294,1238,1310,1497,1509,11845,714
128133,0,33.23,-16.98,-10.31,0.539,-0.083,0.656,0.00,0.00,-4.67,1.99,-37.89,18.97,-0.43,0.89,11.36,-19.45,-8.81,37.14,1251,1383,1325,1293,1313,1497,1509,11832,713
128145,0,42.33,-26.62,-9.28,0.516,-0.072,0.678,0.00,0.00,-5.36,1.35,-47.69,27.97,-0.47,0.94,11.71,-37.02,41.24,34.92,1251,1383,1325,1293,1313,1497,1509,11832,713
128157,0,48.78,-39.89,-8.64,0.630,-0.046,0.564,0.00,0.00,-6.10,0.78,-54.88,40.67,-0.52,1.00,12.05,-47.95,84.31,33.65,1251,1383,1325,1293,1313,1497,1509,11832,713
128169,0,50.07,-32.08,-9.71,0.682,-0.005,0.621,0.00,0.00,-6.93,0.16,-57.00,32.25,-0.57,1.07,12.38,-48.78,26.80,36.66,1251,1383,1325,1293,1316,1497,1509,11841,713
128181,0,47.09,-28.07,-10.96,0.725,0.058,0.632,0.00,0.00,-7.77,-0.67,-54.85,27.40,-0.62,1.12,12.73,-42.36,20.72,40.13,1251,1383,1325,1293,1316,1497,1509,11845,713
128193,0,41.21,-12.70,-13.09,0.587,0.157,0.640,0.00,0.00,-8.72,-1.64,-49.93,11.06,-0.67,1.15,13.12,-31.78,-3.09,45.86,1251,1383,1325,1293,1316,1497,1509,11861,713
128205,0,25.94,-8.69,-15.73,0.415,0.128,0.650,0.00,0.00,-9.48,-2.43,-35.42,6.25,-0.70,1.15,13.53,-9.04,13.14,52.87,1251,1383,1325,1293,1319,1497,1509,11865,713
128217,0,17.41,-21.64,-17.55,0.422,0.067,0.667,0.00,0.00,-10.00,-2.73,-27.41,18.91,-0.74,1.20,13.94,-0.49,27.69,57.82,1251,1383,1325,1293,1319,1497,1509,11865,713
128229,0,17.92,-37.86,-15.93,0.650,0.063,0.500,0.00,0.00,-10.51,-3.00,-28.43,34.86,-0.77,1.30,14.28,-5.19,7.47,54.10,1277,1371,1375,1253,1319,1497,1509,11836,713
128241,0,13.26,-22.93,-14.31,0.733,0.065,0.506,0.00,0.00,-11.05,-3.80,-24.31,19.13,-0.80,1.38,14.62,-2.15,-51.60,50.38,1277,1371,1375,1253,1319,1497,1509,11861,713
128253,0,8.47,-9.16,-12.95,0.554,0.030,0.609,0.00,0.00,-11.43,-4.89,-19.90,4.27,-0.83,1.40,14.99,-1.93,-22.99,47.37,1277,1371,1375,1253,1319,1497,1509,11845,713
128265,0,4.19,-29.54,-10.22,0.604,-0.043,0.503,0.00,0.00,-11.64,-5.83,-15.83,23.70,-0.85,1.43,15.34,1.38,69.01,40.89,1277,1371,1375,1253,1319,1497,1509,11828,713
128277,0,1.16,-27.44,-9.26,0.741,-0.097,0.486,0.00,0.00,-11.65,-6.85,-12.81,20.59,-0.87,1.48,15.66,3.19,24.68,38.81,1277,1371,1375,1253,1319,1497,1509,11853,713
128289,0,3.00,-10.03,-8.90,0.704,-0.076,0.563,0.00,0.00,-11.68,-8.15,-14.67,1.88,-0.89,1.49,16.02,-2.12,-7.35,38.26,1277,1371,1375,1253,1319,1497,1509,11832,713
128301,0,-2.35,4.05,-9.98,0.594,-0.076,0.691,0.00,0.00,-11.66,-9.41,-9.31,-13.46,-0.91,1.46,16.38,4.97,-21.50,41.33,1277,1371,1375,1253,1319,1498,1508,11832,713
128313,0,-1.92,14.43,-10.68,0.437,-0.112,0.800,0.00,0.00,-11.59,-10.45,-9.66,-24.88,-0.93,1.41,16.74,-1.01,-39.81,43.44,1277,1371,1375,1253,1319,1498,1508,11828,713
128325,0,3.05,12.52,-10.98,0.316,-0.089,0.895,0.00,0.00,-11.49,-11.17,-14.54,-23.68,-0.94,1.36,17.13,-15.53,-19.58,44.57,1277,1371,1375,1253,1319,1498,1508,11820,713
128337,0,6.57,1.48,-10.45,0.350,-0.080,0.824,0.00,0.00,-11.35,-11.66,-17.91,-13.15,-0.95,1.32,17.50,-24.20,14.46,43.63,1237,1417,1323,1299,1319,1498,1508,11799,715
128349,0,7.08,-2.97,-9.23,0.329,-0.010,0.848,0.00,0.00,-11.17,-12.03,-18.25,-9.06,-0.96,1.29,17.83,-27.75,7.24,40.90,1237,1417,1323,1299,1319,1498,1508,11791,715
128361,0,8.77,-21.80,-7.50,0.438,0.068,0.792,0.00,0.00,-11.01,-12.23,-19.78,9.57,-0.97,1.30,18.13,-29.93,45.11,36.89,1237,1417,1323,1299,1319,1497,1508,11795,715
128373,0,3.59,-32.48,-6.45,0.609,0.125,0.672,0.00,0.00,-10.81,-12.54,-14.40,19.95,-0.97,1.33,18.42,-20.16,48.74,34.54,1237,1417,1323,1299,1320,1497,1508,11807,715
128385,0,-2.10,-27.39,-6.77,0.693,0.140,0.574,0.00,0.00,-10.69,-13.08,-8.59,14.31,-0.97,1.36,18.67,-6.94,17.53,35.60,1237,1417,1323,1299,1320,1497,1508,11807,715
128397,0,-8.53,-17.04,-9.91,0.730,0.118,0.605,0.00,0.00,-10.43,-13.80,-1.90,3.24,-0.98,1.38,18.95,1.93,-29.96,43.72,1237,1417,1323,1299,1320,1497,1508,11849,715
128409,0,-11.00,-0.36,-10.68,0.545,0.084,0.678,0.00,0.00,-10.12,-14.57,0.89,-14.21,-0.98,1.38,19.25,5.97,-72.54,45.95,1237,1417,1323,1299,1319,1497,1509,11841,715
128421,0,-12.58,9.17,-11.45,0.333,0.049,0.800,0.00,0.00,-9.77,-15.15,2.81,-24.32,-0.98,1.35,19.56,8.06,-67.17,48.18,1237,1417,1323,1299,1319,1497,1509,11828,715
128433,0,-9.25,6.56,-11.99,0.181,0.044,0.931,0.00,0.00,-9.44,-15.31,-0.20,-21.86,-0.98,1.31,19.87,4.89,-39.19,49.84,1324,1380,1340,1232,1319,1497,1509,11774,717
128445,0,-11.62,-5.75,-10.06,0.143,0.071,0.921,0.00,0.00,-9.12,-15.02,2.51,-9.27,-0.98,1.32,20.14,13.64,-37.32,45.29,1324,1380,1340,1232,1319,1497,1509,11782,717
128457,0,-16.80,-2.08,-10.38,0.193,0.124,1.024,0.00,0.00,-8.85,-14.86,7.96,-12.78,-0.98,1.32,20.42,28.44,-46.69,46.37,1324,1380,1340,1232,1319,1497,1509,11791,717
128469,0,-23.37,1.25,-10.27,0.096,0.173,1.144,0.00,0.00,-8.68,-14.71,14.70,-15.97,-0.99,1.30,20.69,45.70,-38.62,46.35,1324,1380,1340,1232,1319,1497,1509,11766,717
128481,0,-30.67,-6.84,-8.29,-0.035,0.154,1.126,0.00,0.00,-8.51,-14.25,22.16,-7.40,-0.99,1.29,20.91,56.60,-19.09,41.63,1324,1380,1340,1232,1319,1497,1509,11774,717
128493,0,-33.84,-7.19,-8.94,-0.147,0.084,1.244,0.00,0.00,-8.29,-13.62,25.55,-6.43,-0.99,1.29,21.17,56.93,-17.65,43.53,1324,1380,1340,1232,1319,1497,1509,11766,717
128505,0,-31.95,-15.90,-8.98,-0.216,0.016,1.266,0.00,0.00,-8.10,-12.72,23.85,3.18,-0.99,1.30,21.42,51.65,-0.11,43.87,1324,1380,1340,1232,1319,1497,1509,11766,717
128517,0,-25.94,-17.71,-8.81,-0.300,-0.022,1.272,0.00,0.00,-7.92,-11.68,18.02,6.02,-0.99,1.32,21.65,37.54,-4.43,43.66,1324,1380,1340,1232,1319,1497,1509,11791,717
128529,0,-23.89,-26.35,-8.89,-0.320,-0.043,1.293,0.00,0.00,-7.70,-10.51,16.20,15.84,-0.99,1.36,21.90,33.11,16.47,44.12,1258,1314,1412,1292,1319,1497,1509,11820,718
128541,0,-24.13,-41.23,-8.53,-0.234,-0.057,1.241,0.00,0.00,-7.52,-9.16,16.61,32.07,-0.99,1.43,22.13,38.23,46.89,43.46,1258,1314,1412,1292,1319,1497,1509,11828,718
128553,0,-23.19,-48.26,-6.74,-0.153,-0.110,1.144,0.00,0.00,-7.41,-7.73,15.78,40.53,-1.00,1.51,22.32,42.24,47.07,39.16,1258,1314,1412,1292,1319,1497,1509,11811,718
128565,0,-0.86,-41.24,-3.05,0.015,-0.194,1.050,0.00,0.00,-7.45,-6.51,-6.59,34.73,-1.02,1.61,22.47,2.52,6.57,30.08,1258,1314,1412,1292,1319,1497,1509,11811,718
128577,0,-0.11,-22.76,-2.15,0.066,-0.155,1.042,0.00,0.00,-7.67,-5.86,-7.56,16.90,-1.04,1.66,22.60,6.47,-27.85,27.98,1258,1314,1412,1292,1319,1497,1509,11820,718
128589,0,3.36,-0.77,-2.36,-0.090,-0.129,1.166,0.00,0.00,-7.88,-5.61,-11.23,-4.84,-1.06,1.66,22.75,-2.11,-41.07,28.66,1258,1314,1412,1292,1319,1497,1509,11861,718
128601,0,9.07,-14.50,-2.81,-0.183,-0.138,1.120,0.00,0.00,-8.10,-5.15,-17.17,9.35,-1.08,1.66,22.94,-10.66,41.30,29.97,1258,1314,1412,1292,1319,1497,1509,11832,718
128613,0,12.92,-20.03,-4.71,-0.073,-0.194,1.098,0.00,0.00,-8.25,-4.46,-21.17,15.56,-1.10,1.68,23.13,-17.16,37.99,34.90,1258,1314,1412,1292,1320,1497,1509,11824,718
128625,0,20.73,-5.13,-6.15,-0.104,-0.160,1.221,0.00,0.00,-8.40,-3.92,-29.13,1.21,-1.12,1.70,23.33,-30.91,-25.93,38.71,1258,1314,1412,1292,1320,1497,1508,11807,718
128637,0,23.15,-5.43,-6.00,-0.116,-0.090,1.245,0.00,0.00,-8.59,-3.45,-31.74,1.98,-1.15,1.70,23.51,-33.40,-10.98,38.51,1238,1418,1310,1314,1320,1497,1508,11841,713
128649,0,20.29,-10.54,-5.97,-0.090,-0.018,1.252,0.00,0.00,-8.77,-3.00,-29.06,7.54,-1.17,1.71,23.70,-27.32,13.85,38.61,1238,1418,1310,1314,1319,1497,1509,11857,713
128661,0,13.04,-7.85,-5.87,-0.141,0.058,1.285,0.00,0.00,-8.94,-2.53,-21.99,5.32,-1.19,1.72,23.88,-12.83,8.62,38.55,1238,1418,1310,1314,1319,1496,1509,11861,713
128673,0,5.59,6.29,-6.41,-0.280,0.089,1.359,0.00,0.00,-9.06,-2.14,-14.65,-8.43,-1.21,1.71,24.08,-0.65,-33.15,40.11,1238,1418,1310,1314,1319,1496,1509,11841,713
128685,0,-3.17,2.84,-7.71,-0.454,0.061,1.369,0.00,0.00,-9.08,-1.63,-5.91,-4.48,-1.22,1.71,24.30,13.94,-5.76,43.57,1238,1418,1310,1314,1320,1496,1509,11816,713
128697,0,-9.73,-14.78,-9.45,-0.456,0.003,1.358,0.00,0.00,-8.98,-0.64,0.75,14.13,-1.24,1.74,24.52,23.52,18.76,48.14,1238,1418,1310,1314,1320,1496,1509,11774,713
128709,0,-12.33,-23.49,-11.00,-0.306,0.002,1.358,0.00,0.00,-8.90,0.41,3.43,23.90,-1.25,1.80,24.77,28.22,18.81,52.27,1238,1418,1310,1314,1320,1497,1509,11757,713
128721,0,-13.16,-28.60,-9.46,-0.290,0.047,1.310,0.00,0.00,-8.92,1.54,4.24,30.14,-1.26,1.88,24.95,30.10,15.98,48.60,1238,1418,1310,1314,1320,1497,1509,11757,713
128733,0,-15.25,-38.43,-7.79,-0.108,0.042,1.137,0.00,0.00,-8.94,2.72,6.30,41.15,-1.27,1.98,25.09,28.44,26.94,44.56,1317,1331,1379,1249,1319,1497,1509,11757,824
128745,0,-16.92,-34.57,-7.17,0.027,-0.026,1.042,0.00,0.00,-8.83,3.60,8.09,38.18,-1.27,2.08,25.27,22.89,0.36,43.20,1317,1331,1379,1249,1319,1497,1509,11757,824
128757,0,-17.71,-36.88,-5.03,0.099,-0.090,0.921,0.00,0.00,-8.67,4.20,9.04,41.08,-1.28,2.18,25.43,21.54,21.52,38.00,1317,1331,1379,1249,1319,1497,1509,11736,824
128769,0,-20.68,-34.36,-4.88,0.207,-0.171,0.850,0.00,0.00,-8.43,4.54,12.26,38.90,-1.28,2.28,25.59,27.39,20.76,37.79,1317,1331,1379,1249,1319,1497,1509,11732,824
128781,0,-19.45,-26.18,-5.42,0.283,-0.196,0.837,0.00,0.00,-8.14,4.51,11.31,30.70,-1.28,2.35,25.79,25.12,14.37,39.35,1317,1331,1379,1249,1319,1497,1509,11749,824
128793,0,-16.00,-13.19,-5.31,0.244,-0.156,0.874,0.00,0.00,-7.96,4.28,8.05,17.47,-1.29,2.39,26.00,20.73,2.43,39.26,1317,1331,1379,1249,1319,1497,1509,11753,824
128805,0,-14.53,8.06,-6.36,0.092,-0.091,1.035,0.00,0.00,-7.87,3.95,6.66,-4.12,-1.30,2.40,26.21,17.22,-39.30,42.12,1317,1331,1379,1249,1319,1497,1509,11757,824
128817,0,-13.34,14.82,-6.32,-0.067,-0.066,1.150,0.00,0.00,-7.81,3.70,5.53,-11.12,-1.30,2.39,26.44,11.38,-32.77,42.25,1317,1331,1379,1249,1319,1497,1509,11782,824
128829,0,-11.57,5.79,-4.46,-0.174,-0.097,1.144,0.00,0.00,-7.67,3.75,3.91,-2.04,-1.30,2.38,26.67,2.99,3.55,37.81,1283,1351,1361,1281,1319,1497,1509,11811,714
128841,0,-9.73,-13.11,-3.55,-0.037,-0.153,0.993,0.00,0.00,-7.38,4.10,2.36,17.21,-1.29,2.40,26.88,-4.91,46.28,35.76,1283,1351,1361,1281,1319,1497,1509,11807,714
128853,0,-5.18,-9.01,-5.17,0.188,-0.142,0.945,0.00,0.00,-7.00,4.18,-1.82,13.19,-1.29,2.43,27.11,-16.03,10.05,40.02,1283,1351,1361,1281,1319,1497,1509,11778,714
128865,0,-3.46,23.33,-7.58,0.010,-0.023,1.137,0.00,0.00,-6.68,3.87,-3.23,-19.47,-1.28,2.42,27.35,-19.01,-74.07,46.29,1283,1351,1361,1281,1319,1497,1509,11782,714
128877,0,-9.27,29.00,-11.12,-0.233,0.063,1.300,0.00,0.00,-6.33,3.59,2.94,-25.41,-1.27,2.37,27.60,-11.70,-50.36,55.39,1283,1351,1361,1281,1319,1497,1509,11791,714
128889,0,-15.57,23.45,-13.09,-0.455,0.089,1.441,0.00,0.00,-5.87,3.52,9.69,-19.93,-1.26,2.32,27.91,-3.99,-7.47,60.62,1283,1351,1361,1281,1319,1497,1509,11795,714
128901,0,-21.42,-1.48,-10.04,-0.484,0.112,1.351,0.00,0.00,-5.43,3.99,15.98,5.47,-1.24,2.32,28.16,8.42,51.04,53.25,1283,1351,1361,1281,1319,1497,1509,11803,714
128913,0,-27.61,-10.83,-7.17,-0.377,0.086,1.269,0.00,0.00,-4.95,4.79,22.65,15.62,-1.22,2.35,28.35,20.56,30.87,46.29,1283,1351,1361,1281,1319,1497,1509,11811,714
128925,0,-30.04,-3.32,-6.18,-0.321,0.056,1.252,0.00,0.00,-4.42,5.52,25.63,8.84,-1.20,2.40,28.53,23.50,-25.88,43.99,1283,1351,1361,1281,1319,1497,1509,11811,714
128937,0,-30.66,-3.60,-6.35,-0.314,0.018,1.223,0.00,0.00,-3.89,6.19,26.77,9.79,-1.18,2.44,28.71,24.62,-27.38,44.58,1302,1332,1398,1244,1319,1497,1509,11807,818
128949,0,-29.97,-7.37,-7.46,-0.297,0.010,1.203,0.00,0.00,-3.41,6.82,26.56,14.19,-1.16,2.48,28.92,25.20,-9.34,47.57,1302,1332,1398,1244,1320,1497,1509,11749,818
128961,0,-29.54,-8.46,-8.34,-0.298,0.045,1.191,0.00,0.00,-3.03,7.48,26.51,15.94,-1.14,2.53,29.11,28.67,-2.09,49.96,1302,1332,1398,1244,1320,1496,1509,11749,818
128973,0,-26.56,-23.45,-8.94,-0.149,0.048,1.100,0.00,0.00,-2.73,8.32,23.83,31.76,-1.12,2.61,29.29,26.21,24.06,51.65,1302,1332,1398,1244,1320,1496,1509,11774,818
128985,0,-21.84,-30.01,-8.41,0.169,0.058,0.907,0.00,0.00,-2.60,9.08,19.25,39.09,-1.11,2.73,29.41,23.55,-5.33,50.43,1302,1332,1398,1244,1304,1496,1509,11774,818
128997,0,-19.36,-10.93,-8.06,0.340,0.059,0.858,0.00,0.00,-2.52,8.98,16.84,19.90,-1.10,2.82,29.53,19.14,-73.66,49.69,1302,1332,1398,1244,1304,1496,1509,11761,818
129009,0,-18.69,0.77,-6.74,0.290,0.060,0.837,0.00,0.00,-2.51,8.24,16.19,7.47,-1.09,2.85,29.70,19.39,-30.09,46.56,1302,1332,1398,1244,1294,1497,1508,11770,818
129021,0,-20.13,11.36,-6.90,0.195,0.037,0.877,0.00,0.00,-2.49,7.44,17.63,-3.92,-1.09,2.85,29.88,24.62,-18.35,47.12,1302,1332,1398,1244,1294,1497,1508,11791,818
129033,0,-19.02,16.37,-7.77,0.077,0.027,0.955,0.00,0.00,-2.46,6.71,16.56,-9.66,-1.08,2.83,30.10,25.17,-8.67,49.53,1164,1414,1240,1290,1277,1497,1508,11791,713
129045,0,-22.81,16.68,-8.71,0.016,-0.029,0.984,0.00,0.00,-2.34,6.14,20.47,-10.54,-1.07,2.81,30.35,34.65,2.39,52.11,1164,1414,1240,1290,1277,1497,1508,11799,713
129057,0,-26.35,13.11,-9.44,0.046,-0.120,0.947,0.00,0.00,-2.18,5.72,24.17,-7.39,-1.07,2.79,30.59,41.80,2.17,54.20,1164,1414,1240,1290,1277,1497,1508,11774,713
129069,0,-27.42,16.67,-9.68,0.098,-0.207,0.931,0.00,0.00,-1.98,5.23,25.44,-11.44,-1.07,2.78,30.85,42.73,-26.54,55.04,1164,1414,1240,1290,1276,1497,1509,11811,713
129081,0,-22.27,23.28,-9.06,0.080,-0.233,0.926,0.00,0.00,-1.88,4.51,20.39,-18.77,-1.07,2.75,31.12,32.82,-29.43,53.77,1164,1414,1240,1290,1276,1497,1509,11811,713
129093,0,-19.44,28.94,-8.72,-0.007,-0.235,0.943,0.00,0.00,-1.83,3.79,17.62,-25.15,-1.06,2.70,31.38,27.46,-24.20,53.18,1164,1414,1240,1290,1276,1497,1509,11778,713
129105,0,-18.28,33.81,-10.04,-0.094,-0.223,1.003,0.00,0.00,-1.72,3.16,16.56,-30.66,-1.06,2.64,31.65,21.82,-27.10,56.74,1164,1414,1240,1290,1276,1497,1509,11791,713
129117,0,-18.20,31.21,-11.54,-0.106,-0.202,1.030,0.00,0.00,-1.55,2.69,16.65,-28.53,-1.05,2.59,31.94,18.11,-27.38,60.79,1164,1414,1240,1290,1276,1497,1509,11824,713
129129,0,-18.72,29.86,-11.91,-0.068,-0.147,1.014,0.00,0.00,-1.34,2.22,17.39,-27.64,-1.05,2.54,32.25,17.67,-33.95,62.02,1171,1361,1329,1271,1283,1497,1509,11824,717
129141,0,-22.74,29.62,-11.87,-0.056,-0.085,1.001,0.00,0.00,-1.15,1.69,21.59,-27.93,-1.04,2.49,32.57,27.85,-34.20,62.25,1171,1361,1329,1271,1283,1497,1509,11845,717
129153,0,-28.71,30.98,-11.82,-0.091,-0.040,1.009,0.00,0.00,-0.99,1.07,27.72,-29.91,-1.03,2.42,32.90,42.35,-15.50,62.45,1171,1361,1329,1271,1287,1497,1509,11849,717
129165,0,-34.16,37.44,-11.72,-0.198,0.004,1.052,0.00,0.00,-0.81,0.44,33.35,-37.00,-1.02,2.33,33.23,53.75,-11.89,62.54,1171,1361,1329,1271,1287,1497,1509,11845,717
129177,0,-35.43,42.17,-11.73,-0.280,0.069,1.117,0.00,0.00,-0.72,-0.06,34.71,-42.23,-1.01,2.24,33.56,58.29,-22.95,62.90,1171,1361,1329,1271,1287,1497,1509,11841,717
129189,0,-31.74,46.73,-11.15,-0.287,0.135,1.227,0.00,0.00,-0.67,-0.54,31.07,-47.27,-0.99,2.14,33.90,51.14,-40.01,61.76,1171,1361,1329,1271,1294,1497,1509,11803,717
129201,0,-25.16,31.76,-10.24,-0.214,0.146,1.227,0.00,0.00,-0.60,-0.80,24.56,-32.56,-0.98,2.06,34.23,36.53,-9.83,59.84,1171,1361,1329,1271,1294,1497,1509,11799,717
129213,0,-17.52,-8.05,-8.83,0.029,0.088,0.938,0.00,0.00,-0.46,-0.53,17.07,7.52,-0.97,2.07,34.54,17.08,52.88,56.62,1171,1361,1329,1271,1294,1497,1509,11849,717
129225,0,-9.97,-18.64,-9.13,0.111,0.033,0.803,0.00,0.00,-0.22,-0.10,9.75,18.55,-0.95,2.11,34.87,-1.63,20.75,57.71,1171,1361,1329,1271,1294,1497,1509,11832,717
129237,0,-2.18,-5.84,-11.37,0.087,0.086,0.863,0.00,0.00,-0.06,0.03,2.12,5.87,-0.94,2.12,35.25,-18.65,0.03,63.68,1126,1418,1310,1322,1294,1497,1509,11816,714
129249,0,4.96,-0.33,-10.13,0.054,0.096,0.900,0.00,0.00,0.02,0.22,-4.94,0.55,-0.93,2.14,35.57,-30.20,-28.99,60.89,1126,1418,1310,1322,1301,1497,1509,11757,714
129261,0,0.31,5.23,-9.86,0.013,0.033,0.918,0.00,0.00,0.14,0.17,-0.17,-5.06,-0.92,2.13,35.87,-18.25,-25.66,60.53,1126,1418,1310,1322,1301,1497,1509,11774,714
129273,0,-8.03,1.46,-10.07,-0.024,-0.016,0.916,0.00,0.00,0.35,0.05,8.38,-1.41,-0.90,2.12,36.17,-0.61,15.54,61.34,1126,1418,1310,1322,1301,1497,1509,11799,714
129285,0,-13.39,-2.83,-9.39,-0.013,-0.067,0.876,0.00,0.00,0.61,-0.05,14.00,2.78,-0.89,2.10,36.46,9.19,44.52,59.94,1126,1418,1310,1322,1301,1497,1509,11786,714
129297,0,-10.61,-13.24,-7.94,0.147,-0.074,0.740,0.00,0.00,0.84,-0.24,11.45,13.00,-0.88,2.10,36.73,5.18,70.44,56.58,1126,1418,1310,1322,1301,1497,1509,11782,714
129309,0,-9.91,-17.91,-7.23,0.350,-0.033,0.547,0.00,0.00,0.95,-0.71,10.86,17.19,-0.87,2.13,36.98,11.20,44.00,55.06,1126,1418,1310,1322,1301,1497,1509,11791,714
129321,0,-11.05,-2.32,-9.65,0.320,0.001,0.553,0.00,0.00,1.08,-1.45,12.13,0.87,-0.87,2.16,37.24,17.36,-34.10,61.35,1126,1418,1310,1322,1301,1497,1508,11791,714
129333,0,-10.19,19.97,-11.77,0.194,0.035,0.673,0.00,0.00,1.15,-2.16,11.34,-22.12,-0.86,2.15,37.53,17.44,-96.78,66.96,1240,1408,1302,1254,1301,1497,1508,11757,751
129345,0,-13.28,32.55,-12.83,0.222,-0.004,0.783,0.00,0.00,1.31,-3.06,14.58,-35.60,-0.86,2.10,37.85,21.10,-79.55,69.93,1240,1408,1302,1254,1301,1497,1508,11774,751
129357,0,-9.06,21.82,-12.25,0.246,-0.004,0.767,0.00,0.00,1.44,-3.91,10.50,-25.73,-0.85,2.02,38.17,12.59,1.91,68.79,1240,1408,1302,1254,1301,1497,1508,11782,751
129369,0,-0.39,18.20,-10.85,0.228,0.007,0.756,0.00,0.00,1.58,-4.52,1.97,-22.72,-0.84,1.97,38.45,-5.61,-9.30,65.56,1240,1408,1302,1254,1301,1497,1508,11741,751
129381,0,10.57,22.73,-9.97,0.153,0.036,0.834,0.00,0.00,1.70,-5.13,-8.87,-27.86,-0.84,1.92,38.75,-30.67,-38.77,63.67,1240,1408,1302,1254,1301,1497,1508,11749,751
129393,0,9.51,28.83,-8.88,-0.040,0.072,1.059,0.00,0.00,1.77,-5.62,-7.74,-34.45,-0.83,1.85,39.06,-30.06,-38.72,61.25,1240,1408,1302,1254,1301,1497,1508,11774,751
129405,0,3.52,22.15,-8.57,-0.055,0.031,1.103,0.00,0.00,1.88,-6.23,-1.64,-28.39,-0.82,1.74,39.39,-19.34,43.57,60.81,1240,1408,1302,1254,1301,1497,1509,11766,751
129417,0,-1.97,20.59,-7.89,-0.074,0.015,1.027,0.00,0.00,2.09,-6.80,4.07,-27.39,-0.80,1.64,39.71,-12.40,52.11,59.43,1240,1408,1302,1254,1301,1497,1509,11761,751
129429,0,-11.40,17.75,-9.01,-0.091,-0.034,1.004,0.00,0.00,2.45,-7.11,13.85,-24.86,-0.78,1.57,40.01,-3.10,23.10,62.54,1265,1343,1383,1213,1301,1497,1509,11757,715
129441,0,-18.59,4.10,-10.29,0.004,-0.085,0.937,0.00,0.00,2.87,-7.28,21.46,-11.39,-0.75,1.52,40.33,4.30,46.51,66.07,1265,1343,1383,1213,1301,1497,1509,11766,715
129453,0,-20.23,6.46,-11.29,-0.067,-0.073,0.990,0.00,0.00,3.22,-7.35,23.45,-13.81,-0.72,1.47,40.66,3.53,21.88,68.88,1265,1343,1383,1213,1301,1497,1509,11791,715
129465,0,-20.07,29.47,-11.89,-0.253,-0.078,1.197,0.00,0.00,3.54,-7.44,23.60,-36.92,-0.70,1.41,41.00,1.26,-60.29,70.72,1265,1343,1383,1213,1301,1497,1509,11786,715
129477,0,-22.39,37.20,-10.69,-0.349,-0.061,1.268,0.00,0.00,3.92,-7.67,26.31,-44.87,-0.67,1.32,41.33,3.90,-56.93,68.05,1265,1343,1383,1213,1301,1497,1509,11778,715
129489,0,-31.50,27.14,-10.44,-0.286,-0.056,1.238,0.00,0.00,4.44,-7.78,35.94,-34.92,-0.63,1.24,41.65,19.29,-10.69,67.76,1265,1343,1383,1213,1301,1497,1509,11786,715
129501,0,-37.07,19.33,-10.76,-0.211,-0.027,1.158,0.00,0.00,4.99,-7.76,42.06,-27.10,-0.59,1.18,41.97,31.10,-1.85,68.87,1265,1343,1383,1213,1301,1497,1509,11774,715
129513,0,-42.47,11.46,-10.78,-0.128,0.015,1.043,0.00,0.00,5.52,-7.57,47.99,-19.03,-0.55,1.14,42.28,44.83,-11.85,69.24,1265,1343,1383,1213,1301,1497,1509,11757,715
129525,0,-41.75,23.76,-12.44,-0.161,0.047,1.130,0.00,0.00,5.98,-7.37,47.73,-31.12,-0.51,1.11,42.59,44.63,-81.80,73.68,1265,1343,1383,1213,1301,1497,1509,11753,715
129537,0,-38.29,38.20,-12.63,-0.251,0.044,1.220,0.00,0.00,6.41,-7.48,44.70,-45.68,-0.48,1.03,42.90,36.97,-86.23,74.46,1175,1429,1309,1291,1301,1497,1509,11753,729
129549,0,-30.57,31.65,-11.63,-0.220,0.051,1.217,0.00,0.00,6.93,-7.68,37.49,-39.33,-0.43,0.93,43.21,14.07,-26.40,72.27,1175,1429,1309,1291,1301,1497,1509,11745,729
129561,0,-21.54,20.61,-10.65,-0.123,0.076,1.168,0.00,0.00,7.48,-7.76,29.02,-28.37,-0.39,0.86,43.52,-8.10,4.27,70.14,1175,1429,1309,1291,1301,1497,1509,11736,729
129573,0,-16.15,-3.35,-8.69,-0.019,0.130,1.053,0.00,0.00,8.03,-7.59,24.18,-4.24,-0.35,0.83,43.80,-19.78,51.59,65.52,1175,1429,1309,1291,1301,1497,1509,11770,729
129585,0,-15.01,-3.47,-7.29,-0.032,0.160,1.047,0.00,0.00,8.53,-7.44,23.54,-3.97,-0.30,0.80,44.07,-22.21,36.82,62.30,1175,1429,1309,1291,1301,1496,1509,11786,729
129597,0,-21.70,22.56,-7.95,-0.208,0.102,1.225,0.00,0.00,9.03,-7.73,30.73,-30.29,-0.25,0.70,44.37,-9.26,-4.61,64.26,1175,1429,1309,1291,1301,1496,1509,11757,729
129609,0,-31.92,23.52,-9.19,-0.282,-0.024,1.312,0.00,0.00,9.66,-8.06,41.57,-31.58,-0.19,0.60,44.68,6.31,24.33,67.67,1175,1429,1309,1291,1301,1496,1509,11724,729
129621,0,-33.11,15.97,-8.54,-0.280,-0.094,1.196,0.00,0.00,10.29,-8.17,43.40,-24.14,-0.14,0.52,44.96,4.93,33.01,66.31,1175,1429,1309,1291,1301,1496,1509,11753,729
129633,0,-31.71,11.55,-7.79,-0.231,-0.064,1.094,0.00,0.00,10.82,-8.21,42.54,-19.76,-0.09,0.45,45.22,1.47,35.38,64.70,1136,1366,1372,1330,1301,1496,1509,11774,713
129645,0,-32.51,15.40,-9.60,-0.060,0.012,1.075,0.00,0.00,11.14,-8.29,43.65,-23.69,-0.04,0.41,45.47,10.67,-8.92,69.47,1136,1366,1372,1330,1301,1497,1508,11766,713
129657,0,-39.37,15.93,-10.22,0.005,0.071,1.052,0.00,0.00,11.41,-8.36,50.79,-24.29,0.01,0.39,45.72,31.65,-52.67,71.28,1136,1366,1372,1330,1301,1497,1508,11761,713
129669,0,-46.34,29.71,-9.24,-0.121,0.108,1.109,0.00,0.00,11.76,-8.56,58.10,-38.27,0.06,0.34,45.99,49.10,-85.00,69.08,1136,1366,1372,1330,1302,1497,1508,11761,713
129681,0,-42.46,47.60,-8.76,-0.118,0.133,1.261,0.00,0.00,12.08,-9.20,54.54,-56.79,0.10,0.21,46.29,43.91,-67.48,68.18,1136,1366,1372,1330,1302,1497,1508,11761,713
129693,0,-33.40,27.16,-7.92,0.081,0.068,1.103,0.00,0.00,12.42,-9.53,45.82,-36.69,0.15,0.13,46.54,27.34,-11.79,66.34,1136,1366,1372,1330,1302,1497,1508,11761,713
129705,0,-21.46,-13.76,-5.56,0.338,0.001,0.737,0.00,0.00,12.91,-9.56,34.37,4.19,0.20,0.13,46.77,-1.15,42.28,60.66,1136,1366,1372,1330,1301,1497,1509,11749,713
129717,0,-12.94,-11.94,-7.53,0.424,0.005,0.727,0.00,0.00,13.27,-9.92,26.21,2.02,0.24,0.12,47.04,-16.93,28.14,65.87,1136,1366,1372,1330,1301,1497,1509,11736,713
129729,0,-10.79,-12.40,-9.61,0.343,0.057,0.772,0.00,0.00,13.47,-10.25,24.26,2.15,0.28,0.10,47.33,-16.70,31.31,71.35,1277,1357,1387,1183,1301,1497,1509,11711,767
129741,0,-19.35,-5.32,-9.90,0.055,0.097,0.925,0.00,0.00,13.69,-10.44,33.04,-5.12,0.33,0.09,47.61,1.78,-0.99,72.36,1277,1357,1387,1183,1301,1497,1509,11757,767
129753,0,-29.33,8.68,-11.15,-0.157,0.101,1.116,0.00,0.00,13.84,-10.80,43.17,-19.48,0.37,0.00,47.95,28.24,36.09,75.81,1277,1357,1387,1183,1301,1497,1509,11766,767
129765,0,-34.37,25.91,-12.40,-0.214,0.042,1.196,0.00,0.00,14.06,-11.08,48.43,-36.99,0.41,-0.09,48.28,40.38,-8.89,79.28,1277,1357,1387,1183,1301,1497,1509,11761,767
129777,0,-30.82,31.44,-11.65,-0.270,0.069,1.186,0.00,0.00,14.26,-11.05,45.08,-42.49,0.45,-0.15,48.62,33.58,-70.72,77.75,1277,1357,1387,1183,1301,1497,1509,11724,767
129789,0,-24.46,26.65,-11.24,-0.091,0.118,1.141,0.00,0.00,14.32,-11.04,38.78,-37.70,0.49,-0.21,48.98,25.51,-66.05,77.08,1277,1357,1387,1183,1301,1497,1509,11724,767
129801,0,-12.71,14.49,-11.55,0.124,0.163,1.037,0.00,0.00,14.28,-11.10,27.00,-25.59,0.52,-0.26,49.33,7.67,-29.54,78.20,1277,1357,1387,1183,1301,1497,1509,11741,767
129813,0,-4.12,16.35,-12.12,0.030,0.223,1.074,0.00,0.00,14.28,-10.89,18.40,-27.25,0.56,-0.28,49.68,-11.65,-74.81,79.99,1277,1357,1387,1183,1301,1497,1509,11732,767
129825,0,-2.77,25.01,-12.86,-0.138,0.209,1.297,0.00,0.00,14.32,-10.82,17.10,-35.83,0.60,-0.34,50.06,-17.07,-75.48,82.22,1277,1357,1387,1183,1301,1497,1509,11741,767
129837,0,-6.88,-10.78,-11.26,0.061,0.070,1.111,0.00,0.00,14.40,-10.82,21.28,-0.04,0.63,-0.41,50.40,-9.33,99.39,78.55,1100,1448,1306,1374,1301,1497,1509,11753,714
129849,0,-8.72,-55.85,-8.27,0.415,-0.032,0.671,0.00,0.00,14.61,-10.55,23.32,45.30,0.67,-0.37,50.70,-8.56,110.00,71.37,1100,1448,1306,1374,1306,1497,1509,11707,714
129861,0,-10.94,-38.08,-8.09,0.462,-0.016,0.615,0.00,0.00,14.70,-10.73,25.64,27.35,0.71,-0.32,51.00,-3.49,48.58,71.21,1100,1448,1306,1374,1306,1497,1509,11707,714
129873,0,-10.50,-15.59,-10.68,0.450,-0.002,0.720,0.00,0.00,14.59,-11.32,25.10,4.27,0.74,-0.30,51.29,0.24,-12.82,78.00,1100,1448,1306,1374,1307,1497,1509,11724,714
129885,0,-16.57,-11.10,-11.10,0.478,-0.068,0.581,0.00,0.00,14.63,-12.18,31.20,-1.08,0.77,-0.30,51.59,16.44,-10.38,79.33,1100,1448,1306,1374,1308,1497,1509,11691,714
129897,0,-9.55,17.11,-13.15,0.496,-0.080,0.637,0.00,0.00,14.71,-13.25,24.26,-30.37,0.80,-0.34,51.89,4.89,-81.61,84.77,1100,1448,1306,1374,1308,1497,1509,11687,714
129909,0,-6.77,32.04,-13.06,0.457,-0.039,0.718,0.00,0.00,14.72,-14.42,21.49,-46.46,0.82,-0.40,52.18,6.92,-110.00,84.84,1100,1448,1306,1374,1308,1497,1509,11707,714
129921,0,-3.65,30.79,-10.00,0.486,0.019,0.758,0.00,0.00,14.62,-15.85,18.27,-46.64,0.84,-0.50,52.49,8.68,-41.06,77.49,1100,1448,1306,1374,1308,1496,1509,11716,714
129933,0,2.06,36.72,-8.66,0.409,0.033,0.827,0.00,0.00,14.47,-17.06,12.42,-53.78,0.86,-0.61,52.78,1.94,-63.83,74.44,1232,1430,1340,1230,1308,1496,1509,11682,718
129945,0,1.89,29.07,-8.59,0.301,-0.026,0.941,0.00,0.00,14.36,-17.95,12.48,-47.03,0.88,-0.71,53.09,3.09,-28.22,74.55,1232,1430,1340,1230,1308,1496,1509,11687,718
129957,0,7.48,32.21,-8.77,0.099,-0.112,1.048,0.00,0.00,14.22,-18.58,6.75,-50.78,0.89,-0.83,53.38,-8.17,-33.93,75.31,1232,1430,1340,1230,1308,1496,1509,11645,718
129969,0,11.84,25.39,-7.70,0.026,-0.115,1.052,0.00,0.00,14.08,-19.10,2.24,-44.49,0.91,-0.96,53.65,-21.16,7.73,72.89,1232,1430,1340,1230,1308,1497,1509,11678,718
129981,0,1.30,-3.64,-7.19,0.071,-0.086,0.977,0.00,0.00,14.04,-19.22,12.74,-15.58,0.93,-1.03,53.88,-3.66,74.27,71.87,1232,1430,1340,1230,1308,1497,1509,11687,718
129993,0,-6.73,-12.34,-6.06,0.063,-0.024,0.977,0.00,0.00,13.88,-19.14,20.61,-6.81,0.95,-1.08,54.09,12.73,66.16,69.23,1232,1430,1340,1230,1308,1497,1509,11687,718
130005,0,-16.14,1.79,-7.40,0.012,-0.048,1.024,0.00,0.00,13.77,-19.11,29.90,-20.91,0.97,-1.13,54.30,31.87,-6.96,72.80,1232,1430,1340,1230,1308,1497,1509,11720,718
130017,0,-20.94,7.95,-7.96,0.020,-0.068,0.964,0.00,0.00,13.75,-19.21,34.70,-27.16,0.99,-1.20,54.50,38.25,-9.91,74.39,1232,1430,1340,1230,1308,1497,1509,11691,718
130029,0,-16.12,34.46,-8.33,-0.115,0.024,1.116,0.00,0.00,13.80,-19.19,29.92,-53.65,1.02,-1.27,54.70,22.27,-110.00,75.53,1101,1471,1295,1365,1308,1497,1509,11745,738
130041,0,-15.28,10.73,-6.00,0.136,0.094,0.987,0.00,0.00,13.81,-19.12,29.09,-29.85,1.05,-1.32,54.89,23.57,-32.74,69.89,1101,1471,1295,1365,1308,1497,1509,11741,738
130053,0,-10.96,-3.21,-5.71,0.340,0.102,0.835,0.00,0.00,13.82,-19.10,24.79,-15.89,1.07,-1.35,55.08,18.33,-11.00,69.36,1101,1471,1295,1365,1308,1497,1509,11757,738
130065,0,-8.46,10.23,-6.98,0.157,0.089,0.979,0.00,0.00,13.99,-18.99,22.45,-29.21,1.10,-1.39,55.31,7.17,-74.69,72.76,1101,1471,1295,1365,1308,1497,1509,11757,738
130077,0,-3.59,15.59,-8.35,-0.013,0.006,1.134,0.00,0.00,14.22,-18.92,17.81,-34.50,1.14,-1.47,55.57,-9.11,-45.25,76.43,1101,1471,1295,1365,1308,1497,1509,11732,738
130089,0,5.57,-7.84,-5.94,0.140,-0.053,0.965,0.00,0.00,14.45,-18.98,8.89,-11.14,1.17,-1.56,55.80,-33.10,76.64,70.64,1101,1471,1295,1365,1308,1497,1509,11761,738
130101,0,7.93,-18.30,-7.40,0.323,-0.069,0.835,0.00,0.00,14.67,-19.09,6.74,-0.80,1.20,-1.60,56.03,-38.79,88.26,74.54,1101,1471,1295,1365,1308,1497,1509,11753,738
130113,0,2.86,-27.49,-7.43,0.282,-0.043,0.791,0.00,0.00,14.92,-19.06,12.06,8.43,1.24,-1.60,56.22,-30.48,47.64,74.80,1101,1471,1295,1365,1308,1497,1509,11741,738
130125,0,-11.07,-18.64,-7.41,0.064,-0.052,0.854,0.00,0.00,15.19,-18.97,26.26,-0.33,1.28,-1.61,56.45,-4.59,20.81,74.96,1101,1471,1295,1365,1308,1497,1509,11711,738
130137,0,-15.10,22.40,-9.88,-0.048,-0.081,1.121,0.00,0.00,15.35,-19.27,30.45,-41.67,1.32,-1.72,56.73,4.77,-35.83,81.43,1163,1475,1287,1307,1308,1497,1509,11699,721
130149,0,-12.69,30.67,-8.64,-0.156,-0.119,1.208,0.00,0.00,15.54,-19.42,28.24,-50.09,1.35,-1.81,56.98,-1.57,-63.29,78.59,1163,1475,1287,1307,1308,1497,1509,11703,721
130161,0,-16.99,5.98,-7.99,0.051,-0.167,1.001,0.00,0.00,15.79,-19.52,32.78,-25.51,1.39,-1.89,57.21,8.80,28.12,77.19,1163,1475,1287,1307,1308,1497,1509,11691,721
130173,0,-19.53,1.38,-8.80,0.129,-0.140,0.854,0.00,0.00,16.07,-19.48,35.60,-20.87,1.43,-1.94,57.42,17.64,1.43,79.41,1163,1475,1287,1307,1308,1497,1509,11687,721
130185,0,-17.09,-4.62,-8.84,0.228,-0.065,0.770,0.00,0.00,16.34,-19.38,33.43,-14.77,1.46,-1.96,57.62,14.71,-22.31,79.72,1163,1475,1287,1307,1308,1497,1509,11687,721
130197,0,-11.99,-4.32,-7.69,0.369,-0.004,0.728,0.00,0.00,16.45,-19.58,28.44,-15.26,1.49,-1.97,57.78,12.39,-40.63,77.02,1163,1475,1287,1307,1308,1497,1509,11741,721
130209,0,-1.62,-10.90,-4.73,0.442,0.001,0.619,0.00,0.00,16.50,-20.01,18.12,-9.11,1.52,-1.99,57.95,-5.01,-6.36,69.77,1163,1475,1287,1307,1308,1497,1509,11711,721
130221,0,4.67,9.37,-5.41,0.300,0.003,0.797,0.00,0.00,16.47,-20.46,11.80,-29.83,1.55,-2.05,58.17,-13.17,-56.83,71.70,1163,1475,1287,1307,1308,1497,1509,11695,721
130233,0,7.30,25.58,-5.02,-0.022,-0.057,1.012,0.00,0.00,16.36,-20.72,9.06,-46.30,1.57,-2.15,58.37,-14.32,-61.73,70.93,1203,1411,1353,1265,1308,1497,1509,11711,732
130245,0,3.25,13.49,-6.78,-0.016,-0.202,0.998,0.00,0.00,16.29,-21.06,13.04,-34.55,1.59,-2.27,58.63,-3.12,32.58,75.58,1203,1411,1353,1265,1308,1497,1509,11707,732
130257,0,7.58,10.49,-7.19,-0.044,-0.198,0.965,0.00,0.00,16.14,-21.11,8.56,-31.61,1.60,-2.37,58.84,-9.27,21.29,76.82,1203,1411,1353,1265,1308,1497,1509,11745,732
130269,0,5.52,1.43,-5.32,-0.089,-0.093,0.976,0.00,0.00,15.87,-20.93,10.36,-22.36,1.62,-2.42,59.02,-2.45,7.58,72.31,1203,1411,1353,1265,1308,1496,1509,11757,732
130281,0,-1.55,-0.28,-5.32,-0.109,0.006,1.081,0.00,0.00,15.34,-20.77,16.89,-20.49,1.63,-2.49,59.18,20.80,23.61,72.48,1203,1411,1353,1265,1308,1498,1508,11728,732
130293,0,-6.87,13.32,-5.86,-0.187,-0.011,1.125,0.00,0.00,14.87,-20.54,21.74,-33.86,1.63,-2.55,59.34,35.36,-35.75,74.00,1203,1411,1353,1265,1309,1498,1508,11724,732
130305,0,-12.73,11.79,-6.44,-0.110,-0.030,1.014,0.00,0.00,14.54,-20.22,27.27,-32.01,1.65,-2.60,59.52,44.38,-49.00,75.62,1203,1411,1353,1265,1309,1498,1508,11724,732
130317,0,-7.77,35.31,-7.50,-0.151,0.041,1.118,0.00,0.00,14.12,-20.24,21.89,-55.55,1.65,-2.71,59.70,35.31,-95.87,78.45,1203,1411,1353,1265,1309,1498,1508,11724,732
130329,0,1.69,16.96,-6.07,0.026,0.118,1.044,0.00,0.00,13.70,-20.07,12.01,-37.04,1.66,-2.77,59.85,15.12,-46.72,75.02,1173,1415,1353,1295,1309,1498,1508,11753,728
130341,0,5.06,-16.29,-4.80,0.287,0.097,0.806,0.00,0.00,13.35,-19.76,8.29,-3.47,1.67,-2.78,60.00,10.97,16.86,72.00,1173,1415,1353,1295,1309,1497,1509,11745,728
130353,0,9.53,0.09,-5.55,0.220,0.104,0.861,0.00,0.00,13.13,-19.64,3.60,-19.73,1.68,-2.81,60.19,0.34,-48.04,74.05,1173,1415,1353,1295,1308,1497,1509,11761,728
130365,0,13.07,25.33,-5.50,-0.086,0.095,1.095,0.00,0.00,12.96,-19.72,-0.11,-45.04,1.69,-2.90,60.40,-13.66,-75.09,74.16,1173,1415,1353,1295,1308,1497,1509,11728,728
130377,0,17.09,6.60,-6.30,0.018,-0.021,1.066,0.00,0.00,12.77,-19.91,-4.32,-26.50,1.70,-3.02,60.62,-24.12,53.36,76.38,1173,1415,1353,1295,1308,1497,1509,11728,728
130389,0,25.69,-13.66,-6.17,0.249,-0.102,0.842,0.00,0.00,12.59,-19.97,-13.10,-6.31,1.71,-3.08,60.80,-42.62,85.80,76.22,1173,1415,1353,1295,1308,1497,1509,11707,728
130401,0,23.94,-15.89,-6.19,0.232,-0.126,0.780,0.00,0.00,12.51,-20.09,-11.43,-4.20,1.72,-3.11,61.00,-40.87,42.07,76.47,1173,1415,1353,1295,1308,1497,1509,11691,728
130413,0,11.91,-10.06,-6.48,0.047,-0.139,0.914,0.00,0.00,12.45,-20.11,0.55,-10.05,1.74,-3.15,61.20,-18.22,29.48,77.39,1173,1415,1353,1295,1308,1497,1509,11687,728
130425,0,4.76,21.98,-6.79,-0.159,-0.139,1.141,0.00,0.00,12.38,-20.25,7.62,-42.23,1.75,-3.25,61.41,-6.42,-45.24,78.39,1173,1415,1353,1295,1308,1497,1509,11703,728
130437,0,-2.27,22.90,-6.79,-0.124,-0.149,1.199,0.00,0.00,12.28,-20.49,14.55,-43.39,1.77,-3.36,61.61,6.23,-17.71,78.58,1217,1441,1329,1245,1308,1497,1509,11707,736
130449,0,-2.45,11.83,-6.34,0.032,-0.157,1.117,0.00,0.00,12.08,-20.75,14.53,-32.57,1.78,-3.46,61.77,9.08,28.40,77.61,1217,1441,1329,1245,1308,1497,1509,11732,736
130461,0,-2.41,-6.73,-5.85,0.282,-0.174,0.875,0.00,0.00,11.99,-20.71,14.40,-13.98,1.79,-3.48,61.89,10.01,5.73,76.53,1217,1441,1329,1245,1308,1497,1509,11720,736
130473,0,-9.56,-0.85,-4.56,0.277,-0.107,0.812,0.00,0.00,11.90,-20.79,21.46,-19.95,1.80,-3.49,62.01,29.41,-65.42,73.41,1217,1441,1329,1245,1308,1497,1509,11724,736
130485,0,-13.32,26.67,-5.49,0.077,-0.018,1.043,0.00,0.00,11.66,-21.10,24.99,-47.76,1.81,-3.57,62.16,43.20,-105.38,75.89,1217,1441,1329,1245,1308,1497,1509,11736,736
130497,0,-12.96,35.36,-5.02,-0.002,-0.014,1.157,0.00,0.00,11.42,-21.38,24.38,-56.74,1.82,-3.67,62.30,43.38,-95.36,74.85,1217,1441,1329,1245,1308,1497,1509,11674,736
130509,0,-8.44,31.04,-4.95,0.134,-0.092,1.094,0.00,0.00,11.27,-21.77,19.71,-52.82,1.83,-3.77,62.45,31.93,-67.66,74.83,1217,1441,1329,1245,1308,1497,1509,11716,736
130521,0,6.10,13.52,-3.59,0.195,-0.080,0.987,0.00,0.00,11.12,-22.00,5.02,-35.52,1.83,-3.86,62.55,1.03,-9.38,71.53,1217,1441,1329,1245,1308,1497,1509,11699,736
130533,0,19.87,9.88,-1.42,0.118,-0.015,1.026,0.00,0.00,10.98,-22.05,-8.90,-31.93,1.84,-3.93,62.64,-28.71,-28.52,66.19,1254,1346,1412,1220,1308,1497,1509,11695,724
130545,0,18.87,4.35,-1.53,0.119,-0.014,1.095,0.00,0.00,10.71,-22.15,-8.15,-26.49,1.84,-4.01,62.75,-21.60,16.63,66.57,1254,1346,1412,1220,1308,1498,1508,11711,724
130557,0,16.57,-0.33,-1.64,0.024,-0.040,1.160,0.00,0.00,10.39,-22.10,-6.17,-21.77,1.84,-4.09,62.85,-12.99,33.36,66.95,1254,1346,1412,1220,1308,1498,1508,11707,724
130569,0,10.18,-14.45,-1.53,-0.020,-0.066,1.081,0.00,0.00,10.07,-21.72,-0.11,-7.26,1.84,-4.13,62.93,0.22,44.05,66.76,1254,1346,1412,1220,1311,1498,1508,11724,724
130581,0,11.14,-6.37,-4.35,-0.103,-0.045,1.222,0.00,0.00,9.64,-21.43,-1.50,-15.06,1.84,-4.20,63.03,0.71,26.45,73.91,1254,1346,1412,1220,1311,1498,1506,11716,724
130593,0,9.37,13.63,-3.30,-0.355,-0.015,1.463,0.00,0.00,9.17,-21.22,-0.20,-34.86,1.84,-4.28,63.11,5.94,-24.61,71.37,1254,1346,1412,1220,1308,1498,1506,11753,724
130605,0,9.21,6.56,-2.35,-0.344,-0.068,1.374,0.00,0.00,8.72,-20.99,-0.49,-27.55,1.83,-4.37,63.21,10.45,26.83,69.08,1254,1346,1412,1220,1309,1498,1508,11732,724
130617,0,8.66,-3.44,-1.96,-0.277,-0.092,1.232,0.00,0.00,8.35,-20.34,-0.31,-16.90,1.82,-4.41,63.28,13.80,9.20,68.18,1254,1346,1412,1220,1309,1498,1508,11720,724
130629,0,15.21,7.88,-2.89,-0.387,0.029,1.338,0.00,0.00,7.80,-19.58,-7.42,-27.46,1.81,-4.45,63.35,8.41,-63.69,70.57,1168,1434,1324,1310,1309,1498,1508,11711,725
130641,0,23.59,12.25,-4.13,-0.470,0.163,1.492,0.00,0.00,7.01,-18.84,-16.58,-31.09,1.78,-4.50,63.43,1.44,-68.18,73.74,1168,1434,1324,1310,1309,1497,1508,11724,725
130653,0,26.17,-17.70,-3.49,-0.371,0.142,1.375,0.00,0.00,6.29,-17.55,-19.88,0.15,1.76,-4.48,63.51,-1.60,-13.38,72.23,1168,1434,1324,1310,1309,1497,1508,11711,725
130665,0,32.50,-18.09,-1.07,-0.385,0.143,1.366,0.00,0.00,5.56,-16.25,-26.94,1.83,1.74,-4.47,63.55,-14.54,-19.19,66.21,1168,1434,1324,1310,1308,1497,1509,11720,725
130677,0,42.74,-2.46,1.08,-0.455,0.120,1.498,0.00,0.00,4.77,-15.36,-37.97,-12.90,1.71,-4.50,63.56,-37.06,-35.20,60.86,1168,1434,1324,1310,1308,1497,1509,11724,725
130689,0,47.19,-54.14,3.10,-0.138,0.017,1.144,0.00,0.00,3.89,-14.16,-43.31,39.98,1.68,-4.48,63.55,-43.14,110.00,55.79,1168,1434,1324,1310,1308,1497,1509,11703,725
130701,0,47.79,-69.01,0.81,0.048,-0.092,0.897,0.00,0.00,3.14,-12.75,-44.66,56.26,1.65,-4.39,63.54,-45.73,110.00,61.51,1168,1434,1324,1310,1308,1497,1509,11699,725
130713,0,41.46,-42.84,-0.01,-0.149,-0.094,0.986,0.00,0.00,2.46,-11.50,-39.00,31.34,1.62,-4.31,63.52,-35.48,2.85,63.53,1168,1434,1324,1310,1308,1497,1509,11699,725
130725,0,27.67,-11.44,0.12,-0.365,-0.076,1.209,0.00,0.00,1.78,-10.84,-25.88,0.60,1.59,-4.32,63.51,-7.51,-18.43,63.22,1168,1434,1324,1310,1308,1497,1509,11703,725
130737,0,22.45,-27.80,0.52,-0.094,-0.112,1.076,0.00,0.00,1.02,-10.09,-21.43,17.71,1.55,-4.30,63.48,7.78,51.88,62.18,1298,1400,1328,1206,1308,1497,1509,11682,717
130749,0,21.38,-30.11,1.30,0.109,-0.168,0.911,0.00,0.00,0.22,-9.37,-21.16,20.74,1.51,-4.24,63.43,14.08,-1.86,60.17,1298,1400,1328,1206,1308,1497,1509,11687,717
130761,0,21.75,-25.82,0.17,0.179,-0.180,0.790,0.00,0.00,-0.52,-8.77,-22.27,17.05,1.47,-4.15,63.40,16.09,-51.14,62.96,1298,1400,1328,1206,1308,1497,1509,11703,717
130773,0,20.10,-8.54,-2.28,0.109,-0.176,0.873,0.00,0.00,-1.10,-8.36,-21.20,0.17,1.43,-4.11,63.41,20.50,-82.16,69.10,1298,1400,1328,1206,1308,1497,1509,11678,717
130785,0,22.36,-9.00,-2.89,0.147,-0.079,0.863,0.00,0.00,-1.65,-8.14,-24.01,0.86,1.39,-4.10,63.45,17.72,-35.24,70.67,1298,1400,1328,1206,1308,1497,1509,11674,717
130797,0,25.44,-5.80,-2.49,0.179,0.049,0.870,0.00,0.00,-2.40,-8.07,-27.84,-2.27,1.34,-4.09,63.49,17.25,-32.36,69.72,1298,1400,1328,1206,1308,1497,1509,11628,717
130809,0,24.95,-13.74,-2.12,0.272,0.084,0.823,0.00,0.00,-3.34,-8.00,-28.29,5.74,1.29,-4.07,63.51,26.00,-15.71,68.81,1298,1400,1328,1206,1308,1497,1509,11691,717
130821,0,26.45,6.23,-4.15,0.137,0.076,0.975,0.00,0.00,-4.38,-8.07,-30.83,-14.30,1.24,-4.07,63.59,27.12,-72.76,73.95,1298,1400,1328,1206,1308,1497,1509,11674,717
130833,0,31.13,24.76,-5.46,-0.069,0.069,1.158,0.00,0.00,-5.38,-8.25,-36.51,-33.02,1.18,-4.12,63.71,15.34,-92.43,77.34,1287,1431,1321,1193,1308,1497,1509,11670,717
130845,0,33.19,17.46,-5.63,-0.091,0.050,1.128,0.00,0.00,-6.28,-8.37,-39.47,-25.83,1.13,-4.18,63.83,7.78,-34.00,77.91,1287,1431,1321,1193,1308,1497,1509,11687,717
130857,0,31.38,-0.62,-4.97,0.073,0.059,0.955,0.00,0.00,-7.05,-8.32,-38.43,-7.71,1.07,-4.20,63.93,8.61,19.42,76.37,1287,1431,1321,1193,1308,1497,1509,11678,717
130869,0,28.63,-3.76,-4.59,0.137,0.069,0.938,0.00,0.00,-7.64,-8.26,-36.28,-4.49,1.02,-4.21,64.02,9.38,-4.57,75.50,1287,1431,1321,1193,1308,1497,1509,11662,717
130881,0,29.75,-18.74,-3.39,0.261,0.018,0.807,0.00,0.00,-8.20,-8.26,-37.94,10.49,0.97,-4.20,64.11,4.90,39.66,72.59,1287,1431,1321,1193,1308,1497,1509,11670,717
130893,0,33.55,-9.59,-3.65,0.260,-0.030,0.833,0.00,0.00,-8.70,-8.28,-42.25,1.31,0.92,-4.19,64.21,-5.99,-16.47,73.34,1287,1431,1321,1193,1308,1497,1509,11641,717
130905,0,37.47,0.90,-3.23,0.136,-0.027,0.937,0.00,0.00,-9.20,-8.35,-46.67,-9.25,0.87,-4.20,64.29,-17.33,-43.91,72.37,1287,1431,1321,1193,1308,1497,1509,11662,717
130917,0,40.45,10.47,-2.20,0.030,0.011,1.039,0.00,0.00,-9.73,-8.52,-50.18,-18.99,0.82,-4.24,64.39,-25.80,-32.50,69.88,1287,1431,1321,1193,1308,1497,1509,11653,717
130929,0,37.40,9.17,-0.69,0.065,0.038,1.040,0.00,0.00,-10.23,-8.68,-47.63,-17.85,0.77,-4.28,64.48,-22.86,-16.14,66.19,1249,1413,1337,1237,1309,1497,1509,11653,725
130941,0,35.52,-12.75,1.46,0.261,0.030,0.807,0.00,0.00,-10.74,-8.88,-46.26,3.87,0.73,-4.31,64.53,-19.00,61.42,60.87,1249,1413,1337,1237,1309,1497,1508,11687,725
130953,0,39.75,-11.98,0.19,0.446,0.018,0.666,0.00,0.00,-11.20,-9.24,-50.96,2.74,0.68,-4.30,64.55,-29.82,4.98,64.07,1249,1413,1337,1237,1309,1497,1508,11724,725
130965,0,42.62,-9.55,-0.63,0.457,0.027,0.684,0.00,0.00,-11.68,-9.89,-54.30,-0.34,0.63,-4.30,64.60,-37.75,-3.66,66.17,1249,1413,1337,1237,1309,1497,1508,11732,725
130977,0,43.51,9.19,-1.09,0.386,0.038,0.826,0.00,0.00,-12.22,-10.59,-55.73,-19.78,0.58,-4.34,64.65,-39.73,-42.40,67.37,1249,1413,1337,1237,1309,1497,1508,11695,725
130989,0,41.83,21.02,-0.25,0.345,-0.048,0.933,0.00,0.00,-12.65,-11.40,-54.47,-32.42,0.53,-4.40,64.70,-39.89,-59.66,65.32,1249,1413,1337,1237,1309,1497,1508,11670,725
131001,0,38.02,14.35,2.44,0.383,-0.102,0.822,0.00,0.00,-13.02,-12.41,-51.04,-26.76,0.48,-4.48,64.73,-34.37,-0.45,58.63,1249,1413,1337,1237,1309,1497,1509,11682,725
131013,0,36.75,8.89,0.69,0.440,-0.173,0.800,0.00,0.00,-13.29,-13.32,-50.04,-22.21,0.44,-4.55,64.75,-37.79,10.33,63.04,1249,1413,1337,1237,1308,1497,1509,11653,725
131025,0,35.66,-13.14,-0.51,0.441,-0.207,0.648,0.00,0.00,-13.44,-14.08,-49.10,-0.93,0.40,-4.58,64.78,-38.67,59.33,66.06,1249,1413,1337,1237,1308,1497,1509,11670,725
131037,0,27.83,-3.58,-2.28,0.228,-0.178,0.716,0.00,0.00,-13.55,-14.63,-41.38,-11.05,0.36,-4.62,64.82,-27.03,13.54,70.52,1247,1383,1363,1239,1308,1497,1509,11687,738
131049,0,16.75,5.41,-2.25,-0.056,-0.136,0.953,0.00,0.00,-13.73,-14.90,-30.48,-20.31,0.32,-4.69,64.86,-6.66,13.01,70.49,1247,1383,1363,1239,1308,1497,1509,11724,738
131061,0,13.21,10.71,-1.85,0.005,-0.169,0.985,0.00,0.00,-13.98,-15.31,-27.19,-26.02,0.28,-4.79,64.90,0.80,35.49,69.53,1247,1383,1363,1239,1308,1497,1509,11732,738
131073,0,12.71,12.45,-1.43,0.056,-0.201,1.020,0.00,0.00,-14.23,-15.58,-26.94,-28.03,0.24,-4.85,64.91,-0.08,-4.94,68.49,1247,1383,1363,1239,1308,1497,1509,11716,738
131085,0,7.85,-19.20,-0.26,0.294,-0.238,0.776,0.00,0.00,-14.40,-15.64,-22.25,3.56,0.20,-4.85,64.89,11.61,39.26,65.54,1247,1383,1363,1239,1308,1497,1509,11703,738
131097,0,3.17,-1.00,-0.32,0.174,-0.158,0.839,0.00,0.00,-14.47,-15.61,-17.64,-14.61,0.16,-4.84,64.88,22.29,-75.63,65.68,1247,1383,1363,1239,1308,1497,1509,11724,738
131109,0,-1.46,26.67,-0.13,-0.091,-0.057,1.087,0.00,0.00,-14.63,-15.66,-13.17,-42.34,0.12,-4.89,64.89,33.34,-110.00,65.22,1247,1383,1363,1239,1308,1497,1509,11720,738
131121,0,-1.85,30.14,-0.00,-0.115,0.008,1.173,0.00,0.00,-14.84,-15.83,-12.98,-45.97,0.09,-4.99,64.89,33.33,-64.64,64.90,1247,1383,1363,1239,1308,1497,1509,11703,738
131133,0,1.14,2.37,0.44,0.199,0.039,0.958,0.00,0.00,-15.03,-15.73,-16.17,-18.10,0.05,-5.02,64.86,24.33,-7.86,63.75,1352,1332,1394,1154,1308,1497,1509,11699,720
131145,0,9.32,-32.96,1.25,0.409,0.053,0.747,0.00,0.00,-15.18,-15.53,-24.50,17.43,0.02,-5.00,64.81,5.72,54.80,61.68,1352,1332,1394,1154,1308,1497,1509,11691,720
131157,0,18.01,-25.39,1.08,0.359,0.073,0.757,0.00,0.00,-15.19,-15.34,-33.20,10.05,-0.02,-4.97,64.76,-16.88,-4.38,62.07,1352,1332,1394,1154,1308,1497,1509,11728,720
131169,0,20.18,-8.36,1.98,0.215,0.065,0.925,0.00,0.00,-15.12,-15.10,-35.30,-6.74,-0.05,-4.96,64.71,-26.67,-64.73,59.77,1352,1332,1394,1154,1308,1497,1509,11699,720
131181,0,23.68,3.49,4.43,0.100,0.045,0.999,0.00,0.00,-15.20,-15.18,-38.88,-18.67,-0.07,-5.01,64.68,-35.60,-28.05,53.61,1352,1332,1394,1154,1308,1497,1509,11687,720
131193,0,25.53,-23.36,5.00,0.235,-0.018,0.857,0.00,0.00,-15.30,-15.02,-40.83,8.34,-0.10,-5.03,64.60,-43.36,63.58,52.10,1352,1332,1394,1154,1308,1497,1509,11657,720
131205,0,27.19,-33.90,2.89,0.339,-0.117,0.746,0.00,0.00,-15.27,-14.88,-42.46,19.02,-0.13,-5.01,64.55,-50.37,57.25,57.32,1352,1332,1394,1154,1309,1497,1508,11691,720
131217,0,23.32,-40.63,1.67,0.366,-0.156,0.601,0.00,0.00,-15.08,-14.82,-38.41,25.81,-0.16,-4.97,64.49,-45.41,60.83,60.31,1352,1332,1394,1154,1309,1497,1508,11653,720
131229,0,9.63,-15.69,0.73,0.073,-0.182,0.796,0.00,0.00,-14.78,-14.79,-24.40,0.90,-0.18,-4.97,64.45,-20.08,-14.33,62.61,1253,1405,1337,1241,1309,1497,1508,11674,720
131241,0,-1.33,-19.59,1.60,0.126,-0.201,0.783,0.00,0.00,-14.46,-14.77,-13.13,4.82,-0.20,-4.99,64.40,0.19,45.02,60.40,1253,1405,1337,1241,1309,1497,1508,11674,720
131253,0,14.39,-3.64,2.20,0.192,-0.180,0.749,0.00,0.00,-14.47,-14.97,-28.87,-11.33,-0.23,-5.01,64.36,-25.10,-29.40,58.87,1253,1405,1337,1241,1309,1497,1508,11670,720
131265,0,8.53,6.18,1.71,0.185,-0.185,0.763,0.00,0.00,-14.50,-15.44,-23.03,-21.62,-0.25,-5.05,64.34,-15.90,-37.91,60.06,1253,1405,1337,1241,1309,1497,1509,11678,720
131277,0,6.83,-0.01,0.21,0.243,-0.092,0.774,0.00,0.00,-14.68,-15.95,-21.51,-15.93,-0.28,-5.09,64.34,-10.72,-3.67,63.81,1253,1405,1337,1241,1309,1497,1509,11695,720
131289,0,4.09,21.51,-1.78,0.048,-0.009,1.017,0.00,0.00,-14.99,-16.31,-19.08,-37.82,-0.31,-5.15,64.36,1.01,-73.38,68.81,1253,1405,1337,1241,1309,1497,1509,11724,720
131301,0,-3.20,27.64,-1.91,-0.125,0.006,1.153,0.00,0.00,-15.16,-16.57,-11.97,-44.21,-0.33,-5.23,64.41,15.66,-61.24,69.17,1253,1405,1337,1241,1309,1497,1509,11724,720
131313,0,-13.39,10.18,-0.87,-0.062,-0.054,1.071,0.00,0.00,-15.13,-16.63,-1.75,-26.81,-0.36,-5.31,64.44,32.50,9.98,66.61,1253,1405,1337,1241,1310,1497,1509,11703,720
131325,0,-17.00,8.02,-1.41,0.046,-0.114,1.002,0.00,0.00,-14.93,-16.68,2.07,-24.70,-0.37,-5.38,64.46,32.18,1.69,67.98,1253,1405,1337,1241,1310,1497,1509,11687,720
131337,0,-16.22,-11.13,-1.63,0.153,-0.135,0.909,0.00,0.00,-14.60,-16.49,1.62,-5.37,-0.39,-5.39,64.46,23.95,16.23,68.53,1329,1369,1371,1171,1310,1497,1509,11695,719
131349,0,-13.50,-18.21,-1.65,0.264,-0.089,0.831,0.00,0.00,-14.25,-16.34,-0.74,1.88,-0.40,-5.39,64.48,15.40,5.60,68.61,1329,1369,1371,1171,1308,1497,1509,11653,719
131361,0,-16.10,-8.33,-1.16,0.140,-0.013,0.918,0.00,0.00,-13.88,-16.14,2.23,-7.81,-0.41,-5.38,64.49,18.77,-47.86,67.39,1329,1369,1371,1171,1308,1497,1509,11666,719
131373,0,-21.03,-1.44,-0.97,0.056,0.013,0.975,0.00,0.00,-13.53,-15.98,7.51,-14.53,-0.41,-5.40,64.51,28.44,-43.82,66.94,1329,1369,1371,1171,1308,1497,1509,11711,719
131385,0,-20.41,19.20,-2.99,-0.111,0.044,1.165,0.00,0.00,-13.13,-15.84,7.27,-35.04,-0.42,-5.46,64.55,23.30,-84.42,72.03,1329,1369,1371,1171,1308,1497,1509,11711,719
131397,0,-20.89,10.52,-3.45,-0.052,0.054,1.120,0.00,0.00,-12.69,-15.63,8.20,-26.16,-0.42,-5.50,64.60,19.88,-46.61,73.23,1329,1369,1371,1171,1308,1497,1509,11724,719
131409,0,-18.30,-14.43,-3.42,0.117,0.055,0.944,0.00,0.00,-12.22,-15.37,6.08,-0.95,-0.41,-5.53,64.64,12.08,39.50,73.20,1329,1369,1371,1171,1308,1497,1509,11724,719
131421,0,-15.06,-15.71,-2.72,0.205,0.073,0.872,0.00,0.00,-11.74,-14.99,3.33,0.72,-0.41,-5.52,64.67,6.32,-5.24,71.46,1329,1369,1371,1171,1308,1497,1509,11707,719
131433,0,-12.24,-22.33,-0.80,0.250,0.028,0.787,0.00,0.00,-11.18,-14.74,1.06,7.59,-0.41,-5.50,64.68,0.10,5.21,66.68,1283,1377,1371,1201,1308,1497,1509,11724,720
131445,0,-5.81,-12.81,0.79,0.159,-0.008,0.815,0.00,0.00,-10.62,-14.59,-4.82,-1.78,-0.41,-5.51,64.72,-14.85,-16.24,62.76,1283,1377,1371,1201,1308,1497,1509,11724,720
131457,0,-5.20,-3.16,0.50,0.062,-0.068,0.952,0.00,0.00,-10.05,-14.45,-4.85,-11.29,-0.40,-5.54,64.79,-18.44,-17.66,63.55,1283,1377,1371,1201,1308,1497,1509,11691,720
131469,0,-0.31,-8.33,-0.05,0.129,-0.103,0.909,0.00,0.00,-9.47,-14.37,-9.16,-6.03,-0.40,-5.56,64.86,-27.09,7.78,64.99,1283,1377,1371,1201,1308,1497,1509,11699,720
131481,0,4.01,-9.25,-0.81,0.178,-0.113,0.824,0.00,0.00,-8.93,-14.36,-12.93,-5.11,-0.39,-5.59,64.90,-33.38,11.75,66.94,1283,1377,1371,1201,1308,1497,1509,11699,720
131493,0,-0.42,-11.86,-1.99,0.252,-0.129,0.788,0.00,0.00,-8.30,-14.43,-7.88,-2.57,-0.39,-5.60,64.95,-25.12,3.62,69.93,1283,1377,1371,1201,1308,1497,1509,11662,720
131505,0,-10.52,-23.39,-1.18,0.271,-0.141,0.783,0.00,0.00,-7.69,-14.46,2.83,8.92,-0.38,-5.59,65.00,-0.98,35.61,67.95,1283,1377,1371,1201,1308,1497,1509,11670,720
131517,0,-13.25,-0.76,-1.46,0.158,-0.196,0.950,0.00,0.00,-7.11,-14.65,6.13,-13.89,-0.38,-5.62,65.07,5.01,-27.26,68.71,1283,1377,1371,1201,1308,1497,1509,11632,720
131529,0,-10.62,2.88,-0.03,0.042,-0.220,0.963,0.00,0.00,-6.63,-14.77,3.99,-17.65,-0.38,-5.67,65.12,-0.99,-11.85,65.19,1232,1384,1362,1254,1308,1497,1509,11641,720
131541,0,-12.46,-0.21,-1.29,0.117,-0.230,0.944,0.00,0.00,-6.14,-14.83,6.32,-14.62,-0.37,-5.71,65.18,1.51,-9.81,68.41,1232,1384,1362,1254,1308,1498,1508,11653,720
131553,0,-9.91,-4.94,-3.66,0.174,-0.145,0.950,0.00,0.00,-5.75,-14.98,4.16,-10.05,-0.37,-5.74,65.25,1.00,15.87,74.41,1232,1384,1362,1254,1308,1498,1508,11645,720
131565,0,-10.01,-5.95,-4.87,0.179,-0.060,0.981,0.00,0.00,-5.41,-14.97,4.60,-9.02,-0.37,-5.75,65.32,5.75,-20.00,77.49,1232,1384,1362,1254,1308,1498,1508,11662,720
131577,0,-17.29,-0.30,-4.15,0.085,-0.015,1.052,0.00,0.00,-5.09,-14.92,12.20,-14.61,-0.37,-5.77,65.39,23.33,-36.32,75.78,1232,1384,1362,1254,1308,1498,1508,11649,720
131589,0,-22.04,2.80,-3.35,0.076,-0.015,1.051,0.00,0.00,-4.80,-14.82,17.25,-17.62,-0.36,-5.80,65.46,34.27,-34.35,73.84,1232,1384,1362,1254,1308,1497,1508,11620,720
131601,0,-16.80,16.88,-3.44,0.013,-0.016,1.152,0.00,0.00,-4.53,-14.80,12.27,-31.68,-0.36,-5.85,65.51,22.04,-73.04,74.12,1232,1384,1362,1254,1308,1497,1508,11649,720
131613,0,-6.38,1.85,-2.30,0.117,0.003,1.057,0.00,0.00,-4.32,-14.77,2.06,-16.62,-0.35,-5.89,65.57,-2.19,-15.96,71.31,1232,1384,1362,1254,1309,1497,1508,11624,720
131625,0,1.19,-14.93,-1.51,0.239,0.042,0.954,0.00,0.00,-4.16,-14.56,-5.35,0.36,-0.35,-5.89,65.62,-17.20,11.81,69.40,1232,1384,1362,1254,1309,1497,1508,11624,720
131637,0,2.47,-12.55,-1.13,0.143,0.091,1.022,0.00,0.00,-4.00,-14.27,-6.47,-1.73,-0.35,-5.89,65.68,-18.88,-14.51,68.50,1218,1348,1414,1256,1309,1497,1508,11666,717
131649,0,1.78,-0.28,-0.85,-0.006,0.093,1.119,0.00,0.00,-3.85,-14.16,-5.63,-13.88,-0.34,-5.93,65.75,-18.04,-18.66,67.87,1218,1348,1414,1256,1308,1497,1509,11670,717
131661,0,-3.75,4.22,-0.84,-0.110,0.025,1.172,0.00,0.00,-3.64,-14.17,0.11,-18.39,-0.33,-6.00,65.83,-10.16,12.10,67.92,1218,1348,1414,1256,1308,1497,1509,11687,717
131673,0,-4.98,-9.44,-1.85,-0.034,-0.063,1.092,0.00,0.00,-3.39,-13.97,1.59,-4.53,-0.33,-6.04,65.91,-10.42,50.07,70.54,1218,1348,1414,1256,1308,1497,1509,11653,717
131685,0,-1.38,-26.17,-2.18,0.057,-0.096,0.917,0.00,0.00,-3.20,-13.53,-1.81,12.64,-0.32,-6.04,65.98,-17.52,59.76,71.44,1218,1348,1414,1256,1308,1497,1509,11649,717
131697,0,-1.58,-14.44,-1.62,-0.092,-0.051,0.987,0.00,0.00,-3.07,-13.03,-1.48,1.41,-0.32,-6.02,66.06,-15.27,-12.18,70.10,1218,1348,1414,1256,1308,1497,1509,11653,717
131709,0,-8.70,-7.60,-2.11,-0.181,-0.024,1.119,0.00,0.00,-2.96,-12.58,5.73,-4.98,-0.31,-6.04,66.14,1.47,-8.49,71.43,1218,1348,1414,1256,1308,1497,1509,11670,717
131721,0,-13.96,3.17,-3.57,-0.213,-0.038,1.200,0.00,0.00,-2.84,-12.24,11.13,-15.41,-0.31,-6.07,66.26,14.07,-27.18,75.18,1218,1348,1414,1256,1308,1497,1509,11653,717
131733,0,-17.93,-4.62,-3.99,-0.069,-0.070,1.079,0.00,0.00,-2.66,-11.85,15.28,-7.23,-0.30,-6.08,66.36,23.00,-7.72,76.34,1223,1385,1377,1247,1308,1497,1509,11666,717
131745,0,-18.67,-19.63,-3.77,0.191,-0.072,0.818,0.00,0.00,-2.44,-11.58,16.23,8.04,-0.29,-6.07,66.44,25.39,16.56,75.87,1223,1385,1377,1247,1308,1497,1509,11657,717
131757,0,-17.12,-22.80,-4.54,0.402,-0.043,0.687,0.00,0.00,-2.26,-11.43,14.86,11.37,-0.29,-6.01,66.49,24.42,-27.87,77.84,1223,1385,1377,1247,1308,1497,1509,11649,717
131769,0,-12.39,-12.58,-4.02,0.397,0.043,0.757,0.00,0.00,-2.18,-11.54,10.21,1.04,-0.29,-5.97,66.56,18.69,-79.93,76.62,1223,1385,1377,1247,1308,1497,1509,11662,717
131781,0,-11.92,-5.30,-2.83,0.372,0.093,0.805,0.00,0.00,-2.23,-11.77,9.69,-6.47,-0.29,-5.96,66.64,23.56,-66.62,73.71,1223,1385,1377,1247,1308,1497,1509,11674,717
131793,0,-10.00,16.11,-3.58,0.240,0.085,0.961,0.00,0.00,-2.21,-12.19,7.79,-28.30,-0.29,-6.00,66.75,20.44,-81.51,75.71,1223,1385,1377,1247,1308,1497,1509,11653,717
131805,0,-5.95,4.72,-4.20,0.334,0.017,0.905,0.00,0.00,-2.05,-12.56,3.91,-17.28,-0.29,-6.04,66.85,9.14,-20.03,77.36,1223,1385,1377,1247,1308,1497,1509,11674,717
131817,0,3.96,-4.79,-4.55,0.391,0.002,0.828,0.00,0.00,-1.84,-13.01,-5.80,-8.22,-0.29,-6.07,66.98,-13.53,13.07,78.36,1223,1385,1377,1247,1308,1497,1509,11641,717
131829,0,14.84,-10.03,-3.54,0.338,0.047,0.836,0.00,0.00,-1.81,-13.30,-16.65,-3.27,-0.29,-6.10,67.07,-32.70,20.09,75.93,1285,1395,1371,1181,1308,1497,1509,11616,717
131841,0,20.48,-6.34,-2.21,0.136,0.081,1.001,0.00,0.00,-1.87,-13.41,-22.35,-7.07,-0.29,-6.12,67.15,-42.62,2.95,72.68,1285,1395,1371,1181,1308,1497,1509,11624,717
131853,0,21.01,-11.28,-1.98,0.040,0.053,1.120,0.00,0.00,-2.00,-13.36,-23.02,-2.08,-0.30,-6.16,67.27,-42.44,42.95,72.22,1285,1395,1371,1181,1308,1497,1509,11628,717
131865,0,16.47,-0.56,-2.89,-0.236,-0.030,1.325,0.00,0.00,-2.11,-13.25,-18.58,-12.69,-0.30,-6.22,67.41,-33.32,24.54,74.63,1285,1395,1371,1181,1308,1497,1509,11645,717
131877,0,4.68,-13.11,-2.76,-0.352,-0.120,1.262,0.00,0.00,-2.07,-12.74,-6.75,0.37,-0.30,-6.25,67.53,-14.36,53.18,74.44,1285,1395,1371,1181,1308,1497,1509,11620,717
131889,0,-2.31,-18.13,-4.37,-0.350,-0.096,1.254,0.00,0.00,-2.03,-12.07,0.28,6.07,-0.30,-6.27,67.65,-3.90,54.71,78.57,1285,1395,1371,1181,1309,1497,1509,11616,717
131901,0,-7.23,-17.61,-4.42,-0.305,-0.021,1.309,0.00,0.00,-2.12,-11.14,5.11,6.47,-0.30,-6.25,67.74,7.77,1.83,78.80,1285,1395,1371,1181,1309,1497,1509,11641,717
131913,0,-13.18,-34.22,-2.15,-0.161,-0.022,1.148,0.00,0.00,-2.29,-10.16,10.89,24.06,-0.30,-6.20,67.80,22.49,41.87,73.17,1285,1395,1371,1181,1309,1497,1509,11637,717
131925,0,-9.36,-31.30,-1.64,0.053,0.002,0.981,0.00,0.00,-2.55,-9.31,6.81,22.00,-0.30,-6.14,67.86,13.71,-9.33,71.96,1285,1395,1371,1181,1309,1497,1508,11649,717
131937,0,-15.97,-41.86,-1.96,0.171,-0.036,0.792,0.00,0.00,-2.82,-8.60,13.15,33.26,-0.31,-6.04,67.91,32.32,-2.51,72.82,1356,1356,1410,1114,1309,1497,1508,11649,719
131949,0,-16.44,-13.44,-4.61,-0.092,-0.030,0.941,0.00,0.00,-2.94,-7.80,13.49,5.65,-0.31,-5.97,67.99,34.59,-101.17,79.51,1356,1356,1410,1114,1309,1497,1509,11637,719
131961,0,-12.15,12.79,-5.85,-0.281,0.006,1.177,0.00,0.00,-2.99,-7.14,9.16,-19.93,-0.32,-5.96,68.08,26.91,-110.00,82.71,1356,1356,1410,1114,1309,1497,1509,11649,719
131973,0,-8.83,0.66,-2.18,-0.225,0.049,1.197,0.00,0.00,-3.09,-6.56,5.74,-7.23,-0.33,-5.96,68.12,26.03,-44.34,73.58,1356,1356,1410,1114,1308,1497,1509,11662,719
131985,0,2.42,-25.05,1.16,-0.017,0.072,1.019,0.00,0.00,-3.23,-5.90,-5.65,19.15,-0.34,-5.94,68.14,8.14,43.92,65.23,1356,1356,1410,1114,1308,1497,1509,11674,719
131997,0,11.44,-23.29,1.52,-0.061,0.072,1.027,0.00,0.00,-3.29,-5.10,-14.73,18.19,-0.35,-5.89,68.16,-9.44,4.19,64.36,1356,1356,1410,1114,1308,1497,1509,11670,719
132009,0,16.06,-18.37,1.69,-0.269,0.049,1.121,0.00,0.00,-3.36,-4.02,-19.41,14.35,-0.36,-5.84,68.16,-19.86,-34.80,63.93,1356,1356,1410,1114,1308,1497,1509,11682,719
132021,0,16.49,-16.98,0.49,-0.225,-0.031,1.148,0.00,0.00,-3.44,-3.41,-19.93,13.57,-0.37,-5.84,68.20,-22.04,22.97,66.99,1356,1356,1410,1114,1308,1497,1509,11674,719
132033,0,18.86,-18.25,-0.75,-0.172,-0.061,1.131,0.00,0.00,-3.56,-2.74,-22.42,15.51,-0.39,-5.82,68.20,-26.45,26.25,70.08,1242,1382,1370,1238,1308,1497,1509,11703,720
132045,0,15.45,-34.97,1.04,-0.058,-0.099,0.931,0.00,0.00,-3.56,-1.90,-19.01,33.07,-0.40,-5.75,68.17,-24.35,42.39,65.57,1242,1382,1370,1238,1308,1497,1509,11695,720
132057,0,11.94,-67.26,3.12,0.074,-0.045,0.732,0.00,0.00,-3.63,-0.86,-15.56,66.40,-0.41,-5.64,68.10,-18.20,110.00,60.32,1242,1382,1370,1238,1308,1497,1509,11678,720
132069,0,8.01,-31.53,0.89,-0.004,-0.003,0.951,0.00,0.00,-3.87,-0.16,-11.89,31.37,-0.42,-5.56,68.06,-5.97,-2.14,65.84,1242,1382,1370,1238,1308,1497,1509,11670,720
132081,0,4.64,-23.26,0.92,-0.026,-0.034,0.968,0.00,0.00,-4.12,0.29,-8.76,23.56,-0.44,-5.51,68.02,3.80,-3.74,65.72,1242,1382,1370,1238,1308,1497,1509,11666,720
132093,0,-0.55,-32.56,0.24,0.176,-0.092,0.811,0.00,0.00,-4.31,0.54,-3.76,33.10,-0.46,-5.44,67.98,14.61,31.39,67.37,1242,1382,1370,1238,1308,1497,1509,11666,720
132105,0,-2.69,-33.46,0.72,0.272,-0.081,0.640,0.00,0.00,-4.51,0.62,-1.83,34.08,-0.47,-5.36,67.91,18.11,18.77,66.11,1242,1382,1370,1238,1308,1497,1509,11670,720
132117,0,-2.08,-23.34,-0.90,0.279,-0.015,0.626,0.00,0.00,-4.78,0.66,-2.70,24.00,-0.48,-5.26,67.85,17.28,-60.85,70.09,1242,1382,1370,1238,1308,1497,1509,11691,720
132129,0,-1.19,-12.72,-0.12,0.255,0.065,0.688,0.00,0.00,-5.06,0.54,-3.87,13.26,-0.50,-5.18,67.81,17.17,-78.02,68.11,1145,1437,1315,1335,1308,1497,1509,11682,717
132141,0,-1.18,-2.61,1.22,0.230,0.119,0.788,0.00,0.00,-5.31,0.28,-4.13,2.89,-0.52,-5.15,67.77,18.59,-59.98,64.73,1145,1437,1315,1335,1308,1497,1509,11670,717
132153,0,-1.88,-3.62,2.41,0.342,0.148,0.741,0.00,0.00,-5.47,-0.17,-3.59,3.45,-0.53,-5.14,67.74,18.63,-15.83,61.71,1145,1437,1315,1335,1308,1497,1509,11662,717
132165,0,0.96,-10.10,2.11,0.363,0.136,0.773,0.00,0.00,-5.55,-0.49,-6.51,9.61,-0.54,-5.11,67.71,10.14,-8.88,62.43,1145,1437,1315,1335,1308,1497,1509,11674,717
132177,0,3.49,-11.16,1.41,0.240,0.064,0.838,0.00,0.00,-5.48,-0.56,-8.97,10.61,-0.55,-5.07,67.68,0.39,-23.36,64.15,1145,1437,1315,1335,1308,1497,1509,11674,717
132189,0,9.66,-0.56,0.80,0.127,0.009,0.886,0.00,0.00,-5.34,-0.64,-15.00,-0.08,-0.56,-5.06,67.66,-19.93,-37.82,65.67,1145,1437,1315,1335,1308,1497,1509,11632,717
132201,0,17.69,5.27,0.69,0.067,0.036,0.981,0.00,0.00,-5.23,-0.85,-22.92,-6.12,-0.56,-5.09,67.67,-43.60,-8.70,65.95,1145,1437,1315,1335,1308,1497,1509,11632,717
132213,0,23.58,-4.86,0.95,0.082,0.071,1.075,0.00,0.00,-5.18,-0.96,-28.76,3.90,-0.56,-5.10,67.66,-59.04,34.07,65.28,1145,1437,1315,1335,1308,1497,1509,11620,717
132225,0,18.11,-27.46,2.58,0.078,0.032,0.975,0.00,0.00,-5.11,-0.83,-23.22,26.62,-0.56,-5.08,67.60,-49.09,87.93,61.16,1145,1437,1315,1335,1309,1497,1509,11653,717
132237,0,1.09,-26.61,2.47,-0.022,-0.070,0.937,0.00,0.00,-4.82,-0.62,-5.92,25.99,-0.56,-5.05,67.57,-19.99,71.48,61.39,1206,1360,1384,1286,1309,1497,1509,11653,717
132249,0,-13.65,-4.49,0.90,-0.103,-0.129,1.050,0.00,0.00,-4.38,-0.56,9.27,3.93,-0.54,-5.05,67.56,1.47,6.97,65.30,1206,1360,1384,1286,1309,1497,1509,11687,717
132261,0,-21.39,5.20,0.67,-0.141,-0.140,1.160,0.00,0.00,-3.96,-0.57,17.43,-5.77,-0.53,-5.06,67.54,11.11,-17.98,65.86,1206,1360,1384,1286,1309,1497,1508,11678,717
132273,0,-23.36,-7.89,2.62,-0.050,-0.117,1.038,0.00,0.00,-3.70,-0.53,19.66,7.37,-0.52,-5.06,67.48,16.75,25.73,60.94,1206,1360,1384,1286,1309,1497,1508,11687,717
132285,0,-26.01,-8.23,1.77,0.033,-0.109,0.954,0.00,0.00,-3.50,-0.39,22.51,7.84,-0.51,-5.03,67.41,25.79,-4.55,62.97,1206,1360,1384,1286,1309,1497,1508,11674,717
132297,0,-27.58,14.10,-1.20,-0.041,-0.086,1.094,0.00,0.00,-3.12,-0.27,24.47,-14.37,-0.49,-5.01,67.36,25.95,-98.66,70.37,1206,1360,1384,1286,1309,1497,1508,11682,717
132309,0,-30.41,7.38,-0.12,-0.004,-0.055,1.052,0.00,0.00,-2.58,-0.25,27.83,-7.63,-0.47,-5.00,67.32,29.82,-55.72,67.62,1206,1360,1384,1286,1308,1497,1509,11653,717
132321,0,-36.50,3.57,0.79,0.080,0.030,0.971,0.00,0.00,-2.08,-0.45,34.42,-4.02,-0.45,-5.01,67.30,43.04,-10.94,65.32,1206,1360,1384,1286,1308,1497,1509,11670,717
132333,0,-36.68,11.02,0.66,0.152,0.100,0.997,0.00,0.00,-1.73,-0.69,34.95,-11.71,-0.43,-5.02,67.24,48.41,-36.69,65.59,1279,1425,1317,1211,1308,1497,1509,11632,717
132345,0,-28.55,14.44,0.89,0.110,0.145,1.055,0.00,0.00,-1.51,-0.91,27.04,-15.35,-0.41,-5.03,67.18,33.70,-64.67,64.97,1279,1425,1317,1211,1308,1497,1509,11637,717
132357,0,-26.63,10.43,0.34,0.078,0.109,1.062,0.00,0.00,-1.24,-1.13,25.39,-11.56,-0.40,-5.04,67.17,29.22,-42.38,66.32,1279,1425,1317,1211,1308,1497,1509,11649,717
132369,0,-22.94,26.79,-1.94,-0.015,0.103,1.189,0.00,0.00,-0.92,-1.59,22.02,-28.38,-0.38,-5.10,67.20,19.98,-55.82,72.06,1279,1425,1317,1211,1308,1497,1509,11662,717
132381,0,-20.78,36.99,-3.24,-0.195,0.128,1.286,0.00,0.00,-0.51,-2.08,20.27,-39.08,-0.35,-5.18,67.25,11.71,-54.94,75.35,1279,1425,1317,1211,1308,1497,1509,11666,717
132393,0,-18.14,33.37,-4.11,-0.320,0.130,1.379,0.00,0.00,0.07,-2.37,18.21,-35.74,-0.32,-5.25,67.32,-1.90,-39.10,77.60,1279,1425,1317,1211,1308,1497,1509,11641,717
132405,0,-17.48,15.34,-2.20,-0.309,0.151,1.315,0.00,0.00,0.66,-2.51,18.13,-17.86,-0.29,-5.32,67.38,-7.60,33.86,72.89,1279,1425,1317,1211,1308,1497,1509,11632,717
132417,0,-17.25,-8.40,0.10,-0.136,0.146,1.149,0.00,0.00,1.20,-2.24,18.46,6.16,-0.26,-5.34,67.40,-9.51,70.23,67.15,1279,1425,1317,1211,1308,1497,1509,11595,717
132429,0,-11.37,-2.89,1.75,-0.188,0.157,1.156,0.00,0.00,1.68,-1.89,13.05,1.01,-0.23,-5.34,67.41,-24.84,11.38,63.04,1279,1383,1357,1209,1307,1497,1509,11599,719
132441,0,-10.46,-28.52,2.54,-0.080,0.100,1.042,0.00,0.00,2.17,-1.26,12.63,27.25,-0.19,-5.31,67.41,-33.67,71.78,61.06,1279,1383,1357,1209,1307,1497,1509,11603,719
132453,0,-10.26,-50.39,1.28,0.163,0.002,0.830,0.00,0.00,2.77,-0.62,13.02,49.77,-0.15,-5.24,67.42,-40.11,110.00,64.23,1279,1383,1357,1209,1307,1497,1509,11628,719
132465,0,-13.90,-35.16,-0.23,0.112,-0.057,0.788,0.00,0.00,3.45,-0.05,17.35,35.11,-0.10,-5.17,67.42,-36.01,25.30,68.00,1279,1383,1357,1209,1307,1497,1509,11632,719
132477,0,-25.93,-17.04,-1.73,0.017,-0.108,0.867,0.00,0.00,4.34,0.13,30.28,17.16,-0.05,-5.13,67.43,-17.41,-11.63,71.76,1279,1383,1357,1209,1307,1497,1509,11637,719
132489,0,-32.03,-1.14,-1.20,-0.059,-0.129,0.974,0.00,0.00,5.21,0.06,37.24,1.20,0.00,-5.13,67.44,-5.45,-8.20,70.45,1279,1383,1357,1209,1307,1497,1509,11645,719
132501,0,-31.90,-4.33,2.16,0.008,-0.178,0.865,0.00,0.00,6.09,-0.05,37.99,4.28,0.05,-5.13,67.43,-5.54,18.80,62.02,1279,1383,1357,1209,1307,1497,1509,11653,719
132513,0,-38.23,0.29,1.66,0.264,-0.193,0.798,0.00,0.00,6.93,-0.64,45.15,-0.92,0.11,-5.15,67.44,12.30,17.70,63.28,1279,1383,1357,1209,1307,1497,1509,11662,719
132525,0,-38.96,12.47,0.92,0.247,-0.142,0.844,0.00,0.00,7.58,-1.44,46.54,-13.91,0.15,-5.17,67.43,21.73,-28.09,65.14,1279,1383,1357,1209,1308,1497,1509,11657,719
132537,0,-42.33,10.82,-0.67,0.315,-0.139,0.840,0.00,0.00,8.13,-2.41,50.46,-13.23,0.19,-5.19,67.44,33.33,-20.98,69.12,1304,1404,1350,1174,1308,1497,1509,11666,720
132549,0,-43.19,28.44,-2.11,0.148,-0.138,0.981,0.00,0.00,8.63,-3.45,51.81,-31.89,0.24,-5.26,67.46,36.15,-40.07,72.75,1304,1404,1350,1174,1308,1497,1509,11662,720
132561,0,-41.65,30.75,-2.54,-0.012,-0.131,1.079,0.00,0.00,9.17,-4.05,50.82,-34.80,0.28,-5.32,67.49,30.73,-50.65,73.84,1304,1404,1350,1174,1308,1497,1508,11670,720
132573,0,-42.91,28.53,-1.72,-0.080,-0.046,1.123,0.00,0.00,9.68,-4.41,52.58,-32.95,0.33,-5.37,67.51,35.78,-58.59,71.81,1304,1404,1350,1174,1308,1497,1508,11662,720
132585,0,-50.05,38.80,-1.92,-0.255,0.007,1.290,0.00,0.00,10.20,-4.83,60.25,-43.63,0.38,-5.45,67.54,52.97,-69.58,72.33,1304,1404,1350,1174,1308,1497,1508,11649,720
132597,0,-46.59,31.03,-0.66,-0.349,-0.063,1.262,0.00,0.00,10.72,-5.20,57.32,-36.24,0.43,-5.55,67.57,49.06,-4.14,69.22,1304,1404,1350,1174,1308,1497,1508,11628,720
132609,0,-54.90,30.86,-1.69,-0.289,-0.082,1.235,0.00,0.00,11.30,-5.22,66.20,-36.09,0.48,-5.61,67.58,64.24,-56.34,71.79,1304,1404,1350,1174,1308,1497,1508,11620,720
132621,0,-54.48,52.47,-2.53,-0.472,-0.055,1.361,0.00,0.00,11.86,-5.55,66.35,-58.03,0.53,-5.71,67.60,61.91,-106.05,73.92,1304,1404,1350,1174,1308,1497,1509,11637,720
132633,0,-49.34,51.17,-1.46,-0.525,-0.022,1.408,0.00,0.00,12.41,-6.00,61.75,-57.17,0.58,-5.83,67.61,50.62,-59.66,71.27,1221,1405,1339,1263,1307,1497,1509,11620,718
132645,0,-42.02,29.47,0.92,-0.315,0.022,1.308,0.00,0.00,13.02,-6.12,55.04,-35.59,0.63,-5.91,67.59,34.08,-10.14,65.28,1221,1405,1339,1263,1307,1497,1509,11616,718
132657,0,-41.00,3.68,4.04,-0.006,0.043,1.055,0.00,0.00,13.68,-6.03,54.68,-9.72,0.69,-5.95,67.50,33.47,29.21,57.41,1221,1405,1339,1263,1307,1497,1509,11653,718
132669,0,-35.82,-3.30,6.61,0.199,0.089,0.815,0.00,0.00,14.34,-6.18,50.16,-2.88,0.75,-5.97,67.39,21.68,26.06,50.87,1221,1405,1339,1263,1307,1497,1509,11674,718
132681,0,-31.43,-1.45,5.88,0.256,0.074,0.787,0.00,0.00,15.00,-6.46,46.43,-5.00,0.81,-5.98,67.27,8.05,1.73,52.58,1221,1405,1339,1263,1307,1497,1509,11682,718
132693,0,-30.93,-9.76,5.55,0.398,-0.010,0.712,0.00,0.00,15.68,-6.93,46.60,2.83,0.87,-5.99,67.13,3.20,12.04,53.25,1221,1405,1339,1263,1307,1497,1509,11682,718
132705,0,-28.58,-4.69,6.54,0.406,-0.057,0.601,0.00,0.00,16.29,-7.76,44.87,-3.07,0.93,-6.01,66.97,-1.37,6.00,50.62,1221,1405,1339,1263,1219,1497,1509,11674,718
132717,0,-27.54,16.01,5.13,0.260,-0.024,0.711,0.00,0.00,16.87,-8.75,44.41,-24.77,0.99,-6.07,66.84,-4.76,-31.30,54.00,1221,1405,1339,1263,1219,1497,1509,11674,718
132729,0,-31.43,54.11,3.18,-0.075,0.048,1.126,0.00,0.00,17.44,-9.87,48.87,-63.98,1.06,-6.20,66.72,1.32,-94.18,58.77,1100,1100,1100,1100,1060,1497,1509,11687,717
132741,0,-40.00,51.51,4.92,-0.220,0.052,1.246,0.00,0.00,18.07,-10.85,58.06,-62.36,1.13,-6.35,66.58,16.81,-37.32,54.29,1100,1100,1100,1100,1060,1497,1509,11695,717
132753,0,-48.51,24.14,7.07,-0.068,0.002,1.044,0.00,0.00,18.77,-11.56,67.28,-35.70,1.20,-6.47,66.42,34.15,50.06,48.74,1100,1100,1100,1100,1023,1497,1509,11720,717
132765,0,-53.85,29.69,5.81,0.044,-0.003,0.980,0.00,0.00,19.52,-12.36,73.37,-42.05,1.27,-6.59,66.26,44.71,18.25,51.72,1100,1100,1100,1100,1022,1497,1509,11741,717
132777,0,-56.46,32.16,4.95,0.109,0.012,0.906,0.00,0.00,20.22,-13.09,76.68,-45.24,1.34,-6.69,66.08,52.96,-24.65,53.70,1100,1100,1100,1100,1022,1497,1509,11778,717
132789,0,-49.58,56.58,4.78,0.007,0.072,1.002,0.00,0.00,20.70,-13.91,70.28,-70.49,1.41,-6.81,65.91,45.39,-110.00,53.97,1100,1100,1100,1100,1022,1497,1509,11857,717
132801,0,-37.00,57.17,5.53,0.045,0.031,0.955,0.00,0.00,21.22,-14.92,58.21,-72.08,1.48,-6.96,65.76,20.49,-80.80,51.95,1100,1100,1100,1100,1022,1497,1509,11895,717
132813,0,-26.39,35.36,5.96,0.256,-0.009,0.733,0.00,0.00,21.85,-15.92,48.24,-51.28,1.55,-7.09,65.63,-5.21,-7.45,50.72,1100,1100,1100,1100,1030,1497,1509,11911,717
132825,0,-20.04,42.46,4.59,0.194,-0.021,0.838,0.00,0.00,22.25,-16.97,42.29,-59.43,1.61,-7.23,65.54,-11.28,-44.54,54.06,1100,1100,1100,1100,1031,1497,1509,11940,717
132837,0,-32.06,34.83,3.11,0.111,-0.067,0.711,0.00,0.00,22.75,-18.19,54.81,-53.01,1.68,-7.40,65.50,15.57,30.53,57.73,1100,1100,1100,1100,1031,1497,1509,11953,718
132849,0,-24.82,44.27,1.25,-0.093,0.021,0.793,0.00,0.00,22.92,-19.33,47.75,-63.60,1.73,-7.57,65.45,11.23,-2.39,62.32,1100,1100,1100,1100,1031,1497,1509,11999,718
132861,0,-15.35,58.02,-0.67,-0.030,0.064,0.668,0.00,0.00,22.99,-20.76,38.34,-78.77,1.78,-7.78,65.46,3.10,-22.24,67.13,1100,1100,1100,1100,1031,1497,1508,12011,718
132873,0,-6.24,64.11,-1.79,0.134,-0.030,0.591,0.00,0.00,23.15,-22.34,29.39,-86.45,1.83,-7.95,65.49,-13.76,-80.37,69.97,1100,1100,1100,1100,1032,1497,1508,12015,718
132885,0,-7.91,89.85,-2.13,0.120,-0.110,0.602,0.00,0.00,23.37,-24.04,31.28,-113.88,1.88,-8.17,65.56,-13.43,-110.00,70.88,1100,1100,1100,1100,1032,1498,1508,12032,718
132897,0,-25.22,84.15,-5.29,0.083,-0.083,0.655,0.00,0.00,23.59,-25.50,48.81,-109.66,1.93,-8.40,65.68,23.17,-110.00,78.90,1100,1100,1100,1100,1032,1498,1508,12028,718
132909,0,-32.90,74.83,-5.35,-0.084,-0.049,0.614,0.00,0.00,23.64,-27.01,56.54,-101.84,1.98,-8.67,65.84,54.45,-27.47,79.22,1100,1100,1100,1100,1033,1498,1508,12024,718
132921,0,-4.71,92.04,-7.65,-0.210,-0.048,0.741,0.00,0.00,23.49,-28.62,28.20,-120.66,2.01,-8.97,66.03,8.48,-45.99,85.16,1100,1100,1100,1100,1033,1497,1508,12036,718
132933,0,14.97,103.75,-5.93,-0.277,-0.057,0.822,0.00,0.00,23.50,-29.90,8.53,-133.64,2.05,-9.25,66.20,-43.11,-110.00,81.01,1100,1100,1100,1100,1034,1497,1508,12049,720
132945,0,-5.51,76.25,-5.97,-0.152,-0.000,0.711,0.00,0.00,23.58,-31.16,29.09,-107.42,2.09,-9.54,66.43,-8.57,-6.48,81.36,1100,1100,1100,1100,1036,1497,1509,12044,720
132957,0,-28.73,71.66,-8.09,-0.037,-0.028,0.542,0.00,0.00,23.54,-32.68,52.27,-104.34,2.13,-9.84,66.67,56.79,35.29,86.89,1100,1100,1100,1100,1036,1497,1509,12049,720
132969,0,-3.74,97.27,-8.77,-0.114,-0.073,0.515,0.00,0.00,23.36,-34.24,27.10,-131.51,2.16,-10.00,66.90,14.15,-71.19,88.82,1100,1100,1100,1100,1036,1497,1509,12049,720
132981,0,5.18,97.34,-7.87,0.046,-0.129,0.344,0.00,0.00,23.36,-36.07,18.18,-133.40,2.19,-10.00,67.12,-7.58,-101.77,86.79,1100,1100,1100,1100,1036,1497,1509,12044,720
132993,0,-3.51,94.91,-8.51,0.159,-0.039,0.344,0.00,0.00,23.22,-38.22,26.73,-133.12,2.22,-10.00,67.37,15.14,-110.00,88.64,1100,1100,1100,1100,1034,1497,1509,12044,720
133005,0,3.05,89.19,-9.44,0.180,-0.017,0.387,0.00,0.00,23.28,-40.69,20.23,-129.88,2.24,-10.00,67.63,13.39,-76.80,91.22,1100,1100,1100,1100,1034,1497,1509,12040,720
133017,0,19.93,102.65,-9.19,0.177,-0.042,0.402,0.00,0.00,23.34,-43.52,3.41,-146.17,2.26,-10.00,67.91,-24.83,-110.00,90.88,1100,1100,1100,1100,1034,1497,1509,12028,720
133029,0,5.82,106.85,-10.66,0.070,-0.030,0.439,0.00,0.00,23.22,-46.27,17.40,-153.12,2.28,-10.00,68.22,4.79,-110.00,94.88,1100,1100,1100,1100,1034,1497,1509,12036,720
133041,0,5.17,104.27,-11.26,0.043,-0.016,0.386,0.00,0.00,22.93,-48.72,17.76,-152.99,2.29,-10.00,68.56,19.66,-85.58,96.71,1100,1100,1100,1100,1034,1497,1509,12040,720
133053,0,17.44,105.83,-11.44,0.075,-0.126,0.330,0.00,0.00,22.85,-51.17,5.41,-157.00,2.30,-10.00,68.93,-5.10,-64.01,97.52,1100,1100,1100,1100,1034,1497,1509,12044,720
133065,0,11.59,94.18,-12.98,0.223,-0.090,0.234,0.00,0.00,22.67,-53.98,11.08,-148.16,2.31,-10.00,69.30,4.85,-36.27,101.75,1100,1100,1100,1100,1034,1497,1509,12049,720
133077,0,13.49,107.06,-13.56,0.088,0.005,0.344,0.00,0.00,22.04,-56.61,8.55,-163.67,2.31,-10.00,69.67,17.19,-88.55,103.57,1100,1100,1100,1100,1034,1497,1509,12036,720
133089,0,26.85,125.87,-13.23,-0.019,-0.063,0.406,0.00,0.00,21.40,-58.98,-5.45,-184.86,2.31,-10.00,70.07,-4.20,-106.51,103.15,1100,1100,1100,1100,1034,1497,1509,12036,720
133101,0,26.38,118.50,-14.05,0.099,-0.130,0.256,0.00,0.00,21.08,-61.46,-5.30,-179.96,2.31,-10.00,70.47,-5.37,-85.95,105.60,1100,1100,1100,1100,1034,1497,1509,12044,720
133113,0,30.77,112.16,-15.02,0.083,-0.065,0.252,0.00,0.00,20.49,-64.03,-10.28,-176.19,2.29,-10.00,70.87,0.56,-86.74,108.43,1100,1100,1100,1100,1034,1497,1509,12044,720
133125,0,36.38,110.48,-14.49,0.120,-0.049,0.230,0.00,0.00,19.83,-66.79,-16.55,-177.27,2.27,-10.00,71.31,-0.89,-64.82,107.53,1100,1100,1100,1100,1034,1497,1509,12036,720
133137,0,38.31,128.04,-15.41,0.042,-0.135,0.260,0.00,0.00,19.26,-69.31,-19.06,-197.35,2.25,-10.00,71.77,-4.45,-110.00,110.00,1100,1100,1100,1100,1034,1497,1509,12049,718
133149,0,48.17,117.51,-16.06,0.045,-0.082,0.247,0.00,0.00,18.21,-71.66,-29.96,-189.17,2.21,-10.00,72.23,-10.29,-66.40,110.00,1100,1100,1100,1100,1034,1497,1509,12049,718
133161,0,56.59,107.43,-17.54,0.133,-0.053,0.181,0.00,0.00,17.20,-74.40,-39.38,-181.83,2.17,-10.00,72.74,-15.03,-45.48,110.00,1100,1100,1100,1100,1034,1497,1509,12057,718
133173,0,57.76,127.46,-18.01,0.084,-0.087,0.227,0.00,0.00,16.28,-77.36,-41.47,-204.82,2.12,-10.00,73.25,-12.26,-110.00,110.00,1100,1100,1100,1100,1034,1497,1509,12032,718
133185,0,67.37,125.68,-17.06,0.079,-0.023,0.272,0.00,0.00,14.55,-80.17,-52.81,-205.85,2.06,-10.00,73.77,-15.88,-96.80,110.00,1100,1100,1100,1100,1034,1497,1508,12049,718
133197,0,73.41,127.23,-18.79,-0.004,-0.102,0.326,0.00,0.00,13.07,-82.38,-60.34,-209.61,1.99,-10.00,74.34,-19.18,-90.26,110.00,1100,1100,1100,1100,1034,1497,1508,12069,718
133209,0,83.58,118.13,-20.09,0.152,-0.116,0.140,0.00,0.00,11.77,-85.21,-71.81,-203.34,1.91,-10.00,74.91,-33.06,-67.92,110.00,1100,1100,1100,1100,1034,1497,1508,12053,718
133221,0,86.04,145.95,-19.63,-0.032,-0.019,0.390,0.00,0.00,9.74,-88.01,-76.29,-233.96,1.82,-10.00,75.47,-22.35,-110.00,110.00,1100,1100,1100,1100,1034,1497,1508,12053,718
133233,0,83.56,131.53,-18.86,0.003,-0.091,0.249,0.00,0.00,8.01,-90.42,-75.55,-221.95,1.73,-10.00,76.08,-7.00,-74.26,110.00,1100,1100,1100,1100,1035,1497,1508,12049,718
133245,0,99.52,138.32,-21.45,-0.024,-0.132,0.335,0.00,0.00,6.19,-92.57,-93.33,-230.90,1.62,-10.00,76.69,-37.28,-110.00,110.00,1100,1100,1100,1100,1035,1497,1509,12061,718
133257,0,100.14,140.75,-20.49,-0.031,-0.114,0.278,0.00,0.00,4.09,-94.76,-96.04,-235.51,1.51,-10.00,77.30,-26.60,-110.00,110.00,1100,1100,1100,1100,1035,1497,1509,12053,718
