time_ms,flags,gyro_x,gyro_y,gyro_z,accel_x,accel_y,accel_z,roll,pitch,rate_sp_roll,rate_sp_pitch,rate_err_roll,rate_err_pitch,rate_i_roll,rate_i_pitch,rate_i_yaw,pid_roll,pid_pitch,pid_yaw,m1,m2,m3,m4,rc_thr,rc_roll,rc_pitch,battery_mv,loop_us
16318,0,0.00,0.02,0.00,0.032,-0.018,1.000,0.00,0.00,-0.02,-0.02,-0.03,-0.04,-0.00,-0.00,-0.00,-0.02,-0.15,-0.01,1000,1000,1000,1000,1035,1497,1508,12373,720
16330,0,0.05,0.07,-0.02,0.032,-0.019,1.000,0.00,0.00,-0.03,-0.02,-0.08,-0.10,-0.00,-0.00,-0.00,-0.04,-0.20,0.05,1100,1100,1100,1100,1035,1496,1508,12373,720
16342,0,0.02,0.01,-0.02,0.032,-0.018,1.000,0.00,0.00,-0.03,-0.03,-0.05,-0.04,-0.00,-0.00,-0.00,0.04,0.13,0.06,1100,1100,1100,1100,1035,1496,1508,12373,720
16354,0,-0.03,-0.02,0.01,0.031,-0.018,1.000,0.00,0.00,-0.03,-0.03,0.00,-0.00,-0.00,-0.00,-0.00,0.05,0.12,-0.02,1100,1100,1100,1100,1055,1496,1508,12373,720
16366,0,-0.12,-0.05,0.03,0.032,-0.019,1.000,0.00,0.00,-0.03,-0.03,0.10,0.02,-0.00,-0.00,-0.00,0.11,0.09,-0.08,1100,1100,1100,1100,1055,1496,1509,12373,720
16378,0,-0.06,-0.01,-0.01,0.032,-0.019,0.999,0.00,0.00,-0.03,-0.03,0.04,-0.02,-0.00,-0.00,-0.00,-0.03,-0.07,0.01,1100,1100,1100,1100,1055,1496,1509,12373,720
16390,0,-0.04,-0.03,0.02,0.032,-0.019,0.999,0.00,0.00,-0.02,-0.03,0.01,-0.00,-0.00,-0.00,-0.00,-0.03,0.06,-0.05,1100,1100,1100,1100,1057,1496,1508,12373,720
16402,0,-0.03,-0.02,0.02,0.032,-0.020,1.000,0.00,0.00,-0.02,-0.03,0.01,-0.01,-0.00,-0.00,-0.00,-0.01,-0.04,-0.06,1100,1100,1100,1100,1057,1496,1508,12373,720
16414,0,-0.03,-0.14,0.01,0.033,-0.019,0.998,0.00,0.00,-0.02,-0.03,0.01,0.11,-0.00,-0.00,-0.00,0.04,0.27,-0.03,1100,1100,1100,1100,1054,1497,1508,12365,720
16426,0,0.03,0.02,0.07,0.032,-0.019,0.999,0.00,0.00,-0.02,-0.03,-0.06,-0.05,-0.00,-0.00,-0.00,-0.01,-0.31,-0.18,1100,1100,1100,1100,1054,1497,1508,12365,720
16438,0,-0.01,0.05,0.11,0.032,-0.018,0.999,0.00,0.00,-0.02,-0.03,-0.02,-0.08,-0.00,-0.00,-0.01,0.04,-0.18,-0.29,1100,1100,1100,1100,1054,1497,1508,12361,720
16450,0,-0.04,0.03,-0.15,0.032,-0.018,1.000,0.00,0.00,-0.02,-0.04,0.02,-0.07,-0.00,-0.00,-0.00,0.09,0.02,0.38,1100,1100,1100,1100,1054,1497,1508,12352,720
16462,0,-0.13,-0.03,-0.10,0.032,-0.018,1.000,0.00,0.00,-0.02,-0.04,0.11,-0.00,-0.00,-0.00,-0.00,0.19,0.14,0.26,1100,1100,1100,1100,1054,1497,1508,12348,720
16474,0,-0.06,-0.05,0.06,0.031,-0.020,1.001,0.00,0.00,-0.02,-0.04,0.04,0.01,-0.00,-0.00,-0.00,-0.00,0.12,-0.15,1100,1100,1100,1100,1049,1497,1508,12352,720
16486,0,0.02,-0.07,-0.08,0.032,-0.019,1.000,0.00,0.00,-0.02,-0.04,-0.04,0.03,-0.00,-0.00,-0.00,-0.06,0.24,0.21,1100,1100,1100,1100,1049,1497,1508,12352,720
16498,0,0.04,0.04,-0.03,0.031,-0.020,1.000,0.00,0.00,-0.02,-0.04,-0.06,-0.08,-0.00,-0.00,0.00,-0.03,-0.06,0.09,1100,1100,1100,1100,1052,1497,1508,12348,720
16510,0,0.03,-0.04,0.26,0.030,-0.019,1.000,0.00,0.00,-0.02,-0.04,-0.06,-0.00,-0.00,-0.00,-0.00,-0.02,0.32,-0.65,1100,1100,1100,1100,1051,1497,1509,12336,720
16522,0,0.18,0.30,-0.09,0.028,-0.018,1.004,0.00,0.00,-0.03,-0.05,-0.21,-0.35,-0.00,-0.00,-0.01,-0.22,-0.33,0.23,1100,1100,1100,1100,1051,1497,1509,12332,720
16534,0,-0.10,0.02,-0.11,0.025,-0.017,1.006,0.00,0.00,-0.03,-0.04,0.07,-0.06,-0.00,-0.00,0.00,0.38,0.45,0.27,1100,1100,1100,1100,1051,1497,1509,12328,720
16546,0,-0.16,0.12,0.25,0.023,-0.021,1.008,0.00,0.00,-0.04,-0.03,0.13,-0.15,-0.00,-0.00,-0.00,0.38,-0.45,-0.64,1100,1100,1100,1100,1051,1497,1509,12307,720
16558,0,0.11,0.08,0.19,0.020,-0.016,1.013,0.00,0.00,-0.05,-0.02,-0.15,-0.10,-0.00,-0.00,-0.01,-0.10,0.65,-0.47,1100,1100,1100,1100,1051,1497,1509,12290,720
16570,0,-0.42,-0.39,-0.53,0.024,-0.021,1.002,0.00,0.00,-0.05,-0.01,0.37,0.38,-0.00,-0.00,0.00,0.89,3.45,1.32,1100,1100,1100,1100,1055,1497,1509,12269,720
16582,0,0.48,-1.36,0.11,0.045,-0.021,0.979,0.00,0.00,-0.05,-0.00,-0.53,1.36,-0.00,-0.00,0.01,-1.08,2.67,-0.27,1100,1100,1100,1100,1055,1497,1509,12261,720
16594,0,-0.16,0.10,0.20,0.043,-0.027,0.984,0.00,0.00,-0.05,-0.00,0.11,-0.11,-0.00,0.00,0.00,0.38,-4.91,-0.50,1100,1100,1100,1100,1055,1497,1509,12278,720
16606,0,0.38,1.09,-0.38,0.032,-0.025,0.989,0.00,0.00,-0.05,-0.04,-0.43,-1.13,-0.00,-0.00,0.01,-0.90,-2.11,0.96,1100,1100,1100,1100,1055,1497,1509,12265,720
16618,0,0.31,0.31,-0.26,0.030,-0.020,0.992,0.00,0.00,-0.05,-0.06,-0.36,-0.37,-0.00,-0.00,0.02,-0.70,0.05,0.66,1100,1100,1100,1100,1062,1497,1509,12211,720
16630,0,-0.04,-0.66,0.21,0.026,-0.024,0.994,0.00,0.00,-0.03,-0.06,0.01,0.60,-0.00,-0.00,0.01,-0.12,4.03,-0.50,1100,1100,1100,1100,1054,1497,1509,12207,720
16642,0,-0.05,-1.71,0.08,0.040,-0.017,0.989,0.00,0.00,-0.03,-0.05,0.02,1.67,-0.00,-0.00,0.01,-0.18,5.54,-0.18,1100,1100,1100,1100,1054,1497,1509,12186,720
16654,0,-0.24,-1.66,-0.04,0.054,-0.016,0.981,0.00,0.00,-0.01,-0.03,0.23,1.63,-0.00,0.00,0.01,-0.14,2.85,0.11,1100,1100,1100,1100,1054,1497,1509,12153,720
16666,0,-0.12,0.08,0.07,0.048,-0.017,0.982,0.00,0.00,-0.01,-0.03,0.11,-0.11,-0.00,0.00,0.01,-0.01,-5.65,-0.16,1100,1100,1100,1100,1054,1497,1509,12115,720
16678,0,-0.01,-1.70,-0.14,0.059,-0.018,0.969,0.00,0.00,-0.01,-0.04,-0.01,1.66,-0.00,0.01,0.01,-0.14,2.77,0.37,1100,1100,1100,1100,1054,1497,1508,12111,720
16690,0,0.27,-3.78,0.31,0.074,-0.015,0.956,0.00,0.00,-0.02,-0.03,-0.29,3.75,-0.00,0.02,0.01,-0.15,4.21,-0.77,1100,1100,1100,1100,1051,1497,1508,12136,720
16702,0,0.30,-1.78,0.30,0.067,-0.020,0.964,0.00,0.00,-0.04,-0.03,-0.34,1.75,-0.00,0.02,-0.00,-0.31,-4.34,-0.75,1100,1100,1100,1100,1051,1497,1508,12144,720
16714,0,0.38,0.17,-0.19,0.059,-0.019,0.976,0.00,0.00,-0.04,-0.06,-0.43,-0.23,-0.00,0.02,-0.00,-0.49,-6.24,0.46,1100,1100,1100,1100,1054,1497,1508,12186,720
16726,0,0.41,-0.39,-0.03,0.051,-0.018,0.983,0.00,0.00,-0.06,-0.08,-0.47,0.31,-0.00,0.03,-0.00,-0.69,-1.66,0.08,1100,1100,1100,1100,1054,1497,1508,12194,720
16738,0,0.74,1.90,0.14,0.043,-0.011,0.994,0.00,0.00,-0.07,-0.13,-0.82,-2.03,-0.00,0.02,-0.00,-1.09,-6.27,-0.36,1100,1100,1100,1100,1051,1497,1508,12207,720
16750,0,0.16,0.24,-0.26,0.041,-0.012,1.004,0.00,0.00,-0.08,-0.15,-0.24,-0.40,-0.00,0.02,0.00,-0.19,1.22,0.65,1100,1100,1100,1100,1050,1497,1509,12186,720
16762,0,0.01,1.10,0.31,0.043,-0.013,1.006,0.00,0.00,-0.08,-0.19,-0.09,-1.29,-0.00,0.02,0.00,-0.41,-2.87,-0.76,1100,1100,1100,1100,1050,1497,1509,12186,720
16774,0,-0.63,0.19,0.19,0.027,-0.015,1.008,0.00,0.00,-0.09,-0.19,0.55,-0.38,-0.00,0.02,-0.01,0.99,0.92,-0.49,1100,1100,1100,1100,1050,1497,1509,12211,720
16786,0,0.24,0.36,-0.88,-0.001,-0.024,1.025,0.00,0.00,-0.09,-0.16,-0.33,-0.52,-0.00,0.02,0.01,-0.42,-0.35,2.21,1100,1100,1100,1100,1050,1497,1509,12207,720
16798,0,0.59,1.29,0.30,0.005,-0.019,1.013,0.00,0.00,-0.09,-0.14,-0.68,-1.42,-0.00,0.02,0.02,-1.79,-2.75,-0.72,1100,1100,1100,1100,1053,1497,1509,12219,720
16810,0,-0.18,-0.72,0.30,0.029,-0.013,0.991,0.00,0.00,-0.08,-0.11,0.10,0.61,-0.00,0.02,0.00,0.09,1.79,-0.76,1100,1100,1100,1100,1053,1497,1509,12236,720
16822,0,-2.26,-3.48,-1.16,0.047,-0.022,0.997,0.00,0.00,-0.07,-0.08,2.19,3.41,-0.00,0.02,0.03,4.76,11.08,2.92,1100,1100,1100,1100,1053,1497,1509,12232,720
16834,0,-0.03,-0.55,0.45,0.031,-0.013,1.008,0.00,0.00,-0.08,-0.09,-0.05,0.46,-0.00,0.02,0.03,0.83,1.54,-1.08,1100,1100,1100,1100,1047,1497,1509,12228,745
16846,0,0.52,0.75,-0.65,0.023,-0.002,0.999,0.00,0.00,-0.11,-0.09,-0.63,-0.84,-0.00,0.02,0.03,0.27,-5.10,1.67,1100,1100,1100,1100,1047,1496,1509,12219,745
16858,0,2.47,2.96,0.33,0.024,-0.023,0.981,0.00,0.00,-0.11,-0.11,-2.58,-3.07,-0.00,0.02,0.03,-4.49,-11.67,-0.79,1100,1100,1100,1100,1047,1496,1509,12194,745
16870,0,1.47,3.46,-0.14,0.011,-0.004,0.992,0.00,0.00,-0.13,-0.13,-1.60,-3.59,-0.00,0.02,0.03,-1.67,-10.45,0.38,1100,1100,1100,1100,1050,1496,1509,12215,745
16882,0,2.50,4.06,0.16,0.021,-0.045,0.995,0.00,0.00,-0.12,-0.14,-2.62,-4.19,-0.00,0.01,0.03,-5.80,-14.11,-0.37,1100,1100,1100,1100,1050,1496,1509,12223,745
16894,0,2.75,1.24,-0.18,0.037,-0.024,0.995,0.00,0.00,-0.12,-0.11,-2.86,-1.35,-0.01,0.02,0.03,-5.34,-10.84,0.47,1100,1100,1100,1100,1050,1497,1509,12240,745
16906,0,3.45,3.96,0.17,0.052,-0.048,0.980,0.00,0.00,-0.09,-0.15,-3.55,-4.11,-0.01,0.02,0.04,-7.00,-18.23,-0.39,1100,1100,1100,1100,1050,1497,1509,12240,745
16918,0,1.32,2.57,-0.29,0.045,-0.019,0.999,0.00,0.00,-0.08,-0.17,-1.40,-2.74,-0.01,0.02,0.04,-2.19,-15.81,0.75,1100,1100,1100,1100,1050,1497,1509,12261,745
16930,0,3.59,-0.01,0.05,0.076,-0.042,0.971,0.00,0.00,-0.06,-0.16,-3.65,-0.16,-0.01,0.03,0.04,-8.74,-10.71,-0.07,1100,1100,1100,1100,1050,1497,1509,12257,718
16942,0,0.08,5.62,-0.69,0.015,-0.020,1.019,0.00,0.00,-0.03,-0.19,-0.11,-5.80,-0.01,0.03,0.05,-0.71,-27.29,1.77,1100,1100,1100,1100,1050,1497,1509,12244,718
16954,0,3.43,2.09,-0.29,0.074,-0.042,0.967,0.00,0.00,-0.01,-0.21,-3.43,-2.30,-0.01,0.03,0.07,-8.70,-11.32,0.79,1100,1100,1100,1100,1050,1497,1509,12240,718
16966,0,0.42,-0.27,-1.12,0.020,-0.011,0.979,0.00,0.00,-0.01,-0.18,-0.44,0.09,-0.01,0.04,0.08,-0.49,-7.60,2.87,1100,1100,1100,1100,1050,1497,1509,12248,718
16978,0,4.09,5.93,-0.68,0.034,-0.034,0.995,0.00,0.00,-0.02,-0.21,-4.11,-6.14,-0.01,0.04,0.10,-7.64,-28.69,1.81,1100,1100,1100,1100,1047,1497,1509,12223,718
16990,0,0.59,-2.84,-1.66,0.029,0.005,0.961,0.00,0.00,-0.05,-0.17,-0.64,2.67,-0.01,0.04,0.12,-1.16,7.83,4.28,1100,1100,1100,1100,1039,1497,1508,12240,718
17002,0,3.97,-1.13,-0.74,0.065,-0.020,0.947,0.00,0.00,-0.03,-0.21,-4.00,0.92,-0.01,0.05,0.15,-8.48,-3.88,2.00,1100,1100,1100,1100,1039,1497,1508,12244,718
17014,0,0.74,-1.68,-1.37,0.061,0.003,0.953,0.00,0.00,-0.02,-0.18,-0.77,1.50,-0.01,0.06,0.18,-2.83,-4.75,3.61,1100,1100,1100,1100,1039,1497,1508,12253,718
17026,0,2.18,7.72,-0.60,-0.015,0.020,1.039,0.00,0.00,-0.07,-0.27,-2.25,-8.00,-0.01,0.05,0.20,-2.21,-24.74,1.70,1100,1100,1100,1100,1039,1497,1508,12261,720
17038,0,1.79,1.77,-1.13,0.042,-0.005,1.004,0.00,0.00,-0.08,-0.30,-1.86,-2.07,-0.01,0.04,0.24,-3.53,1.71,3.06,1100,1100,1100,1100,1039,1497,1508,12240,720
17050,0,-3.01,-3.81,-0.39,0.047,0.005,0.975,0.00,0.00,-0.05,-0.27,2.95,3.54,-0.01,0.05,0.26,6.54,12.39,1.24,1100,1100,1100,1100,1041,1496,1508,12253,720
17062,0,-0.08,0.09,-0.73,0.065,-0.023,0.977,0.00,0.00,-0.03,-0.28,0.05,-0.37,-0.01,0.05,0.28,-0.82,-9.73,2.11,1100,1100,1100,1100,1041,1496,1508,12248,720
17074,0,-1.94,-2.07,-1.07,0.006,-0.007,0.981,0.00,0.00,-0.03,-0.23,1.91,1.84,-0.00,0.06,0.30,2.13,1.44,2.97,1100,1100,1100,1100,1054,1496,1508,12240,720
17086,0,-0.07,-1.66,-0.25,0.018,-0.002,0.993,0.00,0.00,-0.04,-0.24,0.03,1.42,-0.00,0.05,0.32,-1.12,11.76,0.95,1100,1100,1100,1100,1054,1496,1508,12240,720
17098,0,-1.99,-0.30,-0.70,-0.002,-0.008,1.005,0.00,0.00,-0.02,-0.15,1.98,0.15,-0.00,0.05,0.33,0.54,-1.18,2.08,1100,1100,1100,1100,1056,1496,1509,12236,720
17110,0,-0.74,1.76,0.83,-0.040,0.022,1.072,0.00,0.00,-0.03,-0.08,0.72,-1.83,0.00,0.05,0.34,-0.63,-9.40,-1.73,1100,1100,1100,1100,1056,1497,1509,12253,720
17122,0,-0.91,7.63,-1.15,-0.061,0.001,1.108,0.00,0.00,-0.01,-0.04,0.90,-7.67,0.00,0.04,0.37,-1.58,-16.45,3.25,1100,1100,1100,1100,1056,1497,1509,12261,720
17134,0,-3.18,8.18,-1.44,-0.132,-0.012,1.120,0.00,0.00,-0.03,0.01,3.16,-8.17,0.00,0.02,0.40,5.11,-10.59,4.01,1100,1100,1100,1100,1051,1497,1509,12261,720
17146,0,2.05,2.36,-2.03,-0.068,-0.006,1.107,0.00,0.00,-0.05,0.09,-2.10,-2.27,0.00,0.02,0.45,-4.68,6.88,5.52,1100,1100,1100,1100,1051,1496,1509,12261,720
17158,0,-0.77,1.76,-1.81,-0.057,-0.018,1.095,0.00,0.00,-0.06,0.16,0.71,-1.60,0.00,0.01,0.48,0.31,7.61,5.01,1100,1100,1100,1100,1051,1496,1508,12240,720
17170,0,0.48,0.73,-0.82,-0.034,0.025,1.113,0.00,0.00,-0.14,0.21,-0.62,-0.53,0.00,0.01,0.53,1.95,3.90,2.57,1100,1100,1100,1100,1051,1496,1508,12240,720
17182,0,1.44,5.38,-1.75,-0.024,-0.015,1.100,0.00,0.00,-0.14,0.21,-1.59,-5.17,0.00,-0.01,0.58,-2.84,-6.98,4.96,1100,1100,1100,1100,1051,1496,1508,12232,720
17194,0,-3.54,4.51,-1.55,-0.078,-0.019,1.114,0.00,0.00,-0.16,0.26,3.38,-4.25,0.00,-0.02,0.63,7.44,-3.65,4.50,1100,1100,1100,1100,1038,1496,1508,12207,720
17206,0,1.67,1.61,-0.94,-0.026,-0.023,1.078,0.00,0.00,-0.17,0.27,-1.84,-1.34,0.00,-0.03,0.66,-3.46,11.57,3.00,1100,1100,1100,1100,1038,1496,1508,12198,720
17218,0,-1.21,3.56,-0.23,-0.040,-0.039,1.070,0.00,0.00,-0.16,0.35,1.05,-3.21,0.00,-0.03,0.68,0.60,-6.68,1.26,1100,1100,1100,1100,1035,1496,1508,12232,720
17230,0,0.19,-6.03,-0.08,0.001,0.020,1.058,0.00,0.00,-0.17,0.43,-0.35,6.46,0.00,-0.03,0.70,-0.77,25.24,0.91,1100,1100,1100,1100,1038,1496,1508,12232,718
17242,0,-0.19,3.54,-1.29,0.038,-0.047,1.004,0.00,0.00,-0.12,0.47,0.07,-3.06,0.00,-0.02,0.73,-0.92,-16.87,3.94,1100,1100,1100,1100,1038,1496,1508,12240,718
17254,0,-0.04,-4.64,-2.34,0.014,-0.017,1.001,0.00,0.00,-0.13,0.65,-0.10,5.29,0.00,-0.00,0.76,-0.08,-4.38,6.60,1100,1100,1100,1100,1056,1496,1508,12232,718
17266,0,1.40,-3.41,-1.57,0.047,-0.038,0.961,0.00,0.00,-0.11,0.64,-1.51,4.05,0.00,-0.00,0.80,-2.51,9.35,4.72,1100,1100,1100,1100,1056,1497,1508,12240,718
17278,0,4.84,-0.23,-1.39,0.072,-0.030,0.982,0.00,0.00,-0.11,0.66,-4.95,0.90,0.00,0.01,0.86,-9.21,-14.35,4.34,1100,1100,1100,1100,1056,1497,1508,12223,718
17290,0,-2.14,-6.96,-2.05,0.053,-0.028,0.964,0.00,0.00,-0.03,0.69,2.12,7.65,0.00,0.02,0.92,4.23,21.03,6.04,1100,1100,1100,1100,1049,1496,1508,12223,718
17302,0,-2.10,4.56,-2.60,-0.009,-0.061,1.036,0.00,0.00,-0.02,0.69,2.07,-3.87,0.00,0.02,0.99,7.93,-25.69,7.50,1100,1100,1100,1100,1049,1496,1508,12223,718
17314,0,1.50,-1.73,-2.87,0.014,-0.062,0.977,0.00,0.00,0.02,0.72,-1.48,2.45,0.00,0.02,1.07,-3.47,10.91,8.26,1100,1100,1100,1100,1049,1498,1508,12244,718
17326,0,-1.08,-0.73,-1.81,-0.022,-0.013,1.028,0.00,0.00,-0.01,0.80,1.07,1.53,-0.00,0.03,1.14,3.67,-2.42,5.68,1100,1100,1100,1100,1049,1496,1508,12228,718
17338,0,1.85,-5.36,-1.73,0.096,0.008,0.938,0.00,0.00,-0.02,0.82,-1.87,6.18,-0.00,0.04,1.21,-2.39,14.73,5.53,1100,1100,1100,1100,1051,1496,1508,12240,718
17350,0,-2.35,2.47,-2.81,0.024,-0.036,0.975,0.00,0.00,0.01,0.86,2.36,-1.60,0.00,0.04,1.28,2.64,-21.54,8.29,1100,1100,1100,1100,1051,1497,1508,12253,718
17362,0,-1.28,-10.40,-2.78,0.101,0.025,0.928,0.00,0.00,0.00,0.85,1.28,11.25,0.00,0.06,1.34,0.94,30.71,8.29,1100,1100,1100,1100,1051,1497,1508,12248,718
17374,0,3.30,3.17,-2.22,0.050,-0.032,0.990,0.00,0.00,0.02,0.80,-3.28,-2.37,0.00,0.06,1.41,-9.09,-18.40,6.97,1100,1100,1100,1100,1050,1496,1509,12248,718
17386,0,-4.76,-3.55,-2.58,0.057,-0.006,0.986,0.00,0.00,0.11,0.78,4.87,4.33,0.01,0.07,1.49,4.67,10.36,7.93,1100,1100,1100,1100,1050,1497,1509,12240,718
17398,0,-2.57,3.33,-1.99,-0.006,-0.046,1.065,0.00,0.00,0.17,0.72,2.74,-2.61,0.01,0.06,1.56,4.39,-5.86,6.54,1100,1100,1100,1100,1050,1497,1509,12236,718
17410,0,-1.43,-0.37,-2.26,0.022,-0.068,1.002,0.00,0.00,0.27,0.75,1.70,1.11,0.01,0.06,1.65,-3.09,7.37,7.30,1100,1100,1100,1100,1049,1497,1509,12253,718
17422,0,-5.49,-0.64,-2.07,-0.028,0.012,1.080,0.00,0.00,0.28,0.82,5.77,1.46,0.01,0.07,1.70,8.22,-2.54,6.86,1100,1100,1100,1100,1049,1497,1509,12257,718
17434,0,-2.01,-0.82,-1.12,0.048,-0.029,1.005,0.00,0.00,0.36,0.81,2.36,1.63,0.02,0.07,1.75,-0.46,3.88,4.54,1100,1100,1100,1100,1052,1497,1509,12248,720
17446,0,-5.29,-3.58,-2.66,0.040,-0.022,0.982,0.00,0.00,0.44,0.97,5.72,4.55,0.02,0.09,1.80,3.59,-6.59,8.44,1100,1100,1100,1100,1052,1497,1509,12223,720
17458,0,-5.12,-4.97,-1.52,0.028,0.002,1.001,0.00,0.00,0.50,0.94,5.62,5.91,0.03,0.09,1.83,4.62,16.84,5.63,1100,1100,1100,1100,1049,1497,1509,12219,720
17470,0,-0.24,7.44,-1.53,0.034,-0.007,1.078,0.00,0.00,0.57,0.90,0.81,-6.54,0.03,0.09,1.89,-5.47,-29.62,5.71,1100,1100,1100,1100,1050,1497,1509,12198,720
17482,0,-3.70,-0.58,-1.78,0.003,-0.021,1.023,0.00,0.00,0.63,0.91,4.33,1.48,0.04,0.09,1.95,3.14,8.63,6.40,1100,1100,1100,1100,1050,1497,1509,12215,720
17494,0,2.11,1.10,-1.12,-0.001,-0.015,1.097,0.00,0.00,0.57,0.82,-1.54,-0.28,0.04,0.08,2.01,-3.22,13.89,4.82,1100,1100,1100,1100,1049,1497,1509,12215,720
17506,0,5.76,2.05,-2.00,0.043,-0.023,1.002,0.00,0.00,0.53,0.83,-5.23,-1.22,0.03,0.08,2.06,-10.51,-2.93,7.06,1100,1100,1100,1100,1049,1497,1509,12215,720
17518,0,1.40,-0.59,-1.38,0.017,-0.019,0.975,0.00,0.00,0.47,0.84,-0.93,1.43,0.03,0.08,2.10,1.40,1.09,5.54,1100,1100,1100,1100,1048,1497,1509,12203,720
17530,0,3.49,4.39,-1.50,0.011,-0.044,1.047,0.00,0.00,0.41,0.77,-3.08,-3.62,0.03,0.08,2.14,-0.35,-9.86,5.89,1100,1100,1100,1100,1048,1497,1509,12207,721
17542,0,4.26,1.49,-1.82,0.068,-0.063,0.941,0.00,0.00,0.40,0.74,-3.86,-0.75,0.03,0.08,2.18,-4.57,-4.05,6.73,1100,1100,1100,1100,1048,1497,1509,12194,721
17554,0,-0.80,2.12,-1.33,0.027,-0.034,1.001,0.00,0.00,0.36,0.63,1.16,-1.48,0.02,0.07,2.22,8.29,2.13,5.55,1100,1100,1100,1100,1049,1497,1509,12223,721
17566,0,5.82,6.82,-1.00,0.037,-0.035,1.035,0.00,0.00,0.34,0.49,-5.48,-6.33,0.02,0.07,2.26,-6.16,-16.45,4.75,1100,1100,1100,1100,1049,1497,1509,12228,721
17578,0,2.35,-2.57,-0.95,0.067,-0.049,0.935,0.00,0.00,0.29,0.49,-2.05,3.07,0.02,0.07,2.30,0.06,13.19,4.67,1100,1100,1100,1100,1049,1497,1509,12228,721
17590,0,1.84,-3.91,-1.71,0.041,-0.025,0.989,0.00,0.00,0.21,0.44,-1.63,4.35,0.01,0.07,2.34,3.90,20.43,6.61,1100,1100,1100,1100,1049,1497,1509,12228,721
17602,0,6.25,5.05,-1.22,0.063,-0.056,0.990,0.00,0.00,0.17,0.40,-6.08,-4.65,0.01,0.07,2.37,-6.69,-25.89,5.42,1100,1100,1100,1100,1049,1497,1509,12223,721
17614,0,4.33,-2.99,-1.00,0.073,-0.044,0.947,0.00,0.00,0.10,0.36,-4.22,3.34,0.00,0.07,2.40,-1.92,12.03,4.89,1100,1100,1100,1100,1035,1497,1509,12223,721
17626,0,6.53,-0.26,-1.16,0.107,-0.018,1.017,0.00,0.00,0.02,0.17,-6.52,0.44,-0.00,0.07,2.43,-5.40,9.06,5.33,1100,1100,1100,1100,1035,1497,1509,12223,720
17638,0,1.86,3.59,-1.21,0.110,-0.016,0.974,0.00,0.00,-0.05,0.01,-1.90,-3.57,-0.01,0.06,2.47,3.20,-11.31,5.49,1100,1100,1100,1100,1035,1497,1509,12236,720
17650,0,-0.51,0.35,-1.79,0.010,-0.017,1.012,0.00,0.00,-0.09,-0.04,0.42,-0.39,-0.01,0.06,2.52,5.07,5.48,7.01,1100,1100,1100,1100,1049,1497,1509,12240,720
17662,0,0.14,3.55,-1.21,-0.043,-0.036,1.076,0.00,0.00,-0.11,-0.08,-0.25,-3.63,-0.01,0.05,2.57,0.29,4.66,5.59,1100,1100,1100,1100,1049,1497,1509,12240,720
17674,0,-1.25,5.30,-1.94,-0.034,0.002,1.097,0.00,0.00,-0.08,-0.04,1.17,-5.34,-0.01,0.03,2.63,-1.01,-4.59,7.48,1100,1100,1100,1100,1050,1497,1509,12244,720
17686,0,-6.08,8.81,-2.09,-0.116,0.005,1.137,0.00,0.00,-0.03,0.04,6.05,-8.77,-0.00,0.02,2.67,7.49,-23.72,7.89,1100,1100,1100,1100,1050,1498,1509,12232,720
17698,0,-2.73,1.26,-1.52,-0.052,0.012,1.080,0.00,0.00,0.01,0.13,2.74,-1.13,0.00,0.02,2.72,0.22,7.38,6.52,1100,1100,1100,1100,1049,1498,1508,12223,720
17710,0,-2.00,-0.19,-1.76,-0.065,-0.016,1.100,0.00,0.00,0.07,0.32,2.07,0.51,0.01,0.02,2.76,-3.24,0.60,7.16,1100,1100,1100,1100,1056,1498,1508,12232,720
17722,0,-3.11,-7.63,-1.23,0.013,0.035,1.063,0.00,0.00,0.08,0.44,3.20,8.06,0.01,0.03,2.80,1.97,26.63,5.87,1100,1100,1100,1100,1056,1498,1508,12228,720
17734,0,1.36,6.77,-1.24,-0.030,-0.013,1.080,0.00,0.00,0.10,0.50,-1.27,-6.27,0.01,0.03,2.86,-5.95,-29.29,5.96,1100,1100,1100,1100,1049,1497,1508,12228,719
17746,0,-3.56,-4.20,-2.01,-0.003,-0.015,0.995,0.00,0.00,0.14,0.56,3.70,4.77,0.01,0.03,2.92,1.70,21.11,7.94,1100,1100,1100,1100,1049,1497,1508,12228,719
17758,0,-0.88,-0.25,-2.37,-0.004,-0.024,1.046,0.00,0.00,0.17,0.61,1.05,0.86,0.01,0.03,2.99,0.53,1.46,8.91,1100,1100,1100,1100,1050,1497,1508,12232,719
17770,0,-0.35,-2.53,-2.86,0.051,-0.061,0.920,0.00,0.00,0.31,0.71,0.66,3.24,0.02,0.04,3.07,-5.00,-4.07,10.23,1100,1100,1100,1100,1050,1497,1508,12232,719
17782,0,-7.74,1.76,-3.19,-0.043,-0.038,1.026,0.00,0.00,0.36,0.78,8.10,-0.97,0.02,0.04,3.14,14.78,-13.69,11.11,1100,1100,1100,1100,1050,1497,1508,12228,719
17794,0,2.99,0.73,-1.54,0.006,-0.031,1.040,0.00,0.00,0.37,0.78,-2.61,0.05,0.02,0.05,3.20,-6.87,-0.49,7.05,1100,1100,1100,1100,1050,1497,1509,12223,719
17806,0,0.40,2.47,-2.35,-0.013,0.011,1.065,0.00,0.00,0.36,0.83,-0.03,-1.65,0.02,0.05,3.27,-4.02,-8.31,9.15,1100,1100,1100,1100,1050,1497,1509,12211,719
17818,0,-3.58,-2.42,-1.47,-0.004,0.030,1.060,0.00,0.00,0.35,0.80,3.92,3.22,0.02,0.04,3.32,7.25,22.80,6.98,1100,1100,1100,1100,1054,1497,1509,12223,719
17830,0,-0.47,4.69,-0.79,-0.038,-0.030,1.084,0.00,0.00,0.36,0.86,0.83,-3.83,0.03,0.04,3.37,-1.67,-11.53,5.34,1100,1100,1100,1100,1052,1496,1509,12215,721
17842,0,-3.21,-1.27,-2.27,-0.050,-0.029,1.042,0.00,0.00,0.42,0.94,3.62,2.21,0.03,0.03,3.43,1.58,16.80,9.09,1100,1100,1100,1100,1052,1496,1509,12215,721
17854,0,2.58,1.15,-1.88,-0.015,-0.027,1.098,0.00,0.00,0.44,1.01,-2.13,-0.13,0.03,0.04,3.48,-7.75,-4.43,8.18,1100,1100,1100,1100,1054,1496,1509,12207,721
17866,0,-2.22,-3.69,-2.63,0.052,-0.041,0.925,0.00,0.00,0.56,1.10,2.78,4.80,0.04,0.05,3.54,0.33,6.01,10.12,1100,1100,1100,1100,1054,1497,1509,12203,721
17878,0,-5.98,-2.72,-1.75,-0.001,-0.042,1.026,0.00,0.00,0.60,1.19,6.58,3.91,0.04,0.06,3.59,12.01,-2.06,7.96,1100,1100,1100,1100,1052,1497,1509,12194,721
17890,0,0.21,0.02,-1.62,0.009,-0.069,1.040,0.00,0.00,0.66,1.19,0.44,1.17,0.04,0.06,3.65,-1.51,-5.39,7.70,1100,1100,1100,1100,1054,1497,1509,12207,721
17902,0,0.99,0.20,-2.47,0.017,-0.035,1.011,0.00,0.00,0.67,1.22,-0.32,1.02,0.04,0.07,3.72,-3.14,-1.52,9.90,1100,1100,1100,1100,1054,1497,1509,12190,721
17914,0,-0.94,3.87,-1.27,-0.013,-0.024,1.065,0.00,0.00,0.68,1.14,1.62,-2.73,0.04,0.05,3.77,4.63,3.80,6.96,1100,1100,1100,1100,1057,1497,1509,12219,721
17926,0,5.05,5.87,-1.68,-0.017,-0.054,1.072,0.00,0.00,0.65,1.16,-4.40,-4.71,0.04,0.05,3.83,-6.50,-16.04,8.02,1100,1100,1100,1100,1057,1496,1509,12219,720
17938,0,4.33,-0.42,-1.98,-0.032,-0.052,1.026,0.00,0.00,0.61,1.21,-3.72,1.62,0.03,0.05,3.88,-5.26,13.87,8.82,1100,1100,1100,1100,1057,1496,1509,12207,720
17950,0,6.66,-5.51,-2.10,0.032,0.015,1.056,0.00,0.00,0.48,1.24,-6.17,6.75,0.03,0.06,3.93,-5.68,23.73,9.18,1100,1100,1100,1100,1054,1496,1509,12178,720
17962,0,4.31,7.80,-2.29,0.046,-0.047,0.999,0.00,0.00,0.44,1.18,-3.88,-6.62,0.03,0.05,3.99,-2.12,-28.78,9.72,1100,1100,1100,1100,1054,1496,1509,12190,720
17974,0,-0.43,-1.78,-1.39,0.038,-0.017,0.994,0.00,0.00,0.35,1.15,0.78,2.93,0.02,0.06,4.04,6.61,8.35,7.51,1100,1100,1100,1100,1049,1497,1509,12190,720
17986,0,4.62,1.72,-1.53,0.062,-0.036,1.002,0.00,0.00,0.24,0.98,-4.38,-0.74,0.02,0.05,4.10,-1.75,5.00,7.92,1100,1100,1100,1100,1049,1497,1509,12219,720
17998,0,4.55,0.05,-1.41,0.118,-0.021,0.885,0.00,0.00,0.18,0.90,-4.37,0.86,0.02,0.06,4.15,-4.80,-3.43,7.68,1100,1100,1100,1100,1050,1497,1509,12223,720
18010,0,0.09,5.64,-1.79,0.034,-0.015,0.979,0.00,0.00,0.13,0.81,0.03,-4.83,0.01,0.06,4.20,6.85,-23.21,8.67,1100,1100,1100,1100,1049,1497,1509,12182,720
18022,0,1.71,-1.90,-1.31,0.085,-0.062,0.956,0.00,0.00,0.14,0.75,-1.56,2.65,0.01,0.06,4.24,-0.68,3.05,7.52,1100,1100,1100,1100,1049,1497,1509,12190,720
18034,0,1.21,1.15,-2.09,0.041,-0.019,0.978,0.00,0.00,0.10,0.72,-1.11,-0.44,0.01,0.07,4.28,-0.26,-7.36,9.52,1100,1100,1100,1100,1050,1496,1509,12190,740
18046,0,-0.09,-2.60,-1.48,0.053,0.012,0.959,0.00,0.00,0.13,0.65,0.22,3.25,0.01,0.07,4.33,0.53,14.01,8.02,1100,1100,1100,1100,1050,1496,1509,12203,740
18058,0,-1.48,5.70,-1.10,-0.006,0.004,1.018,0.00,0.00,0.14,0.68,1.61,-5.02,0.01,0.07,4.38,1.48,-28.86,7.12,1100,1100,1100,1100,1049,1496,1509,12211,740
18070,0,-3.86,-3.70,-1.71,-0.061,-0.010,1.040,0.00,0.00,0.18,0.76,4.04,4.45,0.02,0.07,4.43,3.81,23.42,8.71,1100,1100,1100,1100,1056,1496,1509,12223,740
18082,0,0.40,-2.07,-1.57,-0.010,-0.004,1.061,0.00,0.00,0.15,0.79,-0.25,2.86,0.02,0.07,4.49,-3.19,16.69,8.42,1100,1100,1100,1100,1056,1496,1509,12223,740
18094,0,-0.16,0.99,-2.22,0.019,0.015,1.001,0.00,0.00,0.19,0.89,0.35,-0.10,0.02,0.07,4.55,-4.59,-7.97,10.10,1100,1100,1100,1100,1049,1496,1509,12198,740
18106,0,-6.63,0.84,-2.24,-0.051,0.022,1.075,0.00,0.00,0.17,0.98,6.81,0.14,0.02,0.08,4.60,10.28,-9.98,10.21,1100,1100,1100,1100,1049,1497,1509,12223,740
18118,0,-4.46,1.07,-1.58,0.021,0.010,1.019,0.00,0.00,0.19,1.01,4.65,-0.06,0.03,0.08,4.64,5.00,-6.17,8.60,1100,1100,1100,1100,1049,1497,1509,12215,740
18130,0,-3.18,-4.19,-2.09,0.042,-0.024,0.959,0.00,0.00,0.26,1.13,3.44,5.32,0.03,0.10,4.70,-1.16,-0.92,9.93,1100,1100,1100,1100,1047,1497,1509,12190,720
18142,0,-7.52,-3.98,-1.51,0.070,0.006,0.987,0.00,0.00,0.35,1.08,7.87,5.06,0.04,0.10,4.75,7.86,12.94,8.51,1100,1100,1100,1100,1047,1497,1509,12207,720
18154,0,-0.93,2.20,-1.31,0.041,-0.025,1.013,0.00,0.00,0.45,1.11,1.37,-1.09,0.04,0.11,4.81,-4.28,-20.05,8.07,1100,1100,1100,1100,1049,1497,1509,12190,720
18166,0,-3.25,-0.99,-1.92,0.004,-0.059,0.968,0.00,0.00,0.54,1.11,3.79,2.11,0.05,0.11,4.87,-0.85,9.24,9.67,1100,1100,1100,1100,1049,1497,1509,12186,720
18178,0,1.82,-3.70,-2.40,0.022,0.019,1.050,0.00,0.00,0.51,1.15,-1.30,4.85,0.05,0.12,4.93,-5.79,9.20,10.93,1100,1100,1100,1100,1047,1497,1509,12207,720
18190,0,2.60,2.30,-2.24,0.033,-0.023,0.966,0.00,0.00,0.57,1.16,-2.03,-1.14,0.05,0.12,4.99,-8.21,-12.30,10.60,1100,1100,1100,1100,1036,1496,1509,12186,720
18202,0,-4.49,-0.12,-2.58,-0.006,-0.014,1.003,0.00,0.00,0.56,1.19,5.05,1.31,0.05,0.13,5.05,9.70,-0.18,11.51,1100,1100,1100,1100,1036,1496,1509,12194,720
18214,0,2.33,2.04,-1.36,-0.009,-0.062,1.052,0.00,0.00,0.55,1.18,-1.78,-0.85,0.05,0.13,5.11,-1.03,-1.77,8.52,1100,1100,1100,1100,1036,1496,1509,12207,720
18226,0,4.93,-6.60,-1.54,0.063,-0.059,0.919,0.00,0.00,0.55,1.25,-4.38,7.86,0.05,0.14,5.17,-8.58,16.06,9.01,1100,1100,1100,1100,1036,1497,1509,12182,718
18238,0,-1.42,0.50,-1.91,0.065,-0.003,0.977,0.00,0.00,0.50,1.15,1.92,0.65,0.05,0.14,5.22,9.16,0.69,10.00,1100,1100,1100,1100,1036,1497,1509,12211,718
18250,0,1.77,3.13,-1.44,0.066,-0.056,0.966,0.00,0.00,0.53,1.05,-1.24,-2.08,0.05,0.14,5.27,-1.21,-14.58,8.87,1100,1100,1100,1100,1039,1497,1509,12211,718
18262,0,2.00,2.12,-2.71,0.011,-0.044,0.955,0.00,0.00,0.50,1.06,-1.49,-1.06,0.05,0.15,5.33,-4.25,-11.07,12.10,1100,1100,1100,1100,1039,1497,1509,12223,718
18274,0,-1.29,-7.66,-1.56,0.037,0.036,0.987,0.00,0.00,0.46,1.03,1.75,8.69,0.05,0.15,5.37,4.03,39.57,9.26,1100,1100,1100,1100,1046,1497,1509,12232,718
18286,0,-0.06,8.54,-1.47,-0.013,0.011,1.073,0.00,0.00,0.45,1.06,0.51,-7.48,0.05,0.15,5.43,0.29,-38.51,9.11,1100,1100,1100,1100,1046,1497,1509,12228,718
18298,0,-4.80,-3.74,-1.99,0.006,-0.026,0.997,0.00,0.00,0.49,1.12,5.29,4.86,0.05,0.15,5.48,5.69,17.39,10.45,1100,1100,1100,1100,1048,1497,1509,12203,718
18310,0,0.76,1.92,-0.85,-0.009,0.016,1.119,0.00,0.00,0.44,1.08,-0.32,-0.85,0.05,0.15,5.53,-3.54,4.94,7.66,1100,1100,1100,1100,1046,1497,1509,12223,718
18322,0,0.62,3.45,-1.67,0.039,0.005,1.021,0.00,0.00,0.49,1.04,-0.13,-2.41,0.06,0.14,5.59,-5.97,-3.14,9.76,1100,1100,1100,1100,1046,1497,1509,12223,718
18334,0,-4.17,8.03,-1.77,-0.049,-0.013,1.057,0.00,0.00,0.50,1.04,4.67,-6.99,0.06,0.14,5.63,6.05,-26.34,10.06,1100,1100,1100,1100,1049,1497,1509,12219,718
18346,0,0.11,3.76,-1.09,-0.057,-0.042,1.095,0.00,0.00,0.51,1.00,0.40,-2.76,0.06,0.12,5.67,-0.95,8.41,8.39,1100,1100,1100,1100,1049,1497,1509,12223,718
18358,0,4.35,0.72,-1.26,-0.046,-0.043,1.030,0.00,0.00,0.51,1.11,-3.84,0.39,0.06,0.13,5.69,-9.60,4.03,8.84,1100,1100,1100,1100,1049,1497,1509,12232,718
18370,0,-3.30,-2.59,-0.58,-0.024,-0.005,1.042,0.00,0.00,0.50,1.18,3.80,3.78,0.06,0.13,5.70,10.44,17.85,7.14,1100,1100,1100,1100,1049,1497,1509,12244,718
18382,0,2.87,-1.43,0.04,0.027,-0.045,1.010,0.00,0.00,0.46,1.23,-2.42,2.67,0.06,0.13,5.71,-0.63,4.39,5.62,1100,1100,1100,1100,1049,1497,1509,12228,718
18394,0,1.69,-6.23,-0.10,0.063,-0.072,0.899,0.00,0.00,0.42,1.32,-1.27,7.55,0.05,0.15,5.73,-0.61,12.21,5.97,1100,1100,1100,1100,1043,1497,1509,12228,718
18406,0,5.83,-8.69,-0.33,0.131,0.010,0.953,0.00,0.00,0.32,1.26,-5.52,9.96,0.05,0.16,5.75,-6.10,20.97,6.58,1100,1100,1100,1100,1043,1497,1509,12223,718
18418,0,5.05,4.61,-2.29,0.125,-0.046,0.878,0.00,0.00,0.32,1.12,-4.73,-3.49,0.05,0.17,5.80,-5.84,-33.77,11.53,1100,1100,1100,1100,1043,1497,1509,12215,718
18430,0,-1.93,-6.61,-2.57,0.112,-0.043,0.857,0.00,0.00,0.32,1.07,2.25,7.68,0.05,0.19,5.84,9.17,9.00,12.26,1100,1100,1100,1100,1051,1497,1508,12228,720
18442,0,4.80,2.19,-1.67,0.063,-0.064,0.966,0.00,0.00,0.27,0.90,-4.52,-1.29,0.04,0.18,5.90,-1.67,-4.87,10.07,1100,1100,1100,1100,1051,1497,1508,12228,720
18454,0,5.01,-4.41,-1.82,0.124,-0.051,0.871,0.00,0.00,0.27,0.81,-4.75,5.22,0.04,0.20,5.96,-5.29,8.22,10.53,1100,1100,1100,1100,1051,1497,1508,12240,720
18466,0,3.90,0.68,-2.43,0.115,-0.036,0.923,0.00,0.00,0.20,0.64,-3.70,-0.04,0.03,0.19,6.03,0.64,2.34,12.10,1100,1100,1100,1100,1051,1497,1508,12253,720
18478,0,3.71,7.31,-1.82,0.073,-0.048,1.006,0.00,0.00,0.17,0.50,-3.54,-6.81,0.03,0.19,6.09,-1.63,-29.49,10.65,1100,1100,1100,1100,1045,1497,1509,12253,720
18490,0,0.75,-0.56,-1.95,0.065,-0.029,0.939,0.00,0.00,0.10,0.42,-0.65,0.97,0.02,0.19,6.15,3.90,6.23,11.01,1100,1100,1100,1100,1045,1497,1509,12257,720
18502,0,2.38,-2.21,-1.38,0.075,0.005,0.982,0.00,0.00,0.06,0.35,-2.32,2.56,0.02,0.19,6.19,-3.08,9.21,9.62,1100,1100,1100,1100,1045,1497,1509,12253,720
18514,0,-4.53,1.31,-2.10,0.076,-0.004,0.978,0.00,0.00,0.12,0.30,4.65,-1.00,0.03,0.20,6.24,7.56,-12.32,11.49,1100,1100,1100,1100,1045,1497,1509,12257,720
18526,0,-6.78,-7.84,-1.54,0.074,-0.041,0.929,0.00,0.00,0.24,0.32,7.02,8.16,0.03,0.21,6.28,8.97,23.39,10.14,1100,1100,1100,1100,1045,1497,1509,12244,719
18538,0,-2.15,-3.14,-0.10,0.045,-0.055,0.999,0.00,0.00,0.31,0.32,2.46,3.46,0.03,0.22,6.32,-0.44,1.02,6.57,1100,1100,1100,1100,1047,1497,1509,12257,719
18550,0,0.75,-12.14,-0.89,0.130,-0.013,0.890,0.00,0.00,0.42,0.38,-0.33,12.52,0.04,0.23,6.36,-7.39,28.70,8.59,1100,1100,1100,1100,1048,1497,1509,12261,719
18562,0,-2.08,0.01,-2.37,0.050,-0.020,0.966,0.00,0.00,0.46,0.41,2.54,0.39,0.04,0.24,6.40,1.31,-18.85,12.33,1100,1100,1100,1100,1048,1497,1509,12228,719
18574,0,-1.10,-6.00,-2.14,0.087,0.009,0.933,0.00,0.00,0.48,0.44,1.58,6.44,0.04,0.26,6.45,-0.17,2.60,11.80,1100,1100,1100,1100,1048,1497,1509,12223,719
18586,0,0.47,2.73,-1.84,0.043,-0.052,0.957,0.00,0.00,0.50,0.38,0.03,-2.34,0.05,0.26,6.50,-3.51,-15.58,11.11,1100,1100,1100,1100,1048,1497,1509,12223,719
18598,0,-3.79,2.98,-2.18,0.027,-0.001,1.067,0.00,0.00,0.53,0.26,4.31,-2.72,0.05,0.25,6.57,5.50,-3.06,12.01,1100,1100,1100,1100,1049,1497,1509,12215,719
18610,0,-0.86,8.28,-1.98,0.010,-0.038,1.028,0.00,0.00,0.55,0.14,1.42,-8.14,0.05,0.24,6.63,1.95,-18.23,11.58,1100,1100,1100,1100,1049,1497,1509,12228,719
18622,0,-1.88,5.90,-2.41,-0.011,-0.074,1.010,0.00,0.00,0.61,0.06,2.49,-5.85,0.05,0.22,6.71,2.06,2.39,12.73,1100,1100,1100,1100,1049,1497,1509,12215,719
18634,0,1.03,3.24,-1.77,-0.057,-0.012,1.125,0.00,0.00,0.56,0.08,-0.47,-3.15,0.05,0.22,6.77,0.09,0.38,11.18,1100,1100,1100,1100,1051,1497,1509,12228,718
18646,0,5.75,1.81,-1.31,0.018,-0.011,0.994,0.00,0.00,0.54,0.12,-5.21,-1.68,0.05,0.21,6.82,-9.91,3.41,10.10,1100,1100,1100,1100,1051,1497,1509,12240,718
18658,0,3.30,-4.38,-2.57,0.047,-0.000,0.987,0.00,0.00,0.46,0.22,-2.84,4.60,0.05,0.22,6.88,-3.57,7.10,13.30,1100,1100,1100,1100,1051,1497,1509,12240,718
18670,0,1.07,-5.88,-0.98,0.122,0.014,0.927,0.00,0.00,0.41,0.17,-0.66,6.05,0.04,0.23,6.91,2.47,17.17,9.35,1100,1100,1100,1100,1051,1497,1509,12257,718
18682,0,2.59,-2.35,-0.59,0.114,-0.030,0.914,0.00,0.00,0.36,0.16,-2.23,2.51,0.04,0.25,6.95,-1.96,-15.04,8.42,1100,1100,1100,1100,1051,1497,1509,12232,718
18694,0,-1.52,-8.74,-1.52,0.157,-0.040,0.895,0.00,0.00,0.34,-0.00,1.86,8.74,0.04,0.25,6.99,4.81,30.17,10.80,1100,1100,1100,1100,1045,1497,1509,12240,718
18706,0,3.81,3.93,-1.10,0.101,-0.017,0.971,0.00,0.00,0.28,-0.17,-3.53,-4.10,0.04,0.25,7.03,-4.81,-24.40,9.76,1100,1100,1100,1100,1045,1498,1509,12232,718
18718,0,1.46,1.05,-2.13,0.105,-0.014,0.902,0.00,0.00,0.28,-0.29,-1.17,-1.34,0.04,0.25,7.08,-1.97,-5.75,12.39,1100,1100,1100,1100,1045,1498,1508,12236,718
18730,0,-2.94,2.10,-1.01,0.060,0.009,0.985,0.00,0.00,0.24,-0.40,3.18,-2.49,0.04,0.25,7.10,8.10,-7.24,9.63,1100,1100,1100,1100,1047,1497,1508,12219,718
18742,0,-1.32,5.36,-0.73,0.061,-0.008,0.979,0.00,0.00,0.22,-0.51,1.54,-5.87,0.04,0.24,7.14,3.27,-14.35,8.96,1100,1100,1100,1100,1047,1497,1508,12207,718
18754,0,-0.83,-0.76,-2.20,0.025,-0.029,0.991,0.00,0.00,0.24,-0.52,1.07,0.23,0.04,0.24,7.18,-1.38,3.96,12.69,1100,1100,1100,1100,1047,1498,1508,12207,718
18766,0,-4.90,-1.65,-0.42,0.025,0.004,1.008,0.00,0.00,0.28,-0.58,5.18,1.08,0.05,0.23,7.21,6.79,19.63,8.25,1100,1100,1100,1100,1047,1497,1508,12215,718
18778,0,-0.37,-2.97,-1.00,0.044,-0.028,0.978,0.00,0.00,0.37,-0.44,0.74,2.53,0.05,0.24,7.26,-2.66,-1.38,9.76,1100,1100,1100,1100,1045,1497,1509,12207,718
18790,0,-4.77,-6.83,-1.49,0.075,-0.071,0.939,0.00,0.00,0.49,-0.39,5.26,6.43,0.05,0.25,7.29,2.94,18.79,11.03,1100,1100,1100,1100,1044,1497,1509,12215,718
18802,0,-0.93,-1.53,-2.19,0.037,-0.002,1.042,0.00,0.00,0.53,-0.33,1.46,1.21,0.06,0.27,7.35,-1.32,-17.58,12.81,1100,1100,1100,1100,1044,1497,1509,12211,718
18814,0,1.45,-4.47,-2.29,0.114,-0.046,0.866,0.00,0.00,0.65,-0.39,-0.80,4.07,0.06,0.26,7.41,-8.97,14.35,13.12,1100,1100,1100,1100,1044,1497,1509,12228,718
18826,0,-6.25,-1.16,-2.02,0.078,-0.006,0.959,0.00,0.00,0.74,-0.35,6.99,0.81,0.07,0.28,7.46,8.02,-14.34,12.51,1100,1100,1100,1100,1044,1497,1509,12223,720
18838,0,-2.30,-4.27,-1.72,0.074,-0.058,0.922,0.00,0.00,0.83,-0.38,3.13,3.88,0.07,0.28,7.53,2.47,4.45,11.83,1100,1100,1100,1100,1038,1497,1509,12207,720
18850,0,0.35,-4.36,-2.98,0.093,-0.086,0.892,0.00,0.00,0.90,-0.39,0.54,3.97,0.07,0.29,7.61,-5.23,4.62,15.06,1100,1100,1100,1100,1045,1497,1509,12223,720
18862,0,-1.20,-5.64,-1.94,0.115,0.009,0.925,0.00,0.00,0.90,-0.46,2.10,5.18,0.07,0.29,7.67,1.77,17.58,12.53,1100,1100,1100,1100,1045,1497,1509,12211,720
18874,0,2.12,6.46,-2.00,0.067,-0.033,0.958,0.00,0.00,0.93,-0.55,-1.19,-7.01,0.07,0.30,7.73,-2.82,-41.39,12.72,1100,1100,1100,1100,1045,1497,1509,12207,720
18886,0,-1.26,-3.21,-2.15,0.087,-0.055,0.891,0.00,0.00,0.94,-0.55,2.19,2.66,0.08,0.30,7.79,3.10,5.42,13.16,1100,1100,1100,1100,1045,1497,1509,12198,720
18898,0,3.38,3.41,-1.59,-0.011,-0.017,1.052,0.00,0.00,0.84,-0.63,-2.53,-4.03,0.07,0.30,7.84,-2.26,-8.09,11.82,1100,1100,1100,1100,1047,1497,1509,12182,720
18910,0,6.52,4.65,-2.18,0.063,-0.008,0.970,0.00,0.00,0.79,-0.74,-5.72,-5.39,0.07,0.29,7.91,-9.20,-5.81,13.36,1100,1100,1100,1100,1047,1497,1509,12186,720
18922,0,0.67,7.36,-2.00,-0.014,-0.023,1.044,0.00,0.00,0.76,-0.80,0.09,-8.16,0.07,0.27,7.96,2.77,-15.81,12.96,1100,1100,1100,1100,1047,1497,1509,12174,720
18934,0,2.08,7.33,-0.80,-0.084,-0.013,1.135,0.00,0.00,0.65,-0.89,-1.43,-8.22,0.07,0.25,8.01,1.27,2.52,10.01,1100,1100,1100,1100,1047,1497,1509,12157,720
18946,0,5.80,8.66,-2.37,-0.066,0.001,1.118,0.00,0.00,0.54,-0.91,-5.26,-9.57,0.06,0.22,8.08,-7.03,-2.07,14.00,1100,1100,1100,1100,1047,1497,1509,12174,720
18958,0,4.09,8.53,-2.08,-0.106,0.009,1.143,0.00,0.00,0.43,-0.85,-3.66,-9.38,0.06,0.21,8.12,-3.66,-11.88,13.33,1100,1100,1100,1100,1047,1497,1509,12182,720
18970,0,2.32,4.41,-1.78,-0.076,0.007,1.115,0.00,0.00,0.31,-0.83,-2.01,-5.24,0.06,0.19,8.18,2.49,10.45,12.62,1100,1100,1100,1100,1047,1497,1509,12198,720
18982,0,6.08,6.67,-1.53,-0.088,-0.028,1.118,0.00,0.00,0.19,-0.73,-5.89,-7.40,0.05,0.18,8.22,-5.75,-9.72,12.05,1100,1100,1100,1100,1047,1497,1509,12198,720
18994,0,1.08,-4.28,-0.94,-0.031,0.014,1.081,0.00,0.00,0.10,-0.63,-0.98,3.65,0.05,0.17,8.26,2.57,28.31,10.62,1100,1100,1100,1100,1047,1497,1509,12194,720
19006,0,0.01,0.73,-1.54,-0.005,-0.002,1.062,0.00,0.00,0.01,-0.56,0.00,-1.30,0.05,0.17,8.30,4.46,1.08,12.16,1100,1100,1100,1100,1047,1497,1509,12207,720
19018,0,-1.49,0.81,-0.84,0.023,-0.006,1.018,0.00,0.00,-0.03,-0.47,1.46,-1.28,0.05,0.17,8.33,2.10,-7.53,10.44,1100,1100,1100,1100,1046,1497,1509,12207,720
19030,0,-2.61,-0.86,-0.89,0.010,0.057,1.055,0.00,0.00,-0.10,-0.41,2.51,0.45,0.05,0.17,8.36,3.39,-3.63,10.58,1100,1100,1100,1100,1046,1497,1509,12190,720
19042,0,-0.69,3.82,-1.42,0.045,0.039,0.996,0.00,0.00,-0.12,-0.49,0.57,-4.31,0.05,0.16,8.40,-2.34,-8.02,11.94,1100,1100,1100,1100,1046,1497,1509,12186,720
19054,0,-2.40,4.63,-2.20,0.030,0.029,1.049,0.00,0.00,-0.10,-0.52,2.30,-5.15,0.06,0.16,8.44,-1.35,-12.65,13.95,1100,1100,1100,1100,1046,1498,1508,12215,720
19066,0,-3.29,8.12,-1.34,-0.020,0.005,1.066,0.00,0.00,-0.09,-0.61,3.20,-8.73,0.06,0.14,8.48,4.70,-11.85,11.83,1100,1100,1100,1100,1046,1498,1508,12223,720
19078,0,2.82,-2.66,-0.69,0.050,-0.027,1.008,0.00,0.00,-0.08,-0.61,-2.89,2.05,0.06,0.14,8.53,-8.48,16.81,10.27,1100,1100,1100,1100,1048,1498,1508,12207,720
19090,0,-1.06,-3.65,-2.20,0.050,-0.007,1.006,0.00,0.00,-0.07,-0.62,0.99,3.03,0.06,0.14,8.59,0.53,19.38,14.09,1100,1100,1100,1100,1044,1498,1509,12215,720
19102,0,1.99,1.47,-1.96,0.046,0.004,0.988,0.00,0.00,-0.13,-0.61,-2.11,-2.08,0.06,0.14,8.64,-2.42,-12.44,13.55,1100,1100,1100,1100,1044,1498,1509,12211,720
19114,0,0.67,4.04,-2.47,0.025,-0.031,1.008,0.00,0.00,-0.11,-0.62,-0.78,-4.66,0.06,0.13,8.71,-2.02,-14.40,14.88,1100,1100,1100,1100,1048,1497,1509,12186,720
19126,0,-0.19,2.16,-1.71,0.014,0.001,1.034,0.00,0.00,-0.17,-0.67,0.02,-2.83,0.06,0.13,8.75,2.19,-2.06,13.04,1100,1100,1100,1100,1048,1497,1509,12198,726
19138,0,3.79,9.18,-1.76,0.047,0.006,1.025,0.00,0.00,-0.25,-0.83,-4.04,-10.01,0.05,0.11,8.81,-3.72,-17.48,13.21,1100,1100,1100,1100,1047,1497,1509,12207,726
19150,0,1.36,4.88,-2.31,0.031,-0.029,1.008,0.00,0.00,-0.25,-0.90,-1.61,-5.78,0.05,0.10,8.87,-0.92,-7.18,14.65,1100,1100,1100,1100,1048,1497,1509,12215,726
19162,0,-1.15,6.09,-1.12,0.016,-0.009,1.043,0.00,0.00,-0.31,-1.01,0.85,-7.09,0.05,0.09,8.92,7.10,-8.69,11.72,1100,1100,1100,1100,1048,1497,1509,12215,726
19174,0,4.74,-4.53,-0.79,0.063,-0.050,1.008,0.00,0.00,-0.30,-0.98,-5.04,3.55,0.05,0.09,8.96,-7.55,20.54,10.94,1100,1100,1100,1100,1047,1497,1509,12215,726
19186,0,1.46,-2.92,-1.63,0.064,-0.012,0.962,0.00,0.00,-0.34,-1.00,-1.80,1.92,0.04,0.08,9.00,-1.42,13.79,13.07,1100,1100,1100,1100,1047,1497,1509,12190,726
19198,0,2.48,-0.19,-1.22,0.056,0.033,0.991,0.00,0.00,-0.37,-0.94,-2.85,-0.75,0.04,0.09,9.03,-2.45,-15.43,12.08,1100,1100,1100,1100,1044,1497,1509,12190,726
19210,0,-0.43,-2.12,-1.36,0.074,-0.039,0.934,0.00,0.00,-0.35,-0.93,0.07,1.19,0.04,0.09,9.07,0.26,-1.74,12.47,1100,1100,1100,1100,1044,1497,1509,12198,726
19222,0,-3.87,-1.16,-1.24,0.051,-0.000,0.967,0.00,0.00,-0.35,-0.92,3.52,0.23,0.04,0.10,9.10,7.10,-5.25,12.20,1100,1100,1100,1100,1044,1497,1509,12207,726
19234,0,-0.70,-5.36,-0.79,0.095,-0.050,0.952,0.00,0.00,-0.28,-0.95,0.42,4.41,0.05,0.11,9.13,-0.21,9.86,11.09,1100,1100,1100,1100,1047,1497,1508,12207,720
19246,0,-3.81,-13.12,-0.53,0.181,-0.053,0.833,0.00,0.00,-0.19,-0.97,3.62,12.15,0.05,0.12,9.15,3.88,29.53,10.49,1100,1100,1100,1100,1047,1497,1508,12198,720
19258,0,-2.68,1.39,-0.66,0.096,-0.023,0.936,0.00,0.00,-0.15,-1.05,2.53,-2.44,0.05,0.13,9.17,4.76,-22.19,10.82,1100,1100,1100,1100,1047,1497,1509,12190,720
19270,0,3.36,1.49,-0.32,0.082,-0.053,0.946,0.00,0.00,-0.10,-1.13,-3.45,-2.62,0.05,0.13,9.19,-8.33,-16.50,10.00,1100,1100,1100,1100,1060,1497,1509,12182,720
19282,0,1.13,-1.63,-1.04,0.091,-0.006,0.930,0.00,0.00,-0.11,-1.21,-1.24,0.42,0.05,0.13,9.22,-1.87,6.17,11.82,1100,1100,1100,1100,1060,1497,1509,12186,720
19294,0,1.45,3.01,-1.34,0.031,0.001,1.052,0.00,0.00,-0.13,-1.33,-1.58,-4.34,0.05,0.11,9.24,-0.55,-1.29,12.60,1100,1100,1100,1100,1042,1497,1509,12211,720
19306,0,0.27,4.16,-0.49,0.036,-0.020,1.040,0.00,0.00,-0.14,-1.40,-0.41,-5.56,0.04,0.10,9.26,0.91,-3.38,10.49,1100,1100,1100,1100,1042,1497,1509,12186,720
19318,0,0.46,-3.25,0.08,0.032,-0.023,0.987,0.00,0.00,-0.16,-1.34,-0.62,1.91,0.04,0.10,9.27,1.32,8.95,9.07,1100,1100,1100,1100,1045,1497,1509,12198,720
19330,0,3.12,0.07,0.45,0.060,-0.032,1.024,0.00,0.00,-0.18,-1.37,-3.30,-1.43,0.04,0.10,9.28,-5.51,1.75,8.16,1100,1100,1100,1100,1045,1497,1509,12211,720
19342,0,2.02,-3.30,-0.89,0.085,-0.007,0.971,0.00,0.00,-0.17,-1.31,-2.20,1.99,0.04,0.11,9.30,-4.37,0.27,11.53,1100,1100,1100,1100,1045,1497,1509,12228,720
19354,0,-2.01,-0.26,-1.13,0.071,-0.007,0.960,0.00,0.00,-0.15,-1.39,1.85,-1.13,0.04,0.10,9.31,4.46,-0.57,12.13,1100,1100,1100,1100,1045,1497,1509,12223,720
19366,0,-4.24,3.79,-0.68,0.061,-0.028,1.001,0.00,0.00,-0.10,-1.43,4.14,-5.22,0.04,0.10,9.32,7.49,-21.48,11.03,1100,1100,1100,1100,1045,1497,1509,12215,720
19378,0,-2.35,-4.05,-0.29,0.031,-0.064,0.960,0.00,0.00,-0.04,-1.41,2.32,2.64,0.05,0.10,9.34,1.83,13.80,10.06,1100,1100,1100,1100,1046,1497,1509,12219,720
19390,0,-2.23,-7.99,0.20,0.075,-0.024,0.976,0.00,0.00,0.01,-1.42,2.23,6.57,0.05,0.10,9.34,1.33,31.07,8.83,1100,1100,1100,1100,1045,1497,1509,12219,720
19402,0,1.34,5.54,-0.29,0.048,-0.002,0.974,0.00,0.00,0.01,-1.43,-1.33,-6.97,0.05,0.09,9.36,-3.26,-26.74,10.08,1100,1100,1100,1100,1045,1497,1509,12219,720
19414,0,-1.44,-0.38,-0.80,0.045,-0.027,0.957,0.00,0.00,0.07,-1.39,1.50,-1.02,0.05,0.10,9.37,-0.32,-9.09,11.37,1100,1100,1100,1100,1043,1497,1508,12207,720
19426,0,-1.73,0.13,-0.76,0.054,-0.003,1.007,0.00,0.00,0.06,-1.45,1.79,-1.58,0.05,0.09,9.39,3.82,1.31,11.30,1100,1100,1100,1100,1043,1496,1508,12207,720
19438,0,3.79,-2.06,-0.54,0.074,-0.023,0.927,0.00,0.00,0.07,-1.46,-3.71,0.60,0.05,0.09,9.41,-9.41,7.19,10.76,1100,1100,1100,1100,1043,1496,1509,12174,720
19450,0,-3.12,-0.37,-1.13,0.045,0.005,1.003,0.00,0.00,0.07,-1.47,3.18,-1.10,0.05,0.09,9.43,5.36,-3.64,12.25,1100,1100,1100,1100,1043,1497,1509,12161,720
19462,0,0.94,0.02,0.16,0.070,-0.010,0.975,0.00,0.00,0.04,-1.52,-0.90,-1.54,0.05,0.09,9.43,0.18,-0.94,9.02,1100,1100,1100,1100,1043,1497,1509,12144,720
19474,0,0.88,-5.17,-0.41,0.099,-0.064,0.887,0.00,0.00,0.08,-1.51,-0.80,3.66,0.05,0.09,9.46,-3.71,13.39,10.48,1100,1100,1100,1100,1043,1497,1509,12136,720
19486,0,-0.44,-0.96,-1.60,0.060,-0.003,0.994,0.00,0.00,0.04,-1.57,0.48,-0.61,0.05,0.09,9.49,3.24,-0.10,13.48,1100,1100,1100,1100,1043,1497,1509,12140,720
19498,0,5.36,5.26,-1.00,0.057,-0.017,0.955,0.00,0.00,0.02,-1.64,-5.34,-6.90,0.05,0.08,9.52,-8.92,-27.10,12.02,1100,1100,1100,1100,1043,1497,1509,12136,720
19510,0,-2.58,0.38,-1.76,0.062,-0.023,0.922,0.00,0.00,0.01,-1.70,2.59,-2.09,0.05,0.07,9.56,7.53,7.44,13.97,1100,1100,1100,1100,1043,1497,1509,12140,720
19522,0,0.81,2.95,-0.73,-0.016,-0.013,1.077,0.00,0.00,-0.04,-1.70,-0.85,-4.65,0.04,0.07,9.58,2.02,-10.51,11.41,1100,1100,1100,1100,1043,1497,1509,12140,720
19534,0,3.05,-2.82,-0.56,0.025,-0.009,0.983,0.00,0.00,-0.08,-1.68,-3.13,1.14,0.04,0.06,9.63,-5.24,17.52,11.02,1100,1100,1100,1100,1045,1497,1509,12153,720
19546,0,0.72,3.94,-2.07,0.016,0.033,1.008,0.00,0.00,-0.16,-1.70,-0.87,-5.65,0.04,0.04,9.67,0.50,-2.33,14.85,1100,1100,1100,1100,1045,1497,1509,12174,720
19558,0,-0.31,2.67,-0.57,-0.023,-0.031,1.050,0.00,0.00,-0.14,-1.61,0.17,-4.28,0.04,0.04,9.70,0.56,-13.83,11.12,1100,1100,1100,1100,1045,1497,1509,12194,720
19570,0,0.16,-0.01,-1.73,-0.002,-0.023,0.988,0.00,0.00,-0.12,-1.52,-0.27,-1.51,0.04,0.04,9.74,-2.49,-1.83,14.05,1100,1100,1100,1100,1045,1497,1509,12178,720
19582,0,-1.47,2.01,-1.25,-0.024,-0.012,1.040,0.00,0.00,-0.10,-1.46,1.38,-3.47,0.04,0.03,9.76,2.21,-1.72,12.89,1100,1100,1100,1100,1045,1497,1509,12178,720
19594,0,-2.70,-3.22,-0.09,-0.001,-0.020,1.024,0.00,0.00,-0.05,-1.32,2.66,1.90,0.05,0.04,9.78,3.17,4.74,10.01,1100,1100,1100,1100,1051,1497,1508,12178,720
19606,0,-1.10,-9.06,-0.91,0.053,-0.041,0.929,0.00,0.00,-0.04,-1.20,1.06,7.86,0.05,0.05,9.80,0.49,24.31,12.07,1100,1100,1100,1100,1051,1497,1508,12207,720
19618,0,0.09,-5.71,-0.00,0.047,-0.003,0.986,0.00,0.00,-0.05,-1.10,-0.14,4.60,0.05,0.05,9.81,-1.29,6.16,9.82,1100,1100,1100,1100,1044,1497,1508,12174,720
19630,0,-0.28,6.59,-0.78,0.008,0.010,1.003,0.00,0.00,-0.08,-1.09,0.21,-7.68,0.05,0.05,9.84,0.70,-30.35,11.78,1100,1100,1100,1100,1045,1497,1509,12178,719
19642,0,-2.30,1.96,-0.83,0.006,-0.006,0.981,0.00,0.00,-0.07,-1.07,2.23,-3.03,0.05,0.04,9.85,3.47,-7.23,11.93,1100,1100,1100,1100,1045,1497,1509,12169,719
19654,0,0.02,2.01,-0.52,-0.020,-0.010,1.062,0.00,0.00,-0.11,-1.10,-0.13,-3.11,0.05,0.03,9.87,0.12,7.53,11.17,1100,1100,1100,1100,1044,1497,1509,12178,719
19666,0,2.62,1.21,-0.22,0.001,0.006,1.014,0.00,0.00,-0.13,-1.05,-2.74,-2.25,0.05,0.03,9.88,-5.57,0.55,10.44,1100,1100,1100,1100,1044,1497,1509,12182,719
19678,0,-0.43,0.17,0.07,0.003,0.029,1.025,0.00,0.00,-0.19,-1.08,0.24,-1.25,0.05,0.01,9.88,1.77,15.60,9.70,1100,1100,1100,1100,1045,1497,1509,12174,719
19690,0,1.32,7.24,0.17,-0.007,0.002,1.044,0.00,0.00,-0.27,-1.12,-1.59,-8.37,0.04,-0.01,9.88,0.14,-14.39,9.46,1100,1100,1100,1100,1042,1497,1509,12186,719
19702,0,4.78,10.93,-0.07,-0.059,-0.026,1.060,0.00,0.00,-0.34,-1.15,-5.13,-12.08,0.04,-0.02,9.90,-8.45,-21.44,10.08,1100,1100,1100,1100,1042,1497,1509,12198,719
19714,0,0.92,2.22,-0.65,-0.085,-0.003,1.115,0.00,0.00,-0.38,-1.08,-1.30,-3.30,0.04,-0.04,9.90,-0.09,8.55,11.52,1100,1100,1100,1100,1044,1497,1509,12207,719
19726,0,-0.74,1.88,-0.05,-0.063,-0.014,1.077,0.00,0.00,-0.40,-1.04,0.34,-2.92,0.04,-0.05,9.91,4.53,12.41,10.03,1100,1100,1100,1100,1044,1497,1509,12190,719
19738,0,-2.91,0.64,-0.54,-0.061,-0.039,1.057,0.00,0.00,-0.37,-0.82,2.54,-1.46,0.04,-0.05,9.91,7.51,-4.90,11.26,1100,1100,1100,1100,1042,1497,1509,12169,719
19750,0,0.13,-3.98,0.64,-0.052,-0.051,1.064,0.00,0.00,-0.38,-0.62,-0.51,3.36,0.04,-0.05,9.90,1.22,10.19,8.29,1100,1100,1100,1100,1040,1497,1509,12169,719
19762,0,3.52,-9.06,1.68,0.075,-0.032,0.940,0.00,0.00,-0.36,-0.45,-3.88,8.61,0.04,-0.03,9.89,-7.44,18.23,5.69,1100,1100,1100,1100,1040,1497,1509,12174,719
19774,0,1.02,-3.67,-0.24,0.083,-0.005,0.961,0.00,0.00,-0.35,-0.36,-1.37,3.31,0.04,-0.02,9.88,-2.14,-9.17,10.47,1100,1100,1100,1100,1040,1497,1509,12182,719
19786,0,-2.01,-7.93,0.79,0.133,-0.012,0.909,0.00,0.00,-0.29,-0.38,1.73,7.56,0.04,0.00,9.86,3.29,2.17,7.88,1100,1100,1100,1100,1040,1497,1509,12190,719
19798,0,-2.84,-2.07,-0.40,0.133,-0.047,0.898,0.00,0.00,-0.20,-0.48,2.64,1.59,0.04,0.00,9.86,2.67,-2.82,10.87,1100,1100,1100,1100,1034,1497,1509,12190,719
19810,0,-1.91,-6.32,-0.62,0.115,-0.037,0.934,0.00,0.00,-0.14,-0.54,1.77,5.79,0.04,0.02,9.85,0.72,7.08,11.41,1100,1100,1100,1100,1041,1497,1509,12169,719
19822,0,-2.02,-3.38,1.33,0.146,-0.024,0.895,0.00,0.00,-0.04,-0.67,1.98,2.71,0.04,0.02,9.85,0.01,1.12,6.51,1100,1100,1100,1100,1041,1497,1509,12174,719
19834,0,-3.74,-6.79,-0.70,0.157,-0.053,0.868,0.00,0.00,0.05,-0.73,3.79,6.06,0.05,0.04,9.86,3.76,4.85,11.62,1100,1100,1100,1100,1041,1497,1509,12174,720
19846,0,-4.17,0.43,-0.23,0.125,-0.040,0.932,0.00,0.00,0.13,-0.93,4.30,-1.35,0.05,0.03,9.86,4.46,-6.96,10.44,1100,1100,1100,1100,1041,1497,1509,12169,720
19858,0,-0.86,0.52,-0.63,0.110,-0.027,0.921,0.00,0.00,0.19,-1.05,1.05,-1.58,0.05,0.04,9.88,-1.36,-12.46,11.45,1100,1100,1100,1100,1043,1497,1509,12157,720
19870,0,-3.86,-3.64,-0.75,0.110,-0.022,0.928,0.00,0.00,0.27,-1.16,4.13,2.47,0.06,0.04,9.88,3.04,15.25,11.76,1100,1100,1100,1100,1044,1497,1509,12161,720
19882,0,-1.64,5.39,0.15,0.018,0.008,1.036,0.00,0.00,0.28,-1.23,1.91,-6.63,0.06,0.03,9.89,0.89,-20.35,9.52,1100,1100,1100,1100,1044,1497,1509,12153,720
19894,0,3.14,2.27,-0.77,0.024,-0.026,0.978,0.00,0.00,0.33,-1.24,-2.81,-3.51,0.06,0.02,9.92,-10.94,-5.16,11.85,1100,1100,1100,1100,1044,1497,1509,12149,720
19906,0,-2.30,-8.04,-0.25,0.041,-0.025,0.985,0.00,0.00,0.35,-1.16,2.65,6.88,0.06,0.03,9.93,3.08,30.56,10.55,1100,1100,1100,1100,1044,1497,1509,12153,720
19918,0,1.65,-0.71,-0.22,0.054,-0.016,1.010,0.00,0.00,0.35,-1.17,-1.29,-0.46,0.06,0.02,9.95,-1.55,1.97,10.50,1100,1100,1100,1100,1042,1497,1509,12178,720
19930,0,-0.31,-1.84,-1.05,0.075,-0.068,0.922,0.00,0.00,0.42,-1.09,0.73,0.75,0.06,0.03,9.96,-0.47,-11.48,12.59,1100,1100,1100,1100,1041,1497,1509,12203,720
19942,0,-0.64,-1.48,-0.39,0.065,-0.017,0.991,0.00,0.00,0.35,-1.15,0.99,0.34,0.06,0.03,9.97,4.46,0.78,10.94,1100,1100,1100,1100,1041,1497,1509,12190,720
19954,0,4.87,2.64,0.18,0.122,0.012,0.910,0.00,0.00,0.30,-1.25,-4.57,-3.90,0.06,0.03,9.97,-7.34,-18.29,9.53,1100,1100,1100,1100,1036,1497,1509,12190,720
19966,0,-3.50,-2.62,-0.08,0.095,0.004,0.909,0.00,0.00,0.26,-1.28,3.75,1.34,0.06,0.04,9.98,8.19,1.83,10.18,1100,1100,1100,1100,1036,1497,1509,12190,720
19978,0,-0.23,-5.63,-0.33,0.081,0.030,0.974,0.00,0.00,0.16,-1.38,0.39,4.26,0.06,0.03,9.99,3.03,22.52,10.82,1100,1100,1100,1100,1041,1497,1509,12207,720
19990,0,3.61,-3.16,-0.40,0.110,0.002,0.856,0.00,0.00,0.13,-1.38,-3.48,1.78,0.06,0.04,10.01,-8.40,-2.95,11.02,1100,1100,1100,1100,1036,1497,1509,12207,720
20002,0,0.19,-6.49,-1.22,0.106,0.017,0.900,0.00,0.00,0.07,-1.39,-0.12,5.10,0.06,0.05,10.03,0.16,12.28,13.07,1100,1100,1100,1100,1036,1497,1509,12219,720
20014,0,0.73,-4.74,-0.34,0.152,0.001,0.870,0.00,0.00,0.04,-1.48,-0.69,3.26,0.06,0.06,10.04,-0.20,0.99,10.89,1100,1100,1100,1100,1041,1497,1509,12219,720
20026,0,1.13,-3.81,-0.06,0.199,-0.020,0.811,0.00,0.00,-0.01,-1.65,-1.14,2.16,0.06,0.07,10.05,-1.21,-4.51,10.20,1100,1100,1100,1100,1041,1497,1509,12219,719
20038,0,-1.17,-5.38,-0.32,0.181,-0.004,0.886,0.00,0.00,-0.06,-1.91,1.11,3.47,0.06,0.07,10.05,4.00,7.03,10.84,1100,1100,1100,1100,1041,1497,1509,12236,719
20050,0,1.94,5.88,0.47,0.143,-0.006,0.891,0.00,0.00,-0.12,-2.23,-2.06,-8.11,0.05,0.05,10.06,-1.18,-16.72,8.89,1100,1100,1100,1100,1042,1497,1509,12203,719
20062,0,0.66,4.32,-0.81,0.084,-0.010,0.942,0.00,0.00,-0.15,-2.36,-0.81,-6.68,0.05,0.04,10.07,0.48,-13.19,12.09,1100,1100,1100,1100,1042,1497,1509,12211,719
20074,0,0.96,-2.41,0.21,0.091,-0.004,0.925,0.00,0.00,-0.22,-2.49,-1.18,-0.08,0.05,0.04,10.05,1.62,15.71,9.52,1100,1100,1100,1100,1043,1497,1509,12223,719
20086,0,4.02,3.59,0.77,0.079,0.011,0.961,0.00,0.00,-0.31,-2.55,-4.33,-6.14,0.05,0.03,10.05,-4.72,-19.55,8.13,1100,1100,1100,1100,1043,1497,1509,12228,719
20098,0,1.64,-4.90,0.17,0.121,0.011,0.928,0.00,0.00,-0.39,-2.65,-2.03,2.25,0.04,0.03,10.03,-0.15,20.91,9.60,1100,1100,1100,1100,1042,1497,1508,12219,719
20110,0,1.46,3.74,1.09,0.081,-0.009,0.943,0.00,0.00,-0.46,-2.79,-1.92,-6.53,0.04,0.02,10.01,1.14,-13.88,7.28,1100,1100,1100,1100,1042,1497,1508,12228,719
20122,0,4.82,1.65,-0.27,0.086,-0.021,0.948,0.00,0.00,-0.51,-2.87,-5.32,-4.52,0.04,0.01,10.02,-7.03,-3.13,10.70,1100,1100,1100,1100,1042,1497,1508,12219,719
20134,0,2.60,-1.01,0.17,0.064,-0.002,0.985,0.00,0.00,-0.58,-2.89,-3.18,-1.89,0.03,0.00,10.00,-1.36,1.55,9.58,1100,1100,1100,1100,1042,1497,1508,12215,735
20146,0,1.31,1.65,0.34,0.063,0.025,0.978,0.00,0.00,-0.64,-2.95,-1.96,-4.61,0.03,-0.01,10.00,1.25,-5.39,9.14,1100,1100,1100,1100,1042,1496,1508,12207,735
20158,0,-1.42,3.49,-0.96,0.020,-0.027,1.011,0.00,0.00,-0.67,-2.95,0.75,-6.44,0.03,-0.02,10.00,4.63,-11.60,12.39,1100,1100,1100,1100,1046,1496,1509,12228,735
20170,0,-2.97,-3.05,0.78,0.024,0.005,1.011,0.00,0.00,-0.70,-2.94,2.27,0.11,0.03,-0.03,10.00,5.70,16.49,8.05,1100,1100,1100,1100,1046,1497,1509,12228,735
20182,0,-0.97,2.64,-0.44,0.010,0.011,1.024,0.00,0.00,-0.72,-2.94,0.24,-5.58,0.03,-0.04,10.02,0.09,-1.79,11.13,1100,1100,1100,1100,1046,1497,1509,12223,735
20194,0,-1.97,1.13,-0.78,0.018,0.012,1.024,0.00,0.00,-0.70,-2.86,1.27,-3.99,0.03,-0.04,10.02,-0.87,-10.62,11.97,1100,1100,1100,1100,1041,1497,1509,12223,735
20206,0,-7.39,2.82,-0.58,-0.008,0.009,1.065,0.00,0.00,-0.64,-2.85,6.75,-5.67,0.04,-0.06,10.04,10.48,-2.54,11.49,1100,1100,1100,1100,1041,1497,1509,12211,735
20218,0,-1.69,-1.50,-0.56,0.011,-0.049,1.002,0.00,0.00,-0.54,-2.74,1.14,-1.25,0.04,-0.06,10.06,-2.50,1.82,11.46,1100,1100,1100,1100,1034,1497,1509,12203,735
20230,0,-2.80,-4.71,-0.22,0.017,-0.045,1.048,0.00,0.00,-0.44,-2.61,2.36,2.10,0.04,-0.06,10.07,-0.97,10.94,10.62,1100,1100,1100,1100,1034,1497,1509,12186,720
20242,0,-0.96,-2.25,-0.43,0.054,0.000,1.036,0.00,0.00,-0.39,-2.62,0.57,-0.37,0.04,-0.07,10.09,-1.03,5.76,11.16,1100,1100,1100,1100,1034,1497,1509,12198,720
20254,0,0.64,2.26,-0.89,0.055,-0.035,0.963,0.00,0.00,-0.30,-2.57,-0.94,-4.83,0.05,-0.07,10.11,-5.44,-15.11,12.34,1100,1100,1100,1100,1041,1497,1509,12182,720
20266,0,1.63,-8.92,-0.97,0.067,-0.025,0.987,0.00,0.00,-0.32,-2.47,-1.95,6.44,0.05,-0.07,10.14,-4.25,25.05,12.58,1100,1100,1100,1100,1041,1497,1509,12203,720
20278,0,2.39,-0.70,-1.19,0.086,-0.014,0.986,0.00,0.00,-0.32,-2.50,-2.71,-1.79,0.04,-0.07,10.18,-2.89,-7.25,13.15,1100,1100,1100,1100,1041,1497,1509,12165,720
20290,0,3.21,4.13,-1.40,0.101,-0.036,0.946,0.00,0.00,-0.32,-2.59,-3.52,-6.72,0.04,-0.07,10.21,-4.49,-22.53,13.71,1100,1100,1100,1100,1041,1497,1509,12153,720
20302,0,-1.38,-0.29,-1.20,0.050,-0.022,0.993,0.00,0.00,-0.31,-2.68,1.06,-2.38,0.04,-0.09,10.24,5.08,6.66,13.24,1100,1100,1100,1100,1041,1497,1509,12161,720
20314,0,0.81,3.89,-0.32,0.010,-0.048,1.001,0.00,0.00,-0.33,-2.74,-1.14,-6.62,0.04,-0.10,10.26,1.52,-8.23,11.05,1100,1100,1100,1100,1044,1497,1509,12153,720
20326,0,1.27,3.31,-1.20,-0.014,-0.036,1.021,0.00,0.00,-0.32,-2.67,-1.59,-5.98,0.04,-0.11,10.29,-2.77,-6.07,13.29,1100,1100,1100,1100,1044,1497,1509,12169,720
20338,0,-1.80,1.45,-0.19,-0.063,-0.003,1.060,0.00,0.00,-0.33,-2.59,1.47,-4.04,0.04,-0.12,10.29,4.94,2.75,10.78,1100,1100,1100,1100,1044,1497,1509,12169,720
20350,0,0.95,2.58,0.37,-0.029,-0.024,1.054,0.00,0.00,-0.31,-2.49,-1.26,-5.07,0.04,-0.13,10.30,-1.74,-4.86,9.37,1100,1100,1100,1100,1040,1497,1509,12149,720
20362,0,-0.64,-0.87,-0.07,-0.036,-0.040,1.053,0.00,0.00,-0.30,-2.32,0.33,-1.45,0.04,-0.14,10.29,0.81,0.10,10.46,1100,1100,1100,1100,1040,1497,1509,12153,720
20374,0,0.67,-5.07,0.77,0.009,0.011,1.012,0.00,0.00,-0.33,-2.21,-0.99,2.87,0.03,-0.14,10.28,-0.23,15.71,8.34,1100,1100,1100,1100,1040,1497,1509,12174,720
20386,0,1.24,3.51,-0.56,-0.001,-0.021,1.040,0.00,0.00,-0.34,-2.16,-1.58,-5.67,0.03,-0.14,10.29,-1.19,-14.22,11.70,1100,1100,1100,1100,1040,1497,1509,12153,720
20398,0,-0.64,-1.93,0.09,0.007,-0.025,1.006,0.00,0.00,-0.32,-2.09,0.32,-0.16,0.03,-0.15,10.28,0.87,10.37,10.06,1100,1100,1100,1100,1042,1497,1509,12153,720
20410,0,3.16,3.25,0.43,-0.037,-0.060,1.042,0.00,0.00,-0.34,-2.04,-3.50,-5.29,0.03,-0.16,10.28,-3.43,-5.30,9.21,1100,1100,1100,1100,1052,1497,1509,12169,720
20422,0,7.54,-3.85,0.02,0.054,-0.026,0.999,0.00,0.00,-0.38,-1.93,-7.92,1.93,0.03,-0.16,10.28,-12.78,8.16,10.22,1100,1100,1100,1100,1052,1497,1509,12169,720
20434,0,2.40,2.51,-0.24,0.061,0.007,0.990,0.00,0.00,-0.47,-1.99,-2.87,-4.50,0.02,-0.17,10.28,2.29,-8.51,10.88,1100,1100,1100,1100,1042,1497,1509,12165,718
20446,0,3.57,9.66,-0.68,0.021,-0.017,1.051,0.00,0.00,-0.56,-2.12,-4.13,-11.78,0.02,-0.19,10.29,-0.06,-28.49,11.99,1100,1100,1100,1100,1042,1496,1509,12157,718
20458,0,1.54,6.57,-0.12,-0.003,-0.029,1.040,0.00,0.00,-0.65,-2.20,-2.19,-8.77,0.01,-0.21,10.29,1.32,-5.68,10.59,1100,1100,1100,1100,1042,1496,1509,12153,718
20470,0,-0.25,-1.14,-0.06,-0.003,0.004,1.017,0.00,0.00,-0.71,-2.16,-0.46,-1.02,0.01,-0.22,10.29,4.10,13.14,10.44,1100,1100,1100,1100,1042,1496,1509,12161,718
20482,0,-0.36,-6.12,0.91,0.061,-0.007,0.951,0.00,0.00,-0.72,-2.05,-0.36,4.07,0.01,-0.21,10.27,1.08,14.03,7.99,1100,1100,1100,1100,1042,1496,1509,12153,718
20494,0,-3.97,-3.46,0.71,0.036,0.010,0.968,0.00,0.00,-0.69,-1.93,3.28,1.54,0.01,-0.20,10.27,4.20,-3.09,8.50,1100,1100,1100,1100,1043,1497,1509,12144,718
20506,0,-3.21,-1.62,-0.28,0.018,0.009,1.010,0.00,0.00,-0.64,-1.86,2.57,-0.24,0.01,-0.20,10.27,2.34,-4.02,10.96,1100,1100,1100,1100,1043,1497,1509,12153,718
20518,0,-0.45,-0.66,-0.22,0.038,-0.041,0.985,0.00,0.00,-0.53,-1.76,-0.07,-1.10,0.02,-0.20,10.27,-5.47,-10.17,10.82,1100,1100,1100,1100,1048,1497,1509,12198,718
20530,0,-3.57,-7.16,-1.30,0.060,-0.030,0.961,0.00,0.00,-0.42,-1.66,3.15,5.50,0.02,-0.19,10.29,1.39,14.13,13.55,1100,1100,1100,1100,1043,1497,1509,12207,719
20542,0,0.23,-3.31,-0.43,0.097,-0.020,0.958,0.00,0.00,-0.38,-1.68,-0.61,1.63,0.02,-0.19,10.30,-1.96,0.14,11.37,1100,1100,1100,1100,1043,1497,1509,12219,719
20554,0,0.88,4.02,-0.75,0.093,-0.036,0.945,0.00,0.00,-0.33,-1.75,-1.21,-5.78,0.02,-0.19,10.34,-4.21,-25.50,12.21,1100,1100,1100,1100,1040,1497,1509,12207,719
20566,0,0.82,-2.18,-1.46,0.081,-0.000,0.981,0.00,0.00,-0.38,-1.88,-1.20,0.30,0.02,-0.20,10.37,-0.56,12.77,14.01,1100,1100,1100,1100,1040,1497,1509,12194,719
20578,0,4.52,8.76,0.17,0.056,-0.001,1.024,0.00,0.00,-0.44,-2.07,-4.96,-10.83,0.02,-0.22,10.39,-6.22,-18.66,9.95,1100,1100,1100,1100,1040,1497,1509,12169,719
20590,0,0.72,0.67,-1.10,0.083,-0.007,0.947,0.00,0.00,-0.49,-2.12,-1.21,-2.79,0.01,-0.23,10.41,1.91,2.41,13.16,1100,1100,1100,1100,1040,1497,1509,12190,719
20602,0,1.40,12.22,-0.81,-0.038,-0.016,1.076,0.00,0.00,-0.58,-2.23,-1.98,-14.45,0.01,-0.25,10.41,1.96,-33.65,12.44,1100,1100,1100,1100,1040,1497,1509,12190,719
20614,0,2.39,2.66,0.14,-0.014,-0.013,1.056,0.00,0.00,-0.67,-2.29,-3.06,-4.95,0.01,-0.27,10.43,-1.46,12.26,10.08,1100,1100,1100,1100,1040,1497,1509,12186,719
20626,0,-0.00,1.10,-0.50,-0.025,-0.001,1.030,0.00,0.00,-0.71,-2.19,-0.70,-3.29,0.00,-0.28,10.44,2.33,4.70,11.70,1100,1100,1100,1100,1040,1497,1509,12190,720
20638,0,-0.51,-6.13,0.56,0.018,-0.001,0.987,0.00,0.00,-0.73,-2.04,-0.21,4.09,0.00,-0.27,10.44,2.52,16.23,9.03,1100,1100,1100,1100,1040,1497,1509,12165,720
20650,0,-0.98,-0.89,-0.82,0.018,-0.012,1.004,0.00,0.00,-0.71,-1.92,0.27,-1.03,0.00,-0.27,10.45,1.00,-8.19,12.50,1100,1100,1100,1100,1040,1497,1509,12186,720
20662,0,-0.50,-5.86,-0.35,0.059,0.004,0.957,0.00,0.00,-0.71,-1.82,-0.21,4.04,0.00,-0.27,10.45,-1.41,8.96,11.32,1100,1100,1100,1100,1040,1497,1509,12186,720
20674,0,-2.39,0.14,0.27,0.019,0.014,1.024,0.00,0.00,-0.68,-1.76,1.71,-1.90,0.01,-0.26,10.46,1.13,-14.10,9.80,1100,1100,1100,1100,1040,1497,1509,12198,720
20686,0,-0.52,-0.65,-0.70,0.008,-0.016,0.987,0.00,0.00,-0.63,-1.70,-0.11,-1.05,0.01,-0.27,10.48,-4.21,1.73,12.23,1100,1100,1100,1100,1040,1497,1509,12211,720
20698,0,-2.99,0.71,-0.71,-0.067,-0.023,1.096,0.00,0.00,-0.56,-1.58,2.43,-2.29,0.01,-0.28,10.50,0.29,0.87,12.27,1100,1100,1100,1100,1034,1497,1509,12215,720
20710,0,-1.58,0.78,-0.29,-0.053,0.003,1.056,0.00,0.00,-0.54,-1.45,1.04,-2.23,0.01,-0.28,10.51,0.69,-0.54,11.24,1100,1100,1100,1100,1034,1497,1509,12211,720
20722,0,-1.09,-1.35,-0.29,-0.035,-0.061,0.992,0.00,0.00,-0.45,-1.22,0.64,0.13,0.01,-0.28,10.51,-1.97,-5.66,11.23,1100,1100,1100,1100,1034,1497,1509,12207,720
20734,0,-3.49,-2.82,-0.23,-0.045,-0.020,1.100,0.00,0.00,-0.40,-1.07,3.09,1.75,0.02,-0.28,10.52,2.84,7.06,11.08,1100,1100,1100,1100,1036,1497,1509,12190,728
20746,0,-1.78,0.18,0.13,-0.008,-0.037,0.996,0.00,0.00,-0.34,-0.99,1.44,-1.17,0.02,-0.28,10.52,2.07,-0.29,10.20,1100,1100,1100,1100,1036,1496,1509,12182,728
20758,0,-3.94,-6.45,-0.00,0.044,-0.088,0.952,0.00,0.00,-0.18,-0.83,3.75,5.62,0.02,-0.27,10.53,2.90,9.92,10.54,1100,1100,1100,1100,1037,1496,1509,12161,728
20770,0,-0.43,0.45,-0.39,0.032,-0.028,1.050,0.00,0.00,-0.17,-0.80,0.26,-1.25,0.02,-0.27,10.52,0.11,-14.47,11.49,1100,1100,1100,1100,1039,1497,1509,12186,728
20782,0,3.18,4.92,0.24,0.072,-0.039,0.957,0.00,0.00,-0.12,-0.88,-3.30,-5.80,0.02,-0.27,10.53,-6.79,-21.98,9.93,1100,1100,1100,1100,1039,1497,1509,12194,728
20794,0,-0.66,1.54,-1.04,0.067,-0.025,1.010,0.00,0.00,-0.11,-0.93,0.55,-2.47,0.02,-0.28,10.55,1.76,-4.26,13.16,1100,1100,1100,1100,1040,1498,1508,12169,728
20806,0,-0.95,1.09,-0.43,0.024,-0.020,1.023,0.00,0.00,-0.12,-1.06,0.84,-2.15,0.02,-0.29,10.56,4.24,12.63,11.64,1100,1100,1100,1100,1040,1500,1508,12182,728
20818,0,2.66,0.70,-0.19,0.077,-0.045,0.996,0.00,0.00,-0.12,-1.12,-2.77,-1.82,0.02,-0.29,10.57,-4.16,-1.68,11.05,1100,1100,1100,1100,1057,1500,1505,12198,728
20830,0,-0.22,2.79,-0.44,0.026,-0.047,1.026,0.00,0.00,-0.08,-1.14,0.14,-3.93,0.02,-0.30,10.58,0.75,-6.35,11.68,1100,1100,1100,1100,1060,1498,1508,12207,720
20842,0,1.73,1.81,0.56,0.011,-0.055,1.023,0.00,0.00,-0.05,-1.19,-1.78,-3.00,0.01,-0.31,10.59,-1.43,1.68,9.20,1100,1100,1100,1100,1060,1498,1508,12215,720
20854,0,3.31,4.12,-1.01,0.012,-0.049,1.048,0.00,0.00,-0.02,-1.20,-3.33,-5.32,0.01,-0.32,10.61,-6.09,-5.35,13.14,1100,1100,1100,1100,1057,1497,1509,12223,720
20866,0,0.66,-0.03,-0.66,0.013,-0.020,1.039,0.00,0.00,-0.04,-1.20,-0.70,-1.18,0.01,-0.33,10.61,1.44,8.26,12.26,1100,1100,1100,1100,1057,1497,1509,12215,720
20878,0,1.35,2.94,0.27,0.047,-0.040,1.027,0.00,0.00,-0.03,-1.30,-1.39,-4.23,0.01,-0.34,10.62,0.32,0.54,9.95,1100,1100,1100,1100,1041,1497,1509,12198,720
20890,0,2.26,4.55,-0.17,0.007,-0.070,1.030,0.00,0.00,-0.05,-1.30,-2.31,-5.85,0.01,-0.35,10.62,-2.35,-15.76,11.04,1100,1100,1100,1100,1038,1497,1509,12178,720
20902,0,1.68,3.71,-0.06,-0.022,-0.019,1.024,0.00,0.00,-0.05,-1.33,-1.73,-5.03,0.01,-0.36,10.62,-1.65,-1.96,10.77,1100,1100,1100,1100,1038,1497,1509,12169,720
20914,0,0.65,3.49,-0.67,-0.037,-0.019,1.055,0.00,0.00,-0.06,-1.28,-0.71,-4.77,0.01,-0.37,10.64,0.90,-8.04,12.31,1100,1100,1100,1100,1038,1497,1509,12169,720
20926,0,-2.43,-1.25,-0.72,-0.026,-0.010,1.012,0.00,0.00,-0.05,-1.18,2.38,0.06,0.01,-0.38,10.66,5.46,10.83,12.46,1100,1100,1100,1100,1038,1497,1509,12190,720
20938,0,-2.52,-4.41,-1.06,-0.020,-0.031,1.013,0.00,0.00,-0.04,-1.00,2.49,3.41,0.01,-0.37,10.67,5.49,5.30,13.32,1100,1100,1100,1100,1038,1497,1509,12190,720
20950,0,0.04,-0.19,-0.73,0.028,-0.026,0.988,0.00,0.00,-0.02,-0.97,-0.06,-0.78,0.01,-0.37,10.69,-0.78,-4.62,12.52,1100,1100,1100,1100,1039,1497,1509,12174,720
20962,0,-0.75,-0.15,-0.38,0.011,-0.010,0.998,0.00,0.00,0.01,-0.91,0.76,-0.76,0.01,-0.37,10.71,-2.00,-4.38,11.66,1100,1100,1100,1100,1039,1497,1509,12157,720
20974,0,-5.21,1.67,-0.82,-0.003,-0.001,1.072,0.00,0.00,0.04,-0.97,5.25,-2.65,0.01,-0.38,10.74,8.52,8.84,12.78,1100,1100,1100,1100,1038,1497,1509,12165,720
20986,0,1.57,1.97,-0.38,0.027,-0.019,1.013,0.00,0.00,0.07,-0.90,-1.50,-2.87,0.01,-0.38,10.76,-5.91,-14.25,11.70,1100,1100,1100,1100,1038,1497,1509,12169,720
20998,0,-1.28,2.05,-1.15,0.008,0.007,1.027,0.00,0.00,0.08,-0.92,1.36,-2.97,0.01,-0.39,10.79,-0.56,-1.06,13.66,1100,1100,1100,1100,1042,1497,1509,12174,720
21010,0,-1.30,5.00,-0.44,-0.046,0.021,1.117,0.00,0.00,0.07,-0.96,1.37,-5.95,0.01,-0.40,10.80,1.74,-5.41,11.89,1100,1100,1100,1100,1042,1497,1509,12182,720
21022,0,1.31,5.68,-0.19,-0.074,-0.024,1.081,0.00,0.00,0.09,-0.92,-1.22,-6.60,0.02,-0.42,10.82,-5.98,-1.36,11.29,1100,1100,1100,1100,1042,1497,1509,12186,720
21034,0,-2.95,0.15,-1.20,-0.109,-0.014,1.121,0.00,0.00,0.09,-0.76,3.03,-0.91,0.02,-0.43,10.83,3.76,11.36,13.82,1100,1100,1100,1100,1049,1497,1509,12178,720
21046,0,2.65,0.47,0.93,-0.046,0.001,1.115,0.00,0.00,0.07,-0.64,-2.58,-1.10,0.02,-0.43,10.82,-5.81,3.65,8.50,1100,1100,1100,1100,1049,1497,1509,12169,720
21058,0,0.19,2.91,-0.64,-0.012,-0.027,1.043,0.00,0.00,0.06,-0.55,-0.13,-3.45,0.02,-0.43,10.84,-0.89,-11.60,12.45,1100,1100,1100,1100,1049,1497,1509,12186,720
21070,0,-1.38,-3.02,-0.30,0.012,-0.004,1.035,0.00,0.00,0.02,-0.52,1.40,2.50,0.02,-0.43,10.83,4.92,12.38,11.58,1100,1100,1100,1100,1038,1497,1509,12182,720
21082,0,0.52,3.86,-0.17,0.013,-0.018,1.021,0.00,0.00,-0.01,-0.57,-0.53,-4.43,0.02,-0.44,10.85,0.14,-8.22,11.27,1100,1100,1100,1100,1038,1497,1509,12161,720
21094,0,-0.90,0.94,-1.07,0.013,-0.012,1.014,0.00,0.00,-0.03,-0.52,0.86,-1.46,0.02,-0.44,10.86,2.37,-4.85,13.54,1100,1100,1100,1100,1038,1497,1509,12169,720
21106,0,0.47,-3.48,0.81,0.040,-0.018,0.981,0.00,0.00,-0.07,-0.54,-0.54,2.94,0.02,-0.45,10.85,0.69,16.39,8.84,1100,1100,1100,1100,1038,1497,1509,12169,720
21118,0,2.05,3.72,-0.04,0.050,-0.004,1.001,0.00,0.00,-0.09,-0.55,-2.15,-4.27,0.01,-0.45,10.87,-3.01,-18.68,10.97,1100,1100,1100,1100,1035,1497,1509,12169,720
21130,0,1.86,-2.12,-0.50,0.055,-0.006,0.975,0.00,0.00,-0.12,-0.53,-1.98,1.59,0.01,-0.44,10.86,-2.39,-0.70,12.10,1100,1100,1100,1100,1035,1497,1509,12190,726
21142,0,-0.96,-3.92,0.56,0.057,0.024,1.006,0.00,0.00,-0.17,-0.60,0.79,3.32,0.01,-0.44,10.86,3.51,18.98,9.47,1100,1100,1100,1100,1035,1497,1509,12198,726
21154,0,0.11,3.00,-0.12,0.035,0.010,1.043,0.00,0.00,-0.20,-0.61,-0.31,-3.60,0.01,-0.44,10.86,0.03,-16.81,11.17,1100,1100,1100,1100,1040,1497,1508,12186,726
21166,0,-0.50,-4.88,0.49,0.034,-0.031,0.973,0.00,0.00,-0.19,-0.54,0.31,4.34,0.01,-0.44,10.85,-1.76,16.17,9.62,1100,1100,1100,1100,1040,1497,1508,12182,726
21178,0,0.53,-1.02,0.24,0.010,0.012,1.021,0.00,0.00,-0.20,-0.46,-0.73,0.57,0.01,-0.43,10.85,-2.87,-6.95,10.25,1100,1100,1100,1100,1040,1497,1508,12207,726
21190,0,0.92,4.15,-0.48,-0.007,-0.024,1.015,0.00,0.00,-0.12,-0.39,-1.04,-4.54,0.02,-0.44,10.85,-5.04,-20.18,12.06,1100,1100,1100,1100,1045,1497,1509,12178,726
21202,0,-5.20,0.34,-0.11,-0.054,-0.050,1.077,0.00,0.00,-0.06,-0.34,5.14,-0.68,0.02,-0.44,10.86,8.36,8.18,11.14,1100,1100,1100,1100,1045,1497,1509,12178,726
21214,0,1.18,2.54,-0.35,-0.055,-0.027,1.110,0.00,0.00,-0.05,-0.26,-1.22,-2.80,0.02,-0.45,10.86,-2.68,-5.69,11.74,1100,1100,1100,1100,1034,1497,1509,12190,726
21226,0,1.73,1.82,0.04,-0.030,-0.045,1.052,0.00,0.00,-0.04,-0.20,-1.77,-2.02,0.02,-0.45,10.86,-4.91,0.78,10.76,1100,1100,1100,1100,1034,1497,1509,12190,725
21238,0,-2.74,-0.44,0.11,-0.001,0.022,1.070,0.00,0.00,-0.08,-0.16,2.67,0.28,0.02,-0.46,10.86,7.01,5.58,10.59,1100,1100,1100,1100,1038,1497,1509,12182,725
21250,0,2.70,11.18,0.26,-0.004,-0.028,1.095,0.00,0.00,-0.13,-0.24,-2.83,-11.42,0.02,-0.47,10.86,-2.37,-34.87,10.21,1100,1100,1100,1100,1034,1497,1509,12157,725
21262,0,1.67,7.10,-0.78,-0.007,-0.030,1.052,0.00,0.00,-0.17,-0.31,-1.85,-7.41,0.01,-0.48,10.87,-2.37,-13.62,12.82,1100,1100,1100,1100,1034,1497,1509,12165,725
21274,0,0.94,2.42,-0.24,-0.047,0.028,1.094,0.00,0.00,-0.24,-0.40,-1.18,-2.82,0.01,-0.50,10.87,1.89,18.65,11.48,1100,1100,1100,1100,1038,1497,1509,12174,725
21286,0,1.62,4.75,0.74,-0.048,-0.027,1.088,0.00,0.00,-0.26,-0.34,-1.88,-5.08,0.01,-0.51,10.87,-0.67,-6.10,9.03,1100,1100,1100,1100,1038,1497,1509,12186,725
21298,0,-0.35,-6.76,-0.09,-0.008,-0.019,1.013,0.00,0.00,-0.30,-0.19,0.06,6.58,0.01,-0.51,10.87,2.55,29.86,11.10,1100,1100,1100,1100,1051,1497,1509,12186,725
21310,0,4.94,-2.41,0.72,0.022,-0.008,1.032,0.00,0.00,-0.36,-0.10,-5.30,2.31,0.00,-0.50,10.85,-7.07,-1.36,9.04,1100,1100,1100,1100,1051,1497,1509,12182,725
21322,0,2.93,-1.31,0.40,0.128,-0.011,0.931,0.00,0.00,-0.36,-0.14,-3.29,1.17,0.00,-0.49,10.85,-4.52,-3.81,9.86,1100,1100,1100,1100,1051,1497,1509,12178,725
21334,0,-1.83,1.97,-0.12,0.031,-0.039,0.991,0.00,0.00,-0.35,-0.19,1.48,-2.16,0.00,-0.50,10.84,6.33,-10.58,11.14,1100,1100,1100,1100,1051,1497,1509,12157,720
21346,0,1.21,-4.35,0.59,0.047,-0.047,0.986,0.00,0.00,-0.35,-0.24,-1.57,4.11,-0.00,-0.50,10.84,-0.55,19.36,9.37,1100,1100,1100,1100,1051,1497,1509,12144,720
21358,0,2.76,1.47,-0.90,0.059,-0.015,0.980,0.00,0.00,-0.37,-0.26,-3.13,-1.73,-0.00,-0.50,10.85,-5.00,-6.74,13.08,1100,1100,1100,1100,1040,1497,1509,12132,720
21370,0,-0.07,-1.42,0.26,0.076,-0.002,0.961,0.00,0.00,-0.41,-0.29,-0.34,1.13,-0.00,-0.49,10.83,2.40,-0.24,10.19,1100,1100,1100,1100,1040,1497,1509,12140,720
21382,0,0.11,-3.34,0.52,0.096,-0.028,0.941,0.00,0.00,-0.40,-0.38,-0.50,2.97,-0.00,-0.49,10.83,0.72,6.81,9.53,1100,1100,1100,1100,1040,1497,1509,12153,720
21394,0,-0.80,1.48,-0.11,0.051,-0.051,0.956,0.00,0.00,-0.37,-0.43,0.42,-1.91,-0.00,-0.49,10.83,1.48,-7.55,11.10,1100,1100,1100,1100,1038,1497,1509,12153,720
21406,0,-3.49,-6.83,0.28,0.104,-0.031,0.935,0.00,0.00,-0.32,-0.46,3.17,6.37,-0.00,-0.48,10.81,6.25,15.62,10.13,1100,1100,1100,1100,1038,1497,1509,12169,720
21418,0,-1.32,-2.88,0.33,0.176,-0.055,0.882,0.00,0.00,-0.27,-0.59,1.06,2.30,-0.00,-0.47,10.81,2.72,-5.09,9.97,1100,1100,1100,1100,1038,1497,1509,12190,720
21430,0,0.52,-3.25,0.18,0.179,-0.052,0.864,0.00,0.00,-0.21,-0.73,-0.74,2.52,-0.00,-0.46,10.80,-2.66,-9.91,10.36,1100,1100,1100,1100,1042,1497,1509,12153,720
21442,0,-0.13,-0.20,-0.22,0.139,0.003,0.957,0.00,0.00,-0.22,-1.01,-0.10,-0.81,-0.00,-0.47,10.81,1.01,1.60,11.35,1100,1100,1100,1100,1042,1497,1509,12149,720
21454,0,1.47,1.43,-0.06,0.131,-0.027,0.918,0.00,0.00,-0.21,-1.19,-1.67,-2.62,-0.01,-0.47,10.81,-1.41,-12.15,10.97,1100,1100,1100,1100,1042,1496,1509,12153,720
21466,0,1.57,-0.82,-0.83,0.118,-0.028,0.940,0.00,0.00,-0.19,-1.29,-1.76,-0.47,-0.01,-0.46,10.82,-3.09,-3.64,12.90,1100,1100,1100,1100,1042,1496,1509,12153,720
22478,0,1.50,1.41,-0.12,0.126,-0.025,0.944,0.00,0.00,-0.19,-1.42,-1.69,-2.83,-0.01,-0.47,10.83,-1.03,-7.78,11.13,1100,1100,1100,1100,1214,1497,1509,12169,720
22481,0,-1.95,-4.67,1.93,0.127,-0.056,0.874,0.00,0.00,-0.11,-1.51,1.84,3.16,-0.01,-0.46,10.79,2.67,10.35,5.95,1100,1100,1100,1100,1214,1497,1509,12169,720
22483,0,-0.90,0.69,0.19,0.112,-0.105,0.857,0.00,0.00,0.07,-1.66,0.96,-2.35,-0.01,-0.47,10.75,-0.39,-9.45,10.27,1100,1100,1100,1100,1214,1497,1509,12169,720
22485,0,3.78,-1.52,-1.65,0.124,-0.110,0.829,0.00,0.00,0.23,-1.81,-3.54,-0.29,-0.01,-0.47,10.79,-6.84,3.51,14.91,1100,1100,1100,1100,1214,1497,1509,12169,720
22487,0,4.50,6.22,-1.81,0.147,-0.007,0.853,0.00,0.00,0.17,-2.13,-4.33,-8.35,-0.01,-0.48,10.84,-1.85,-17.62,15.37,1193,1257,1221,1225,1224,1497,1509,12178,816
22490,0,-1.18,-3.64,1.93,0.220,0.060,0.922,0.00,0.00,0.03,-2.40,1.22,1.24,-0.01,-0.49,10.82,5.49,16.30,5.99,1193,1257,1221,1225,1224,1497,1509,12178,816
22492,0,0.70,7.31,3.31,0.097,-0.045,1.016,0.00,0.00,0.04,-2.69,-0.65,-10.00,-0.01,-0.50,10.73,-2.80,-21.21,2.45,1193,1257,1221,1225,1224,1497,1509,12178,816
22494,0,5.40,-0.94,1.96,0.043,-0.045,1.081,0.00,0.00,0.01,-2.77,-5.39,-1.82,-0.02,-0.52,10.65,-6.43,17.60,5.74,1193,1257,1221,1225,1224,1497,1509,12178,816
22496,0,0.92,-2.12,-0.72,0.048,0.032,1.042,0.00,0.00,-0.12,-2.69,-1.04,-0.57,-0.02,-0.52,10.64,5.51,0.24,12.42,1193,1257,1221,1225,1224,1497,1509,12178,816
22498,0,-5.82,6.43,-1.08,-0.027,0.016,1.067,0.00,0.00,-0.09,-2.71,5.72,-9.14,-0.02,-0.53,10.67,7.89,-20.82,13.38,1193,1257,1221,1225,1224,1497,1509,12169,816
22501,0,-0.06,-7.85,1.92,-0.010,-0.065,0.985,0.00,0.00,-0.01,-2.52,0.06,5.34,-0.01,-0.53,10.64,-4.63,29.00,5.83,1193,1257,1221,1225,1224,1497,1509,12169,816
22503,0,0.93,0.26,0.34,0.010,-0.103,0.931,0.00,0.00,0.11,-2.40,-0.83,-2.67,-0.01,-0.53,10.60,-1.85,-13.81,9.76,1193,1257,1221,1225,1224,1497,1509,12169,816
22505,0,6.70,-1.48,-0.90,0.098,-0.088,0.893,0.00,0.00,0.18,-2.40,-6.52,-0.93,-0.02,-0.54,10.62,-9.15,0.71,12.88,1193,1257,1221,1225,1224,1498,1509,12169,816
22507,0,5.21,6.22,-0.73,0.182,0.039,0.887,0.00,0.00,-0.01,-2.72,-5.22,-8.94,-0.03,-0.55,10.65,1.46,-21.58,12.48,1220,1246,1228,1202,1224,1498,1508,12169,727
22509,0,-5.84,5.32,1.78,0.101,-0.012,0.989,0.00,0.00,-0.01,-3.02,5.83,-8.35,-0.02,-0.57,10.62,11.65,-5.08,6.17,1220,1246,1228,1202,1232,1498,1508,12140,727
22512,0,2.97,0.79,3.06,0.020,-0.107,1.022,0.00,0.00,0.11,-3.06,-2.86,-3.85,-0.02,-0.58,10.54,-8.13,6.29,2.88,1220,1246,1228,1202,1232,1498,1508,12140,727
22514,0,4.37,-1.81,1.84,-0.010,-0.022,1.108,0.00,0.00,0.03,-2.98,-4.34,-1.17,-0.03,-0.59,10.47,-1.05,10.20,5.88,1220,1246,1228,1202,1232,1498,1508,12140,727
22516,0,-3.36,-5.39,-0.14,0.038,0.022,1.049,0.00,0.00,-0.03,-2.79,3.33,2.60,-0.03,-0.58,10.44,9.41,4.65,10.79,1220,1246,1228,1202,1232,1498,1508,12140,727
22518,0,-3.69,10.87,-1.30,-0.056,-0.060,1.037,0.00,0.00,0.10,-2.84,3.79,-13.72,-0.02,-0.61,10.48,1.25,-33.68,13.72,1220,1246,1228,1202,1232,1498,1508,12115,727
22520,0,3.32,-5.25,1.38,-0.043,-0.121,0.995,0.00,0.00,0.20,-2.67,-3.12,2.58,-0.03,-0.62,10.46,-6.93,27.58,7.00,1220,1246,1228,1202,1232,1498,1508,12115,727
22523,0,4.06,-2.16,0.93,-0.029,-0.146,0.891,0.00,0.00,0.33,-2.45,-3.73,-0.29,-0.03,-0.61,10.43,-2.82,-3.55,8.11,1220,1246,1228,1202,1232,1498,1508,12115,727
22525,0,9.25,0.55,0.06,0.100,-0.032,0.890,0.00,0.00,0.28,-2.45,-8.98,-3.00,-0.04,-0.62,10.41,-6.93,-8.88,10.26,1226,1254,1228,1220,1232,1498,1508,12115,718
22527,0,0.59,5.48,-0.14,0.206,0.099,0.872,0.00,0.00,-0.03,-2.80,-0.62,-8.28,-0.05,-0.63,10.42,10.70,-18.23,10.77,1226,1254,1228,1220,1232,1498,1508,12115,718
22529,0,-6.85,14.74,0.98,0.003,-0.026,1.046,0.00,0.00,0.05,-3.20,6.90,-17.94,-0.04,-0.67,10.41,8.32,-21.22,7.96,1226,1254,1228,1220,1246,1498,1508,12103,718
22532,0,7.61,-8.66,3.25,0.056,-0.068,1.021,0.00,0.00,0.05,-3.08,-7.56,5.58,-0.04,-0.67,10.32,-14.44,39.91,2.21,1226,1254,1228,1220,1246,1498,1508,12103,718
22534,0,1.53,-3.92,1.21,0.009,0.039,1.133,0.00,0.00,-0.13,-2.99,-1.67,0.93,-0.05,-0.67,10.26,6.69,9.56,7.25,1226,1254,1228,1220,1246,1498,1508,12103,718
22536,0,-5.11,-1.28,-0.82,0.046,0.015,1.055,0.00,0.00,-0.14,-2.82,4.97,-1.54,-0.05,-0.67,10.26,7.82,-17.96,12.32,1226,1254,1228,1220,1246,1498,1508,12103,718
22538,0,1.67,4.97,-0.76,-0.019,-0.084,1.029,0.00,0.00,-0.03,-2.88,-1.70,-7.85,-0.04,-0.69,10.30,-8.24,-9.70,12.20,1226,1254,1228,1220,1246,1498,1508,12074,718
22540,0,4.23,1.54,0.74,-0.017,-0.148,0.931,0.00,0.00,0.06,-2.81,-4.18,-4.35,-0.05,-0.70,10.28,-3.90,-2.32,8.44,1226,1254,1228,1220,1246,1498,1508,12074,718
22543,0,11.13,-2.45,1.32,0.043,-0.147,0.845,0.00,0.00,0.12,-2.73,-11.00,-0.28,-0.06,-0.70,10.25,-10.78,7.66,6.95,1257,1255,1249,1223,1246,1498,1508,12074,718
22545,0,7.19,2.74,0.59,0.165,0.064,0.821,0.00,0.00,-0.16,-2.93,-7.35,-5.68,-0.07,-0.71,10.22,5.26,-14.37,8.74,1257,1255,1249,1223,1246,1497,1508,12074,718
22547,0,-7.73,11.59,-0.08,0.126,0.085,0.908,0.00,0.00,-0.36,-3.36,7.37,-14.95,-0.07,-0.73,10.22,18.19,-29.39,10.42,1257,1255,1249,1223,1246,1497,1509,12074,718
22549,0,0.31,0.16,1.71,0.005,-0.052,1.063,0.00,0.00,-0.29,-3.47,-0.60,-3.63,-0.06,-0.76,10.19,-7.10,24.71,5.91,1257,1255,1249,1223,1252,1497,1509,12032,718
22551,0,5.40,2.85,1.11,0.023,0.011,1.142,0.00,0.00,-0.41,-3.42,-5.81,-6.27,-0.07,-0.77,10.14,-5.91,-10.21,7.37,1257,1255,1249,1223,1252,1497,1509,12032,718
22554,0,-1.90,-0.12,-0.98,-0.043,0.010,1.205,0.00,0.00,-0.46,-3.34,1.43,-3.22,-0.07,-0.78,10.15,5.86,6.17,12.61,1257,1255,1249,1223,1252,1497,1509,12032,718
22556,0,6.69,2.94,-1.12,-0.035,-0.043,1.115,0.00,0.00,-0.51,-3.21,-7.20,-6.16,-0.08,-0.79,10.19,-10.56,-13.03,12.98,1257,1255,1249,1223,1252,1497,1509,12032,718
22558,0,5.79,2.45,-0.63,-0.056,-0.078,1.011,0.00,0.00,-0.63,-3.15,-6.41,-5.60,-0.09,-0.80,10.21,-0.27,0.48,11.79,1257,1255,1249,1223,1252,1497,1509,11978,718
22560,0,9.27,-0.69,0.70,0.025,-0.129,0.867,0.00,0.00,-0.59,-3.04,-9.86,-2.35,-0.10,-0.81,10.21,-7.32,1.98,8.45,1257,1255,1249,1223,1252,1497,1509,11978,718
22563,0,8.21,-0.05,1.49,0.155,0.029,0.784,0.00,0.00,-0.80,-3.19,-9.01,-3.15,-0.11,-0.82,10.17,-0.60,-1.71,6.43,1253,1269,1247,1239,1252,1497,1509,11978,724
22565,0,-1.55,10.98,-0.10,0.060,0.039,0.943,0.00,0.00,-0.91,-3.56,0.64,-14.53,-0.11,-0.85,10.16,7.41,-25.63,10.41,1253,1269,1247,1239,1252,1497,1509,11978,724
22567,0,1.00,-6.75,1.43,0.035,0.052,1.041,0.00,0.00,-1.00,-3.53,-2.01,3.22,-0.11,-0.86,10.14,-2.07,41.56,6.56,1253,1269,1247,1239,1252,1497,1509,11978,724
22569,0,-3.83,8.32,-0.05,0.042,0.036,1.159,0.00,0.00,-1.05,-3.58,2.77,-11.90,-0.11,-0.87,10.12,5.37,-35.53,10.24,1253,1269,1247,1239,1280,1497,1509,11945,724
22571,0,5.39,-4.91,-0.45,-0.064,-0.099,1.199,0.00,0.00,-1.03,-3.47,-6.42,1.44,-0.11,-0.89,10.14,-10.95,27.94,11.27,1253,1269,1247,1239,1280,1497,1509,11945,724
22574,0,16.03,2.31,0.34,0.026,-0.057,1.058,0.00,0.00,-1.25,-3.33,-17.28,-5.63,-0.13,-0.89,10.13,-14.88,-20.63,9.28,1253,1269,1247,1239,1280,1497,1509,11945,724
22576,0,8.48,-0.33,-0.22,-0.002,-0.058,0.935,0.00,0.00,-1.43,-3.31,-9.91,-2.98,-0.14,-0.90,10.14,1.71,10.75,10.69,1253,1269,1247,1239,1280,1497,1509,11945,724
22578,0,7.91,-1.14,1.32,0.065,-0.020,0.824,0.00,0.00,-1.55,-3.28,-9.46,-2.13,-0.16,-0.91,10.12,-0.60,-0.70,6.82,1253,1269,1247,1239,1280,1497,1509,11915,724
22580,0,-5.44,0.70,0.51,0.181,-0.003,0.717,0.00,0.00,-1.56,-3.49,3.89,-4.19,-0.16,-0.91,10.09,14.44,-15.15,8.83,1272,1268,1306,1274,1280,1497,1509,11915,718
22582,0,1.21,4.09,0.50,-0.041,0.013,1.039,0.00,0.00,-1.51,-3.63,-2.72,-7.72,-0.16,-0.93,10.08,-5.93,-2.11,8.83,1272,1268,1306,1274,1280,1497,1509,11915,718
22585,0,-0.82,-18.73,1.60,0.197,0.113,0.920,0.00,0.00,-1.70,-3.37,-0.88,15.36,-0.16,-0.91,10.04,2.10,39.91,6.03,1272,1268,1306,1274,1280,1497,1509,11915,718
22587,0,-1.54,9.44,-1.44,-0.058,0.004,1.214,0.00,0.00,-1.70,-3.58,-0.16,-13.02,-0.16,-0.94,10.07,-4.01,-26.61,13.66,1272,1268,1306,1274,1280,1497,1509,11915,718
22589,0,15.64,-13.41,1.34,0.000,-0.032,1.151,0.00,0.00,-1.86,-3.24,-17.51,10.17,-0.17,-0.93,10.06,-23.61,39.42,6.72,1272,1268,1306,1274,1294,1497,1509,11895,718
22591,0,8.47,8.87,-0.28,-0.054,-0.023,1.057,0.00,0.00,-2.13,-3.21,-10.60,-12.08,-0.18,-0.94,10.05,2.18,-34.98,10.75,1272,1268,1306,1274,1294,1497,1509,11895,718
22593,0,9.15,-3.33,1.32,0.058,-0.040,0.885,0.00,0.00,-2.26,-3.15,-11.41,0.18,-0.20,-0.95,10.03,-3.76,14.22,6.74,1272,1268,1306,1274,1294,1497,1509,11895,718
22596,0,-2.86,2.85,0.19,0.137,-0.001,0.783,0.00,0.00,-2.34,-3.31,0.52,-6.16,-0.20,-0.96,10.01,14.51,-16.13,9.53,1272,1268,1306,1274,1294,1497,1509,11895,718
22598,0,-4.07,6.36,0.00,0.004,-0.008,0.893,0.00,0.00,-2.17,-3.58,1.90,-9.93,-0.20,-0.99,10.02,0.95,-5.34,10.02,1279,1309,1299,1289,1294,1497,1509,11870,735
22600,0,-6.68,-19.70,1.43,0.169,0.110,0.844,0.00,0.00,-2.23,-3.29,4.45,16.41,-0.20,-0.95,9.97,6.54,39.99,6.39,1279,1309,1299,1289,1294,1497,1509,11870,735
22602,0,-10.41,19.41,-2.62,-0.166,-0.038,1.194,0.00,0.00,-2.02,-3.43,8.39,-22.84,-0.19,-0.99,10.02,4.08,-68.92,16.57,1279,1309,1299,1289,1294,1497,1509,11870,735
22605,0,15.21,-17.71,1.65,-0.035,-0.009,1.177,0.00,0.00,-2.15,-3.03,-17.36,14.68,-0.20,-0.98,10.01,-28.11,62.69,5.90,1279,1309,1299,1289,1294,1497,1509,11870,735
22607,0,3.26,4.33,-0.59,0.003,-0.022,1.074,0.00,0.00,-2.40,-2.89,-5.66,-7.21,-0.21,-0.98,10.00,8.08,-38.98,11.48,1279,1309,1299,1289,1294,1497,1509,11870,735
22609,0,7.53,1.35,1.66,0.039,-0.096,0.966,0.00,0.00,-2.33,-2.94,-9.87,-4.29,-0.22,-1.00,9.99,-9.04,4.27,5.84,1279,1309,1299,1289,1294,1497,1509,11836,735
22611,0,2.08,4.60,-0.03,0.143,-0.012,0.914,0.00,0.00,-2.42,-3.15,-4.50,-7.74,-0.23,-1.01,9.96,5.72,-12.14,10.05,1279,1309,1299,1289,1294,1497,1509,11836,735
22613,0,-2.15,-2.51,-0.21,0.067,0.015,0.931,0.00,0.00,-2.37,-3.26,-0.22,-0.75,-0.23,-1.02,9.98,3.62,14.49,10.50,1279,1309,1299,1289,1294,1497,1509,11836,735
22616,0,-15.11,1.20,-1.29,0.064,0.095,0.944,0.00,0.00,-2.32,-3.21,12.78,-4.40,-0.22,-1.01,9.98,19.22,-24.30,13.22,1279,1309,1299,1289,1294,1497,1509,11836,735
22618,0,-7.48,6.36,-2.10,-0.133,-0.023,1.121,0.00,0.00,-2.04,-3.24,5.44,-9.60,-0.21,-1.04,10.06,-10.40,-6.82,15.31,1224,1326,1292,1334,1294,1497,1509,11836,718
22620,0,7.51,-14.67,1.31,-0.063,0.068,1.047,0.00,0.00,-2.25,-2.76,-9.76,11.90,-0.22,-1.03,10.04,-14.73,40.30,6.77,1224,1326,1292,1334,1294,1497,1509,11836,718
22622,0,-1.01,5.71,-1.62,0.062,-0.028,0.933,0.00,0.00,-2.30,-2.70,-1.28,-8.42,-0.22,-1.03,10.06,3.72,-45.03,14.11,1224,1326,1292,1334,1294,1497,1509,11836,718
22625,0,7.56,1.07,1.08,0.176,0.008,0.965,0.00,0.00,-2.39,-2.94,-9.95,-4.01,-0.23,-1.04,10.05,-7.59,5.42,7.35,1224,1326,1292,1334,1294,1498,1509,11836,718
22627,0,-1.37,7.31,-1.08,0.269,0.048,0.949,0.00,0.00,-2.56,-3.40,-1.20,-10.70,-0.24,-1.06,10.05,9.01,-23.49,12.76,1224,1326,1292,1334,1294,1498,1509,11807,718
22629,0,-9.93,4.30,0.12,0.103,0.037,0.993,0.00,0.00,-2.47,-3.75,7.46,-8.05,-0.23,-1.09,10.05,12.69,4.45,9.75,1224,1326,1292,1334,1292,1498,1509,11795,718
22632,0,-12.54,2.33,-3.94,-0.056,-0.029,1.025,0.00,0.00,-2.17,-3.71,10.37,-6.03,-0.22,-1.10,10.13,5.15,-2.97,19.98,1224,1326,1292,1334,1292,1498,1509,11795,718
22634,0,1.32,-12.63,-1.14,-0.225,0.039,1.071,0.00,0.00,-2.12,-3.24,-3.44,9.40,-0.22,-1.10,10.21,-11.55,48.54,13.06,1224,1326,1292,1334,1292,1498,1509,11795,718
22636,0,-1.71,-19.83,-1.01,0.160,0.001,0.765,0.00,0.00,-2.15,-2.67,-0.43,17.16,-0.22,-1.05,10.23,-0.98,6.65,12.75,1345,1239,1367,1217,1292,1498,1509,11795,717
22638,0,9.30,23.98,1.16,0.081,-0.057,1.059,0.00,0.00,-2.21,-3.18,-11.50,-27.16,-0.23,-1.09,10.22,-13.32,-83.92,7.32,1345,1239,1367,1217,1292,1498,1509,11782,717
22641,0,3.72,10.09,-0.85,0.308,-0.032,0.959,0.00,0.00,-2.30,-3.68,-6.02,-13.77,-0.24,-1.12,10.21,1.96,-16.94,12.32,1345,1239,1367,1217,1292,1498,1509,11782,717
22643,0,-6.94,21.37,-2.00,0.079,-0.015,1.120,0.00,0.00,-2.24,-4.46,4.70,-25.83,-0.24,-1.18,10.27,15.38,-21.10,15.26,1345,1239,1367,1217,1292,1498,1509,11782,717
22645,0,-13.37,-14.45,-4.15,-0.028,-0.049,1.030,0.00,0.00,-1.86,-4.19,11.51,10.25,-0.23,-1.17,10.37,7.98,58.33,20.75,1345,1239,1367,1217,1292,1498,1509,11782,717
22647,0,0.77,0.19,-3.87,-0.327,-0.020,1.126,0.00,0.00,-1.74,-3.71,-2.51,-3.90,-0.22,-1.18,10.50,-12.34,-13.76,20.17,1345,1239,1367,1217,1292,1498,1509,11782,717
22649,0,-0.41,-44.67,-0.36,0.013,-0.022,0.819,0.00,0.00,-1.73,-2.63,-1.33,42.04,-0.23,-1.11,10.53,-1.92,96.22,11.42,1345,1239,1367,1217,1291,1498,1509,11774,717
22652,0,10.68,15.45,0.56,0.143,-0.072,0.893,0.00,0.00,-1.78,-2.76,-12.46,-18.21,-0.24,-1.10,10.53,-14.45,-110.00,9.13,1345,1239,1367,1217,1291,1498,1509,11774,717
22654,0,9.72,4.82,0.76,0.309,-0.033,0.891,0.00,0.00,-1.97,-3.39,-11.69,-8.21,-0.25,-1.14,10.50,-2.49,14.53,8.60,1299,1287,1311,1267,1291,1498,1509,11774,717
22656,0,-2.32,38.34,-2.58,0.179,0.035,1.095,0.00,0.00,-2.07,-4.43,0.26,-42.77,-0.26,-1.21,10.54,13.71,-84.20,17.00,1299,1287,1311,1267,1291,1498,1509,11774,717
22658,0,-14.85,-16.84,-4.51,-0.108,-0.045,1.034,0.00,0.00,-1.76,-4.34,13.09,12.50,-0.24,-1.23,10.67,15.38,107.44,21.95,1299,1287,1311,1267,1291,1498,1509,11803,717
22661,0,1.92,-1.80,-3.30,-0.294,-0.072,1.043,0.00,0.00,-1.56,-3.64,-3.48,-1.84,-0.24,-1.22,10.78,-14.78,-25.12,19.03,1299,1287,1311,1267,1291,1498,1509,11803,717
22663,0,3.86,-49.09,0.57,-0.077,-0.040,0.933,0.00,0.00,-1.59,-2.51,-5.45,46.59,-0.25,-1.16,10.81,-5.90,110.00,9.39,1299,1287,1311,1267,1291,1498,1509,11803,717
22665,0,8.83,2.10,1.41,0.257,-0.082,0.805,0.00,0.00,-1.62,-2.20,-10.45,-4.30,-0.26,-1.09,10.76,-10.00,-110.00,7.24,1299,1287,1311,1267,1291,1497,1509,11803,717
22667,0,12.50,7.39,0.42,0.309,0.011,1.000,0.00,0.00,-1.90,-2.90,-14.39,-10.29,-0.28,-1.13,10.74,-6.58,-11.07,9.69,1299,1287,1311,1267,1291,1497,1509,11803,717
22669,0,-8.61,40.69,-4.46,0.252,0.018,0.997,0.00,0.00,-1.91,-3.99,6.70,-44.68,-0.28,-1.20,10.83,21.39,-100.22,21.97,1299,1287,1311,1267,1292,1497,1509,11791,717
22672,0,-5.23,-2.61,-3.81,-0.141,-0.054,1.062,0.00,0.00,-1.63,-4.36,3.60,-1.75,-0.27,-1.27,10.98,-4.97,108.83,20.52,1299,1287,1311,1267,1292,1497,1509,11791,717
22674,0,6.95,-13.66,-1.42,-0.262,-0.063,0.997,0.00,0.00,-1.60,-3.50,-8.55,10.16,-0.27,-1.23,11.04,-14.77,21.44,14.60,1395,1209,1409,1155,1292,1497,1509,11791,723
22676,0,5.01,-49.27,1.36,-0.054,-0.050,0.885,0.00,0.00,-1.68,-2.24,-6.69,47.02,-0.28,-1.15,11.03,-1.72,96.31,7.64,1395,1209,1409,1155,1292,1497,1509,11791,723
22678,0,11.03,-7.54,0.22,0.272,-0.110,0.842,0.00,0.00,-1.66,-1.98,-12.69,5.56,-0.29,-1.09,11.00,-11.97,-84.71,10.46,1395,1209,1409,1155,1292,1497,1509,11774,723
22680,0,9.15,-2.54,-1.53,0.449,0.078,0.881,0.00,0.00,-2.00,-2.60,-11.15,-0.05,-0.31,-1.10,11.04,0.18,-12.99,14.87,1395,1209,1409,1155,1292,1497,1509,11774,723
22683,0,-12.33,40.15,-5.40,0.181,-0.033,0.978,0.00,0.00,-1.86,-3.76,10.47,-43.91,-0.30,-1.16,11.16,19.47,-110.00,24.65,1395,1209,1409,1155,1292,1497,1509,11774,723
22685,0,0.57,5.93,-2.69,-0.234,-0.070,1.153,0.00,0.00,-1.61,-4.17,-2.18,-10.11,-0.30,-1.24,11.29,-14.13,82.60,18.02,1395,1209,1409,1155,1292,1497,1509,11774,723
22687,0,6.86,-20.11,-0.07,-0.238,-0.034,0.942,0.00,0.00,-1.68,-3.27,-8.53,16.84,-0.30,-1.21,11.31,-10.08,55.59,11.49,1395,1209,1409,1155,1292,1497,1509,11774,723
22689,0,5.67,-33.56,0.11,0.013,-0.057,0.964,0.00,0.00,-1.77,-2.33,-7.44,31.23,-0.31,-1.15,11.30,-2.25,48.47,11.03,1395,1209,1409,1155,1287,1497,1509,11770,723
22691,0,11.72,-15.49,-2.42,0.330,-0.070,0.953,0.00,0.00,-1.87,-2.14,-13.60,13.35,-0.33,-1.10,11.35,-10.26,-27.11,17.40,1265,1327,1277,1279,1287,1497,1509,11770,716
22694,0,-2.75,19.02,-3.83,0.386,0.004,0.998,0.00,0.00,-2.02,-2.93,0.73,-21.95,-0.34,-1.12,11.46,19.37,-85.11,21.04,1265,1327,1277,1279,1287,1497,1509,11770,716
22696,0,-13.69,27.94,-5.26,0.099,-0.107,1.060,0.00,0.00,-1.64,-3.88,12.05,-31.82,-0.32,-1.20,11.60,12.81,-38.11,24.76,1265,1327,1277,1279,1287,1497,1509,11770,716
22698,0,7.40,7.67,-2.46,-0.292,-0.108,1.154,0.00,0.00,-1.51,-3.93,-8.91,-11.60,-0.33,-1.25,11.71,-20.29,38.38,17.85,1265,1327,1277,1279,1287,1497,1509,11782,716
22700,0,8.89,-28.02,-0.97,-0.229,-0.021,0.954,0.00,0.00,-1.67,-2.96,-10.55,25.06,-0.34,-1.21,11.74,-7.01,80.82,14.17,1265,1327,1277,1279,1287,1497,1509,11782,716
22702,0,8.24,-22.86,-1.13,0.048,-0.032,0.972,0.00,0.00,-1.84,-2.18,-10.08,20.68,-0.35,-1.15,11.77,-3.20,6.14,14.60,1265,1327,1277,1279,1287,1497,1509,11782,716
22705,0,7.97,-8.00,-2.61,0.402,0.042,0.940,0.00,0.00,-2.09,-2.20,-10.07,5.80,-0.37,-1.12,11.83,-0.30,-38.84,18.36,1265,1327,1277,1279,1287,1497,1509,11782,716
22714,0,9.34,-1.84,-1.39,0.296,0.026,0.965,0.00,0.00,-2.27,-2.87,-11.61,-1.03,-0.37,-1.15,11.92,-10.34,21.26,15.39,1265,1327,1277,1279,1298,1497,1509,11791,716
22726,0,9.33,-13.96,-0.08,0.345,-0.024,0.823,0.00,0.00,-2.41,-3.38,-11.74,10.58,-0.38,-1.15,11.96,-11.16,52.29,12.16,1349,1269,1351,1223,1298,1497,1509,11824,719
22738,0,9.74,-21.90,0.22,0.431,-0.006,0.724,0.00,0.00,-2.54,-3.84,-12.28,18.07,-0.39,-1.11,12.00,-11.23,33.24,11.44,1349,1269,1351,1223,1298,1497,1509,11791,719
22750,0,8.37,-15.20,0.21,0.500,-0.007,0.629,0.00,0.00,-2.64,-4.43,-11.01,10.77,-0.40,-1.08,12.04,-6.98,-6.61,11.51,1349,1269,1351,1223,1299,1497,1509,11782,719
22762,0,6.16,-19.09,0.13,0.621,0.017,0.562,0.00,0.00,-2.69,-5.08,-8.85,14.00,-0.41,-1.04,12.07,-4.71,-9.61,11.74,1349,1269,1351,1223,1299,1497,1509,11786,719
22774,0,1.04,-24.68,-0.39,0.735,0.019,0.447,0.00,0.00,-2.65,-5.90,-3.69,18.78,-0.41,-0.98,12.09,3.54,-11.82,13.07,1349,1269,1351,1223,1299,1497,1509,11757,719
22786,0,-1.93,-13.10,-1.47,0.728,0.049,0.490,0.00,0.00,-2.63,-6.93,-0.70,6.17,-0.42,-0.94,12.14,8.11,-44.61,15.81,1349,1269,1351,1223,1299,1497,1509,11749,719
22798,0,-3.96,-14.24,-2.60,0.783,0.067,0.455,0.00,0.00,-2.64,-8.02,1.32,6.22,-0.42,-0.92,12.22,12.04,-23.39,18.71,1349,1269,1351,1223,1299,1497,1509,11761,719
22810,0,-5.86,-18.14,-3.57,0.778,0.088,0.463,0.00,0.00,-2.59,-8.98,3.27,9.16,-0.42,-0.87,12.30,13.94,-37.34,21.21,1349,1269,1351,1223,1302,1497,1508,11799,719
22822,0,-9.54,-19.21,-4.76,0.715,0.084,0.488,0.00,0.00,-2.53,-9.88,7.01,9.33,-0.42,-0.83,12.40,22.11,-29.51,24.30,1349,1269,1351,1223,1302,1497,1508,11799,719
22834,0,-10.96,-10.15,-4.83,0.642,0.080,0.515,0.00,0.00,-2.51,-10.74,8.45,-0.60,-0.43,-0.81,12.49,29.21,-51.15,24.56,1261,1341,1307,1299,1302,1498,1508,11799,767
22846,0,-10.20,-13.61,-4.86,0.648,0.065,0.490,0.00,0.00,-2.55,-11.54,7.65,2.07,-0.44,-0.78,12.58,33.42,-39.63,24.73,1261,1341,1307,1299,1302,1497,1508,11803,767
22858,0,-11.77,-20.94,-4.61,0.707,0.033,0.458,0.00,0.00,-2.52,-12.25,9.26,8.69,-0.44,-0.74,12.66,37.22,-26.00,24.19,1261,1341,1307,1299,1304,1497,1509,11820,767
22870,0,-12.13,-4.25,-4.85,0.530,0.034,0.627,0.00,0.00,-2.54,-12.96,9.59,-8.71,-0.45,-0.72,12.74,38.83,-75.56,24.87,1261,1341,1307,1299,1308,1497,1509,11803,767
22882,0,-10.47,10.61,-5.42,0.325,0.033,0.828,0.00,0.00,-2.65,-13.56,7.82,-24.17,-0.46,-0.75,12.85,36.28,-76.86,26.40,1261,1341,1307,1299,1308,1497,1509,11782,767
22894,0,-3.04,15.83,-5.35,0.160,0.022,0.972,0.00,0.00,-2.86,-13.85,0.19,-29.68,-0.48,-0.79,12.96,23.52,-64.92,26.35,1261,1341,1307,1299,1309,1497,1509,11774,767
22906,0,5.62,16.88,-5.37,-0.007,-0.023,1.068,0.00,0.00,-3.14,-13.90,-8.76,-30.78,-0.50,-0.84,13.08,11.87,-57.67,26.50,1261,1341,1307,1299,1309,1497,1509,11766,767
22918,0,12.81,14.76,-4.98,-0.117,-0.063,1.098,0.00,0.00,-3.51,-13.71,-16.32,-28.47,-0.53,-0.88,13.19,5.46,-52.48,25.64,1261,1341,1307,1299,1309,1497,1509,11745,767
22930,0,19.40,8.20,-4.43,-0.167,-0.093,1.085,0.00,0.00,-3.92,-13.32,-23.33,-21.52,-0.56,-0.90,13.29,-0.86,-44.23,24.37,1308,1334,1334,1260,1309,1497,1509,11770,719
22942,0,23.73,-7.82,-4.16,-0.158,-0.100,1.073,0.00,0.00,-4.38,-12.75,-28.11,-4.93,-0.60,-0.91,13.41,-4.60,5.21,23.82,1308,1334,1334,1260,1309,1497,1509,11786,719
22954,0,29.00,-8.40,-3.67,-0.190,-0.068,1.194,0.00,0.00,-5.01,-12.16,-34.01,-3.76,-0.64,-0.92,13.54,-8.32,3.06,22.71,1308,1334,1334,1260,1313,1497,1509,11786,719
22966,0,29.77,-32.19,-0.01,0.030,-0.063,0.976,0.00,0.00,-5.84,-11.55,-35.61,20.64,-0.69,-0.91,13.64,-0.89,80.39,13.66,1308,1334,1334,1260,1313,1497,1509,11782,719
22978,0,33.45,-29.00,0.54,0.136,-0.091,0.846,0.00,0.00,-6.65,-10.96,-40.09,18.03,-0.74,-0.87,13.71,-4.72,25.76,12.36,1308,1334,1334,1260,1313,1497,1509,11770,719
22990,0,38.05,-15.37,-0.32,0.184,-0.099,0.811,0.00,0.00,-7.38,-10.77,-45.43,4.60,-0.80,-0.87,13.80,-12.66,-1.40,14.60,1308,1334,1334,1260,1313,1497,1509,11761,719
23002,0,44.62,-1.03,-1.58,0.137,-0.081,1.008,0.00,0.00,-8.16,-10.67,-52.78,-9.64,-0.86,-0.87,13.91,-21.67,-44.31,17.86,1308,1334,1334,1260,1313,1497,1509,11741,719
23014,0,47.14,7.67,-3.07,0.068,-0.051,1.179,0.00,0.00,-9.00,-10.59,-56.14,-18.26,-0.92,-0.89,14.03,-22.30,-57.77,21.71,1308,1334,1334,1260,1313,1497,1509,11736,719
23026,0,45.68,3.94,-5.37,-0.036,-0.018,1.204,0.00,0.00,-9.90,-10.37,-55.59,-14.31,-0.99,-0.91,14.17,-15.67,-43.12,27.60,1258,1398,1282,1314,1313,1497,1509,11732,718
23038,0,37.17,-6.53,-7.46,-0.170,-0.071,1.114,0.00,0.00,-10.79,-10.06,-47.96,-3.53,-1.05,-0.94,14.36,3.70,25.69,33.00,1258,1398,1282,1314,1314,1497,1509,11741,718
23050,0,36.27,-11.17,-8.96,-0.287,-0.092,1.144,0.00,0.00,-11.72,-9.45,-47.99,1.72,-1.12,-0.96,14.56,6.61,38.60,36.96,1258,1398,1282,1314,1314,1497,1509,11745,718
23062,0,41.03,-16.42,-8.23,-0.231,-0.031,1.219,0.00,0.00,-12.72,-8.51,-53.76,7.91,-1.19,-0.93,14.72,-2.97,9.21,35.30,1258,1398,1282,1314,1314,1497,1509,11741,718
23074,0,44.72,-26.43,-7.31,-0.004,0.009,1.096,0.00,0.00,-13.76,-7.60,-58.48,18.83,-1.27,-0.88,14.86,-12.28,8.32,33.14,1258,1398,1282,1314,1315,1497,1509,11774,718
23086,0,40.56,-20.42,-6.62,0.035,-0.025,1.063,0.00,0.00,-14.67,-6.91,-55.23,13.51,-1.34,-0.81,15.00,-10.18,-35.69,31.54,1258,1398,1282,1314,1315,1497,1509,11782,718
23098,0,35.17,-32.16,-3.88,0.162,-0.113,0.894,0.00,0.00,-15.48,-6.55,-50.65,25.61,-1.41,-0.78,15.13,-3.52,47.66,24.83,1258,1398,1282,1314,1316,1497,1509,11741,718
23110,0,33.52,-18.70,-4.30,0.210,-0.162,0.942,0.00,0.00,-16.25,-6.43,-49.77,12.27,-1.48,-0.76,15.30,-2.08,17.04,26.04,1258,1398,1282,1314,1316,1497,1509,11732,718
23122,0,36.54,4.86,-6.13,0.064,-0.157,1.105,0.00,0.00,-16.98,-6.59,-53.53,-11.45,-1.54,-0.78,15.53,-12.82,-28.38,30.84,1258,1398,1282,1314,1316,1497,1509,11703,718
23134,0,38.15,3.78,-5.20,-0.174,-0.137,1.233,0.00,0.00,-17.63,-6.53,-55.78,-10.31,-1.61,-0.81,15.78,-20.42,3.85,28.79,1254,1416,1300,1294,1316,1497,1509,11741,720
23146,0,37.84,-18.40,-5.04,-0.133,-0.103,1.186,0.00,0.00,-18.20,-6.03,-56.04,12.37,-1.67,-0.82,16.01,-22.89,66.01,28.61,1254,1416,1300,1294,1316,1497,1509,11724,720
23158,0,30.58,-1.69,-8.55,-0.124,-0.011,1.260,0.00,0.00,-18.72,-5.63,-49.30,-3.94,-1.73,-0.82,16.27,-12.25,-13.66,37.65,1254,1416,1300,1294,1318,1497,1509,11757,720
23170,0,20.57,13.46,-11.06,-0.371,0.047,1.460,0.00,0.00,-19.20,-5.35,-39.77,-18.81,-1.78,-0.86,16.55,0.19,-45.25,44.21,1254,1416,1300,1294,1318,1498,1508,11757,720
23182,0,15.20,-25.03,-10.93,-0.294,0.040,1.273,0.00,0.00,-19.58,-4.42,-34.78,20.62,-1.83,-0.83,16.78,2.67,60.34,44.11,1254,1416,1300,1294,1318,1498,1508,11795,720
23194,0,8.64,-41.97,-9.50,-0.025,0.015,1.087,0.00,0.00,-19.81,-3.15,-28.45,38.82,-1.87,-0.73,16.96,7.51,36.57,40.70,1254,1416,1300,1294,1317,1498,1508,11774,720
23206,0,3.97,-31.34,-8.03,0.104,0.064,1.049,0.00,0.00,-20.00,-2.33,-23.97,29.01,-1.91,-0.64,17.11,10.62,-16.23,37.19,1254,1416,1300,1294,1317,1497,1508,11757,720
23218,0,0.45,-29.84,-6.75,0.229,0.042,0.971,0.00,0.00,-20.13,-1.95,-20.58,27.89,-1.94,-0.58,17.27,11.02,13.36,34.14,1254,1416,1300,1294,1317,1497,1508,11761,720
23230,0,-2.33,-35.81,-6.05,0.191,-0.055,0.930,0.00,0.00,-20.07,-1.55,-17.74,34.26,-1.97,-0.50,17.45,8.01,18.79,32.56,1283,1337,1371,1277,1317,1497,1509,11761,720
23242,0,-1.92,-32.80,-5.59,0.265,-0.135,0.845,0.00,0.00,-19.96,-1.46,-18.04,31.34,-2.01,-0.45,17.64,6.50,55.59,31.63,1283,1337,1371,1277,1317,1497,1509,11745,720
23254,0,2.13,-6.49,-6.09,0.148,-0.167,1.011,0.00,0.00,-19.94,-1.48,-22.07,5.01,-2.04,-0.42,17.84,0.87,-32.71,33.07,1283,1337,1371,1277,1317,1497,1509,11757,720
23266,0,11.36,0.43,-5.80,0.089,-0.131,1.073,0.00,0.00,-20.13,-1.66,-31.49,-2.08,-2.09,-0.42,18.05,-12.50,-15.67,32.55,1283,1337,1371,1277,1317,1497,1509,11770,720
23278,0,11.40,1.73,-5.96,-0.019,-0.146,1.102,0.00,0.00,-20.29,-1.70,-31.69,-3.43,-2.12,-0.43,18.23,-13.29,-10.69,33.13,1283,1337,1371,1277,1317,1497,1509,11724,720
23290,0,15.73,-0.58,-5.87,-0.056,-0.131,1.105,0.00,0.00,-20.43,-1.64,-36.16,-1.06,-2.16,-0.43,18.43,-23.07,6.34,33.11,1283,1337,1371,1277,1318,1497,1509,11736,720
23302,0,17.84,-1.07,-4.62,-0.070,-0.116,1.189,0.00,0.00,-20.51,-1.45,-38.36,-0.39,-2.20,-0.43,18.61,-29.28,-0.52,30.15,1283,1337,1371,1277,1318,1497,1509,11720,720
23314,0,16.37,-13.61,-2.97,-0.010,-0.170,1.114,0.00,0.00,-20.45,-1.14,-36.82,12.47,-2.24,-0.42,18.78,-28.63,30.79,26.22,1283,1337,1371,1277,1317,1497,1509,11736,720
23326,0,18.35,-12.30,-2.56,0.081,-0.179,1.021,0.00,0.00,-20.34,-0.91,-38.69,11.39,-2.27,-0.40,18.96,-31.80,18.63,25.35,1341,1355,1329,1243,1317,1497,1509,11724,721
23338,0,19.39,-2.88,-3.61,0.071,-0.135,1.109,0.00,0.00,-20.23,-0.81,-39.63,2.07,-2.31,-0.39,19.15,-33.93,-16.56,28.17,1341,1355,1329,1243,1318,1497,1509,11695,721
23350,0,19.69,0.47,-6.36,0.049,-0.039,1.201,0.00,0.00,-20.18,-0.70,-39.87,-1.18,-2.34,-0.37,19.36,-34.16,-33.68,35.26,1341,1355,1329,1243,1317,1497,1509,11703,721
23362,0,13.72,10.81,-8.61,-0.122,0.069,1.274,0.00,0.00,-20.21,-0.74,-33.93,-11.55,-2.38,-0.39,19.60,-20.80,-34.51,41.13,1341,1355,1329,1243,1317,1497,1509,11691,721
23374,0,2.90,11.32,-10.53,-0.375,0.102,1.375,0.00,0.00,-20.19,-0.50,-23.09,-11.82,-2.41,-0.41,19.84,-2.86,-22.49,46.16,1341,1355,1329,1243,1316,1497,1509,11707,721
23386,0,0.94,-23.92,-11.81,-0.252,0.091,1.223,0.00,0.00,-20.09,0.37,-21.02,24.29,-2.43,-0.37,20.08,-4.32,57.64,49.61,1341,1355,1329,1243,1316,1497,1509,11687,721
23398,0,-6.40,-24.58,-9.45,-0.141,0.091,1.162,0.00,0.00,-19.89,1.57,-13.49,26.14,-2.45,-0.27,20.26,7.44,-28.91,43.88,1341,1355,1329,1243,1316,1497,1509,11699,721
23410,0,-18.04,-44.88,-6.27,0.160,0.069,0.932,0.00,0.00,-19.66,2.47,-1.62,47.35,-2.47,-0.15,20.38,27.58,17.55,36.04,1341,1355,1329,1243,1316,1497,1509,11728,721
23422,0,-23.91,-32.88,-6.17,0.315,0.032,0.848,0.00,0.00,-19.27,2.76,4.63,35.64,-2.48,-0.06,20.52,30.32,-6.53,35.94,1341,1355,1329,1243,1316,1497,1509,11728,721
23434,0,-26.08,-19.02,-5.66,0.243,0.005,0.895,0.00,0.00,-18.86,2.84,7.21,21.86,-2.49,0.03,20.70,29.70,-44.04,34.85,1327,1325,1373,1239,1316,1497,1509,11699,787
23446,0,-26.40,-18.47,-6.13,0.244,-0.007,0.859,0.00,0.00,-18.45,2.83,7.95,21.29,-2.49,0.09,20.87,26.23,-23.68,36.20,1327,1325,1373,1239,1316,1498,1509,11711,787
23458,0,-28.85,-12.18,-7.90,0.212,0.002,0.889,0.00,0.00,-18.05,2.70,10.80,14.88,-2.50,0.14,21.07,29.00,-22.80,40.81,1327,1325,1373,1239,1316,1498,1509,11699,787
23470,0,-30.36,-8.28,-8.91,0.051,0.005,0.976,0.00,0.00,-17.67,2.72,12.69,11.00,-2.50,0.19,21.28,29.56,-24.77,43.56,1327,1325,1373,1239,1316,1498,1509,11687,787
23482,0,-31.98,-24.06,-8.84,-0.004,-0.054,0.975,0.00,0.00,-17.24,3.05,14.75,27.12,-2.51,0.24,21.51,30.37,44.14,43.61,1327,1325,1373,1239,1316,1498,1509,11687,787
23494,0,-29.29,-34.70,-7.71,0.170,-0.080,0.866,0.00,0.00,-16.76,3.50,12.53,38.20,-2.51,0.31,21.72,21.94,65.56,40.99,1327,1325,1373,1239,1316,1497,1509,11716,787
23506,0,-26.87,-27.42,-6.01,0.352,-0.067,0.817,0.00,0.00,-16.35,3.70,10.52,31.12,-2.51,0.40,21.91,15.21,-7.96,36.92,1327,1325,1373,1239,1316,1497,1509,11711,787
23518,0,-22.82,-5.75,-3.73,0.223,-0.027,0.893,0.00,0.00,-15.99,3.50,6.83,9.25,-2.50,0.46,22.09,3.00,-61.20,31.40,1327,1325,1373,1239,1316,1497,1509,11778,787
23530,0,-24.74,-16.87,-1.65,0.191,-0.061,0.769,0.00,0.00,-15.54,3.41,9.20,20.27,-2.50,0.51,22.25,2.12,-3.55,26.37,1274,1296,1424,1270,1316,1497,1509,11774,720
23542,0,-22.20,-23.94,-2.88,0.364,-0.120,0.672,0.00,0.00,-14.87,3.15,7.33,27.09,-2.49,0.57,22.47,-6.39,29.53,29.66,1274,1296,1424,1270,1316,1497,1509,11757,720
23554,0,-16.16,-12.06,-3.94,0.394,-0.101,0.715,0.00,0.00,-14.10,2.69,2.05,14.75,-2.48,0.61,22.69,-15.66,-3.71,32.53,1274,1296,1424,1270,1317,1497,1508,11707,720
23566,0,-15.91,-6.64,-4.54,0.414,-0.081,0.716,0.00,0.00,-13.39,2.08,2.53,8.72,-2.47,0.62,22.89,-10.40,2.62,34.24,1274,1296,1424,1270,1317,1497,1508,11670,720
23578,0,-17.52,8.39,-8.21,0.347,-0.055,0.871,0.00,0.00,-12.62,1.45,4.90,-6.94,-2.46,0.62,23.12,-9.16,-39.77,43.63,1274,1296,1424,1270,1317,1497,1508,11687,720
23590,0,-20.90,8.77,-9.27,0.232,-0.048,0.968,0.00,0.00,-11.84,0.93,9.06,-7.85,-2.44,0.61,23.37,-3.24,-27.34,46.54,1274,1296,1424,1270,1317,1497,1509,11657,720
23602,0,-22.97,11.82,-8.46,0.088,-0.038,1.045,0.00,0.00,-11.11,0.60,11.86,-11.22,-2.43,0.60,23.60,0.67,-32.52,44.75,1274,1296,1424,1270,1317,1497,1509,11691,720
23614,0,-25.64,8.55,-7.33,0.025,-0.037,1.056,0.00,0.00,-10.38,0.38,15.26,-8.17,-2.41,0.58,23.83,4.07,-16.33,42.15,1274,1296,1424,1270,1316,1497,1509,11687,720
23626,0,-29.70,5.08,-8.35,-0.087,-0.018,1.062,0.00,0.00,-9.64,0.28,20.06,-4.80,-2.39,0.56,24.07,8.85,11.17,44.95,1275,1341,1379,1269,1316,1497,1509,11736,742
23638,0,-29.19,7.36,-9.10,-0.233,0.018,1.186,0.00,0.00,-8.86,0.79,20.33,-6.57,-2.37,0.59,24.26,5.49,-56.56,47.01,1275,1341,1379,1269,1317,1497,1509,11766,742
23650,0,-35.60,-12.06,-7.98,-0.139,0.063,1.126,0.00,0.00,-8.03,1.47,27.57,13.53,-2.34,0.65,24.43,18.13,-23.45,44.39,1275,1341,1379,1269,1319,1497,1509,11741,742
23662,0,-43.54,-19.08,-7.31,-0.117,0.107,1.139,0.00,0.00,-7.25,2.07,36.30,21.15,-2.31,0.71,24.60,34.58,5.57,42.87,1275,1341,1379,1269,1319,1497,1509,11711,742
23674,0,-51.65,-26.86,-5.92,-0.054,0.110,1.084,0.00,0.00,-6.53,2.74,45.12,29.60,-2.28,0.77,24.74,51.73,31.37,39.53,1275,1341,1379,1269,1319,1497,1509,11720,742
23686,0,-56.58,-17.33,-5.22,-0.036,0.086,1.080,0.00,0.00,-5.78,3.36,50.80,20.70,-2.25,0.84,24.85,56.77,-16.17,37.90,1275,1341,1379,1269,1319,1497,1509,11720,742
23698,0,-56.75,-8.23,-4.89,-0.081,0.040,1.085,0.00,0.00,-4.94,3.74,51.81,11.98,-2.21,0.88,24.99,50.07,-23.74,37.22,1275,1341,1379,1269,1316,1497,1509,11682,742
23710,0,-57.10,-9.88,-4.37,-0.063,-0.008,1.025,0.00,0.00,-4.08,4.12,53.02,14.00,-2.17,0.93,25.12,47.58,-10.36,36.05,1275,1341,1379,1269,1316,1497,1509,11687,742
23722,0,-57.18,-4.79,-5.53,-0.032,-0.072,1.015,0.00,0.00,-3.18,4.39,54.01,9.18,-2.12,0.97,25.25,46.06,-23.07,39.08,1275,1341,1379,1269,1316,1497,1509,11682,742
23734,0,-55.77,3.66,-5.95,-0.086,-0.103,1.046,0.00,0.00,-2.28,4.45,53.49,0.80,-2.08,0.98,25.40,43.16,-27.82,40.28,1335,1379,1327,1223,1316,1497,1509,11674,720
23746,0,-55.70,7.78,-6.66,-0.169,-0.140,1.100,0.00,0.00,-1.39,4.32,54.31,-3.46,-2.04,0.96,25.57,43.19,7.76,42.22,1335,1379,1327,1223,1316,1497,1509,11670,720
23758,0,-51.68,0.83,-6.68,-0.171,-0.165,1.096,0.00,0.00,-0.58,4.37,51.11,3.55,-2.00,0.95,25.73,35.28,42.79,42.44,1335,1379,1327,1223,1316,1497,1509,11674,720
23770,0,-45.10,-6.45,-5.35,0.057,-0.223,0.965,0.00,0.00,0.24,4.56,45.35,11.01,-1.96,0.98,25.86,21.40,23.81,39.24,1335,1379,1327,1223,1317,1497,1509,11687,720
23782,0,-37.61,7.28,-3.55,0.198,-0.229,0.859,0.00,0.00,0.99,4.29,38.60,-3.00,-1.92,1.01,25.99,8.97,-53.68,34.86,1335,1379,1327,1223,1317,1497,1509,11682,720
23794,0,-35.19,18.04,-3.02,0.196,-0.186,0.850,0.00,0.00,1.60,3.53,36.79,-14.52,-1.88,1.01,26.11,7.23,-63.20,33.66,1335,1379,1327,1223,1317,1497,1509,11687,720
23806,0,-33.33,21.77,-4.99,0.158,-0.147,0.950,0.00,0.00,2.14,2.58,35.47,-19.19,-1.84,0.97,26.30,4.51,-32.20,38.78,1335,1379,1327,1223,1317,1497,1509,11703,720
23818,0,-31.08,18.08,-4.92,0.063,-0.102,0.980,0.00,0.00,2.61,1.74,33.69,-16.34,-1.80,0.93,26.51,2.95,8.46,38.80,1335,1379,1327,1223,1317,1497,1509,11728,720
23830,0,-32.30,14.55,-5.49,0.010,-0.091,0.955,0.00,0.00,3.02,1.09,35.32,-13.45,-1.77,0.87,26.72,8.65,28.08,40.45,1205,1353,1371,1339,1317,1497,1509,11670,721
23842,0,-33.09,12.22,-7.27,0.064,-0.109,0.969,0.00,0.00,3.46,0.53,36.55,-11.68,-1.73,0.83,26.95,9.43,31.79,45.13,1205,1353,1371,1339,1317,1497,1509,11670,721
23854,0,-29.59,17.61,-8.38,0.117,-0.126,0.985,0.00,0.00,3.88,-0.09,33.48,-17.69,-1.69,0.79,27.18,1.40,-6.83,48.13,1205,1353,1371,1339,1317,1497,1509,11678,721
23866,0,-25.97,25.52,-7.28,0.013,-0.180,1.014,0.00,0.00,4.33,-0.86,30.30,-26.38,-1.65,0.72,27.41,-7.33,-15.61,45.62,1205,1353,1371,1339,1317,1497,1509,11687,721
23878,0,-21.89,16.34,-6.53,-0.050,-0.209,0.988,0.00,0.00,4.82,-1.48,26.71,-17.83,-1.61,0.65,27.64,-17.45,36.52,43.97,1205,1353,1371,1339,1317,1497,1508,11682,721
23890,0,-17.02,12.64,-8.01,-0.010,-0.197,0.998,0.00,0.00,5.37,-2.03,22.39,-14.67,-1.57,0.57,27.89,-30.25,57.66,47.92,1205,1353,1371,1339,1317,1497,1508,11670,721
23902,0,-13.28,26.16,-9.51,-0.148,-0.152,1.177,0.00,0.00,5.89,-2.45,19.16,-28.60,-1.52,0.51,28.15,-37.26,-12.68,51.93,1205,1353,1371,1339,1317,1497,1508,11699,721
23914,0,-15.15,19.00,-7.19,-0.272,-0.090,1.244,0.00,0.00,6.45,-2.73,21.60,-21.72,-1.48,0.44,28.38,-33.88,22.80,46.35,1205,1353,1371,1339,1316,1497,1509,11720,721
23926,0,-23.71,-10.25,-4.59,-0.073,-0.057,1.054,0.00,0.00,7.05,-2.70,30.76,7.56,-1.43,0.40,28.58,-17.09,106.41,40.05,1399,1267,1445,1153,1316,1497,1509,11724,721
23938,0,-30.41,-2.89,-5.74,0.143,-0.035,1.006,0.00,0.00,7.65,-2.72,38.06,0.17,-1.38,0.39,28.77,-4.17,33.28,43.12,1399,1267,1445,1153,1316,1497,1509,11699,721
23950,0,-34.94,10.80,-6.09,0.162,-0.051,1.044,0.00,0.00,8.27,-2.94,43.21,-13.74,-1.32,0.38,28.96,0.71,-38.17,44.18,1399,1267,1445,1153,1316,1497,1509,11699,721
23962,0,-36.57,-1.52,-3.47,0.242,-0.117,0.879,0.00,0.00,8.90,-3.22,45.47,-1.70,-1.27,0.38,29.12,0.35,-8.62,37.79,1399,1267,1445,1153,1316,1497,1509,11695,721
23974,0,-35.81,-11.02,-3.74,0.426,-0.147,0.703,0.00,0.00,9.57,-3.79,45.38,7.23,-1.21,0.39,29.28,-2.93,20.89,38.64,1399,1267,1445,1153,1316,1497,1509,11699,721
23986,0,-33.86,13.00,-7.32,0.385,-0.125,0.824,0.00,0.00,10.29,-4.66,44.15,-17.66,-1.15,0.36,29.50,-8.12,-40.17,47.79,1399,1267,1445,1153,1316,1497,1509,11691,721
23998,0,-31.13,23.43,-7.62,0.208,-0.074,0.957,0.00,0.00,10.98,-5.49,42.11,-28.93,-1.09,0.32,29.72,-11.74,-60.13,48.77,1399,1267,1445,1153,1316,1497,1509,11703,721
24010,0,-34.19,21.41,-6.83,0.076,-0.029,1.021,0.00,0.00,11.66,-6.21,45.86,-27.62,-1.03,0.26,29.95,-3.52,-26.76,47.02,1399,1267,1445,1153,1316,1497,1509,11707,721
24022,0,-41.59,10.82,-7.29,0.076,-0.032,1.047,0.00,0.00,12.35,-6.78,53.95,-17.59,-0.96,0.19,30.19,13.56,32.73,48.42,1399,1267,1445,1153,1316,1497,1509,11707,721
24034,0,-44.27,5.78,-7.49,0.026,-0.077,1.086,0.00,0.00,13.06,-7.05,57.33,-12.83,-0.90,0.14,30.44,20.02,34.86,49.17,1276,1382,1340,1266,1316,1497,1509,11703,782
24046,0,-41.72,-6.57,-5.83,0.066,-0.108,1.022,0.00,0.00,13.76,-7.16,55.48,-0.59,-0.84,0.11,30.68,16.28,64.67,45.25,1276,1382,1340,1266,1316,1497,1509,11695,782
24058,0,-43.47,-6.08,-5.06,0.138,-0.085,0.971,0.00,0.00,14.43,-7.19,57.90,-1.11,-0.78,0.10,30.90,20.60,26.10,43.55,1276,1382,1340,1266,1322,1497,1509,11670,782
24070,0,-48.72,-3.20,-6.81,0.245,-0.096,0.957,0.00,0.00,15.11,-7.42,63.84,-4.22,-0.71,0.08,31.11,31.36,8.64,48.15,1276,1382,1340,1266,1324,1497,1509,11641,782
24082,0,-48.19,3.07,-7.99,0.262,-0.099,0.949,0.00,0.00,15.79,-7.85,63.98,-10.92,-0.65,0.07,31.34,31.09,-19.86,51.31,1276,1382,1340,1266,1324,1497,1509,11666,782
24094,0,-50.88,9.29,-9.49,0.211,-0.092,0.951,0.00,0.00,16.43,-8.52,67.32,-17.82,-0.59,0.02,31.60,38.83,-6.42,55.32,1276,1382,1340,1266,1324,1497,1509,11628,782
24106,0,-52.40,21.25,-11.46,0.023,-0.075,1.075,0.00,0.00,17.00,-9.08,69.40,-30.33,-0.53,-0.06,31.87,45.03,-2.50,60.52,1276,1382,1340,1266,1324,1497,1509,11637,782
24118,0,-48.57,23.78,-10.99,-0.095,-0.077,1.154,0.00,0.00,17.58,-9.23,66.15,-33.01,-0.46,-0.12,32.13,35.29,-31.46,59.61,1276,1382,1340,1266,1316,1497,1509,11612,782
24130,0,-51.45,23.96,-8.78,-0.145,-0.028,1.164,0.00,0.00,18.16,-9.32,69.61,-33.29,-0.40,-0.18,32.40,40.55,-37.25,54.36,1170,1394,1354,1346,1316,1497,1509,11616,720
24142,0,-59.50,21.48,-8.48,-0.075,-0.001,1.114,0.00,0.00,18.72,-9.40,78.22,-30.89,-0.33,-0.23,32.62,56.68,-40.10,53.84,1170,1394,1354,1346,1316,1497,1509,11624,720
24154,0,-63.54,25.10,-8.83,-0.205,0.016,1.156,0.00,0.00,19.31,-9.59,82.85,-34.69,-0.25,-0.30,32.88,65.29,-32.73,54.96,1170,1394,1354,1346,1316,1497,1509,11645,720
24166,0,-68.10,20.41,-9.63,-0.256,0.004,1.156,0.00,0.00,19.91,-9.76,88.01,-30.16,-0.18,-0.39,33.17,74.44,11.86,57.24,1170,1394,1354,1346,1316,1497,1509,11666,720
24178,0,-70.17,21.77,-11.98,-0.195,-0.000,1.162,0.00,0.00,20.54,-9.74,90.71,-31.51,-0.11,-0.46,33.47,77.26,-10.14,63.41,1170,1394,1354,1346,1317,1497,1509,11666,720
24190,0,-68.42,29.04,-12.04,-0.145,-0.022,1.194,0.00,0.00,21.18,-9.67,89.60,-38.70,-0.03,-0.51,33.75,69.77,-78.39,63.84,1170,1394,1354,1346,1317,1498,1508,11699,720
24202,0,-66.67,19.28,-10.05,-0.034,-0.038,1.093,0.00,0.00,21.77,-9.85,88.45,-29.12,0.05,-0.56,34.02,65.26,-35.73,59.15,1170,1394,1354,1346,1317,1498,1508,11682,720
24214,0,-63.43,8.10,-10.28,0.185,-0.022,0.916,0.00,0.00,22.30,-10.15,85.74,-18.25,0.12,-0.61,34.26,59.91,4.59,59.96,1170,1394,1354,1346,1317,1498,1508,11653,720
24226,0,-59.19,12.88,-11.58,0.342,0.004,0.834,0.00,0.00,22.88,-10.71,82.07,-23.58,0.20,-0.65,34.49,50.94,-38.10,63.43,1166,1368,1392,1342,1317,1497,1508,11657,742
24238,0,-57.70,13.58,-12.07,0.472,0.018,0.765,0.00,0.00,23.52,-11.68,81.22,-25.26,0.28,-0.68,34.76,48.65,-50.98,64.94,1166,1368,1392,1342,1318,1497,1508,11657,742
24250,0,-59.08,15.60,-12.29,0.458,0.056,0.766,0.00,0.00,24.06,-12.94,83.14,-28.54,0.36,-0.75,35.03,57.07,-25.20,65.77,1166,1368,1392,1342,1318,1497,1509,11653,742
24262,0,-58.88,30.94,-11.81,0.291,0.069,0.917,0.00,0.00,24.60,-14.13,83.48,-45.07,0.44,-0.86,35.32,59.39,-35.66,64.84,1166,1368,1392,1342,1318,1497,1509,11687,742
24274,0,-52.88,35.02,-10.07,0.229,0.098,0.973,0.00,0.00,25.13,-15.20,78.01,-50.22,0.52,-0.98,35.64,48.75,-24.45,60.82,1166,1368,1392,1342,1318,1497,1509,11687,742
24286,0,-49.31,44.40,-11.08,0.170,0.115,1.060,0.00,0.00,25.66,-16.15,74.97,-60.55,0.59,-1.11,35.95,43.30,-50.26,63.66,1166,1368,1392,1342,1318,1497,1509,11695,742
24298,0,-47.53,46.72,-12.26,0.040,0.111,1.123,0.00,0.00,26.22,-16.89,73.75,-63.61,0.67,-1.24,36.26,42.25,-70.12,66.92,1166,1368,1392,1342,1318,1497,1509,11703,742
24310,0,-50.52,14.38,-12.08,0.120,0.121,1.036,0.00,0.00,26.45,-17.26,76.97,-31.64,0.74,-1.32,36.59,62.83,18.95,66.80,1166,1368,1392,1342,1317,1497,1509,11674,742
24322,0,-44.11,14.78,-11.93,0.283,0.138,0.946,0.00,0.00,26.68,-17.45,70.79,-32.23,0.80,-1.37,36.85,53.08,-49.67,66.67,1166,1368,1392,1342,1317,1497,1509,11666,742
24334,0,-36.83,7.06,-9.46,0.370,0.131,0.874,0.00,0.00,27.07,-17.83,63.90,-24.90,0.87,-1.40,37.09,35.59,-62.56,60.75,1265,1295,1445,1263,1317,1497,1509,11674,720
24346,0,-28.81,-22.07,-5.44,0.519,0.142,0.652,0.00,0.00,27.40,-18.29,56.22,3.78,0.94,-1.41,37.36,21.36,45.82,50.95,1265,1295,1445,1263,1317,1497,1509,11670,720
24358,0,-21.70,-18.76,-4.44,0.671,0.163,0.619,0.00,0.00,27.62,-18.94,49.32,-0.17,1.00,-1.44,37.61,12.33,42.13,48.72,1265,1295,1445,1263,1317,1497,1509,11678,720
24370,0,-11.57,-12.19,-3.82,0.646,0.160,0.547,0.00,0.00,27.79,-19.73,39.36,-7.54,1.06,-1.46,37.78,-4.67,7.37,47.33,1265,1295,1445,1263,1317,1497,1509,11653,720
24382,0,-11.54,-16.19,-5.91,0.802,0.028,0.455,0.00,0.00,28.17,-20.92,39.71,-4.73,1.12,-1.49,38.00,-5.29,23.33,52.78,1265,1295,1445,1263,1317,1497,1509,11687,720
24394,0,-5.93,1.35,-8.12,0.742,-0.064,0.513,0.00,0.00,28.45,-22.41,34.38,-23.76,1.17,-1.57,38.26,-10.53,4.93,58.57,1265,1295,1445,1263,1317,1497,1509,11687,720
24406,0,1.98,2.88,-6.97,0.671,-0.105,0.472,0.00,0.00,28.61,-23.86,26.63,-26.74,1.22,-1.65,38.50,-21.48,17.27,55.92,1265,1295,1445,1263,1317,1497,1509,11699,720
24418,0,3.21,5.76,-7.97,0.654,-0.098,0.522,0.00,0.00,28.63,-25.22,25.42,-30.98,1.26,-1.73,38.74,-17.65,2.68,58.68,1265,1295,1445,1263,1317,1497,1509,11670,720
24430,0,2.83,12.95,-6.19,0.525,-0.059,0.632,0.00,0.00,28.46,-26.48,25.63,-39.43,1.30,-1.81,38.94,-10.58,-39.34,54.42,1165,1411,1339,1353,1316,1497,1509,11670,736
24442,0,-6.20,6.29,-5.08,0.585,-0.093,0.563,0.00,0.00,28.18,-27.81,34.38,-34.10,1.34,-1.90,39.14,16.42,8.85,51.84,1165,1411,1339,1353,1316,1497,1509,11653,736
24454,0,-6.89,16.95,-7.82,0.583,-0.132,0.664,0.00,0.00,27.82,-29.14,34.71,-46.09,1.37,-2.00,39.37,23.95,-26.51,58.92,1165,1411,1339,1353,1316,1497,1509,11682,736
24466,0,-6.72,21.27,-8.12,0.495,-0.180,0.776,0.00,0.00,27.45,-30.25,34.17,-51.51,1.39,-2.09,39.59,26.60,-72.76,59.89,1165,1411,1339,1353,1316,1497,1509,11666,736
24478,0,-5.06,-0.64,-7.37,0.591,-0.195,0.614,0.00,0.00,26.97,-31.21,32.03,-30.57,1.42,-2.15,39.80,28.56,-13.39,58.22,1165,1411,1339,1353,1316,1497,1509,11653,736
24490,0,-1.32,-4.80,-8.44,0.679,-0.153,0.557,0.00,0.00,26.43,-32.07,27.75,-27.27,1.44,-2.21,39.99,24.97,-24.74,61.08,1165,1411,1339,1353,1317,1497,1509,11670,736
24502,0,-1.33,2.06,-10.07,0.659,-0.088,0.604,0.00,0.00,25.98,-32.93,27.31,-34.99,1.46,-2.25,40.18,25.87,-78.56,65.37,1165,1411,1339,1353,1317,1497,1509,11678,736
24514,0,-7.74,-17.19,-8.52,0.717,-0.031,0.540,0.00,0.00,25.60,-33.84,33.34,-16.65,1.48,-2.29,40.39,39.00,3.82,61.68,1165,1411,1339,1353,1317,1497,1509,11682,736
24526,0,-9.47,-16.61,-8.09,0.748,-0.017,0.532,0.00,0.00,25.22,-34.66,34.69,-18.05,1.50,-2.36,40.60,43.57,22.68,60.82,1236,1312,1442,1278,1317,1496,1509,11670,723
24538,0,-2.63,-3.88,-8.10,0.701,-0.044,0.612,0.00,0.00,24.99,-35.35,27.62,-31.47,1.53,-2.42,40.79,26.85,-45.45,61.04,1236,1312,1442,1278,1318,1496,1509,11603,723
24550,0,5.65,-31.31,-5.80,0.774,-0.055,0.468,0.00,0.00,24.93,-35.92,19.28,-4.61,1.55,-2.44,40.98,2.85,24.22,55.50,1236,1312,1442,1278,1318,1496,1509,11632,723
24562,0,14.71,-27.11,-6.94,0.786,-0.004,0.515,0.00,0.00,24.67,-36.55,9.96,-9.44,1.58,-2.49,41.21,-16.41,27.97,58.55,1236,1312,1442,1278,1318,1496,1509,11682,723
24574,0,23.70,-0.23,-7.65,0.530,0.122,0.744,0.00,0.00,24.24,-36.99,0.54,-36.77,1.60,-2.56,41.42,-35.10,-48.79,60.54,1236,1312,1442,1278,1317,1497,1509,11674,723
24586,0,24.29,-2.36,-7.62,0.408,0.177,0.860,0.00,0.00,23.84,-37.18,-0.45,-34.81,1.62,-2.64,41.64,-39.14,-36.41,60.68,1236,1312,1442,1278,1317,1497,1509,11653,723
24598,0,21.55,-20.21,-6.87,0.350,0.173,0.932,0.00,0.00,23.40,-37.14,1.84,-16.93,1.65,-2.71,41.87,-33.55,49.44,59.05,1236,1312,1442,1278,1316,1497,1509,11662,723
24610,0,20.07,-26.73,-5.22,0.408,0.150,0.922,0.00,0.00,22.92,-36.89,2.85,-10.17,1.68,-2.78,42.08,-31.15,68.26,55.12,1236,1312,1442,1278,1316,1497,1509,11637,723
24622,0,21.86,-19.07,-3.90,0.298,0.130,0.960,0.00,0.00,22.44,-36.46,0.58,-17.39,1.70,-2.82,42.25,-38.29,-9.35,52.00,1236,1312,1442,1278,1316,1497,1509,11632,723
24634,0,17.90,-47.26,-2.07,0.381,0.030,0.810,0.00,0.00,22.02,-35.75,4.12,11.51,1.73,-2.81,42.39,-34.68,51.15,47.57,1246,1328,1418,1272,1317,1497,1509,11632,721
24646,0,20.84,-38.45,-5.47,0.428,-0.045,0.793,0.00,0.00,21.70,-35.22,0.86,3.23,1.76,-2.81,42.59,-42.70,15.69,56.27,1246,1328,1418,1272,1317,1497,1509,11670,721
24658,0,19.91,-27.73,-6.33,0.265,-0.049,0.842,0.00,0.00,21.44,-34.57,1.53,-6.84,1.79,-2.81,42.78,-40.39,-35.24,58.60,1246,1328,1418,1272,1317,1497,1509,11645,721
24670,0,9.96,-39.36,-5.61,0.227,-0.065,0.813,0.00,0.00,21.32,-33.80,11.36,5.56,1.82,-2.79,42.94,-21.21,-7.93,56.96,1246,1328,1418,1272,1317,1497,1509,11645,721
24682,0,0.23,-55.80,-5.00,0.329,-0.104,0.708,0.00,0.00,21.27,-33.03,21.04,22.77,1.85,-2.76,43.09,-0.63,54.96,55.60,1246,1328,1418,1272,1317,1497,1509,11653,721
24694,0,-1.46,-57.09,-3.73,0.487,-0.178,0.581,0.00,0.00,21.33,-32.44,22.79,24.65,1.88,-2.71,43.23,4.04,28.99,52.56,1246,1328,1418,1272,1317,1497,1509,11687,721
24706,0,0.74,-40.59,-2.25,0.537,-0.162,0.552,0.00,0.00,21.31,-32.29,20.57,8.29,1.90,-2.68,43.37,4.46,-26.54,48.98,1246,1328,1418,1272,1317,1497,1509,11682,721
24718,0,-2.00,-20.38,-4.23,0.477,-0.150,0.711,0.00,0.00,21.17,-32.45,23.17,-12.07,1.92,-2.69,43.51,14.80,-52.30,54.09,1246,1328,1418,1272,1317,1497,1509,11678,721
24730,0,-1.61,-24.90,-5.10,0.399,-0.142,0.783,0.00,0.00,20.99,-32.46,22.60,-7.57,1.94,-2.70,43.65,18.10,-22.90,56.41,1245,1355,1389,1279,1317,1497,1509,11678,721
24742,0,-3.52,-33.87,-5.68,0.430,-0.135,0.746,0.00,0.00,20.74,-32.41,24.26,1.45,1.96,-2.71,43.82,25.29,17.39,58.01,1245,1355,1389,1279,1317,1497,1509,11691,721
24754,0,-1.19,-31.38,-6.35,0.387,-0.065,0.748,0.00,0.00,20.29,-32.11,21.48,-0.73,1.97,-2.72,43.95,24.31,8.73,59.81,1245,1355,1389,1279,1316,1497,1509,11653,721
24766,0,2.72,-19.61,-6.17,0.369,-0.053,0.828,0.00,0.00,19.84,-31.68,17.13,-12.08,1.98,-2.70,44.04,14.43,-74.89,59.47,1245,1355,1389,1279,1316,1497,1509,11670,721
24778,0,2.72,-18.95,-4.00,0.282,0.007,0.835,0.00,0.00,19.38,-31.39,16.66,-12.44,2.00,-2.70,44.15,15.10,-61.21,54.14,1245,1355,1389,1279,1317,1497,1509,11662,721
24790,0,-1.68,-21.56,-3.65,0.223,0.032,0.865,0.00,0.00,18.86,-31.05,20.54,-9.48,2.01,-2.72,44.25,28.19,-19.10,53.37,1245,1355,1389,1279,1317,1497,1509,11657,721
24802,0,-1.78,-11.80,-4.17,0.044,0.087,0.974,0.00,0.00,18.31,-30.58,20.08,-18.77,2.02,-2.76,44.37,32.66,-29.63,54.80,1245,1355,1389,1279,1317,1497,1509,11649,721
24814,0,-2.24,-11.00,-5.08,-0.054,0.124,1.061,0.00,0.00,17.71,-29.85,19.95,-18.85,2.03,-2.79,44.50,36.73,-31.28,57.19,1245,1355,1389,1279,1317,1497,1509,11637,721
24826,0,-2.50,-25.28,-5.68,0.052,0.120,0.995,0.00,0.00,17.06,-28.82,19.55,-3.55,2.04,-2.79,44.61,39.80,-19.94,58.81,1201,1355,1395,1317,1317,1497,1509,11670,740
24838,0,-0.51,-29.77,-4.78,0.119,0.145,0.904,0.00,0.00,16.32,-27.85,16.83,1.92,2.04,-2.77,44.70,37.02,-32.52,56.66,1201,1355,1395,1317,1317,1497,1509,11670,740
24850,0,7.68,-26.64,-4.37,0.179,0.178,0.911,0.00,0.00,15.57,-27.08,7.89,-0.44,2.04,-2.76,44.80,20.14,-30.69,55.73,1201,1355,1395,1317,1317,1497,1509,11662,740
24862,0,13.06,-27.73,-4.12,0.290,0.186,0.868,0.00,0.00,14.90,-26.38,1.85,1.35,2.04,-2.74,44.90,9.20,-31.47,55.20,1201,1355,1395,1317,1317,1497,1509,11707,740
24874,0,14.59,-38.82,-3.20,0.306,0.163,0.800,0.00,0.00,14.45,-25.66,-0.13,13.16,2.05,-2.69,44.98,5.28,-17.29,52.98,1201,1355,1395,1317,1317,1497,1509,11687,740
24886,0,19.07,-40.33,-2.83,0.285,0.177,0.783,0.00,0.00,14.06,-25.04,-5.01,15.29,2.05,-2.66,45.11,-3.61,6.25,52.18,1201,1355,1395,1317,1317,1497,1509,11687,740
24898,0,22.73,-30.38,-3.65,0.141,0.205,0.934,0.00,0.00,13.53,-24.47,-9.20,5.91,2.04,-2.67,45.29,-7.48,19.39,54.42,1201,1355,1395,1317,1318,1497,1509,11691,740
24910,0,29.55,-15.69,-4.14,-0.082,0.202,1.120,0.00,0.00,12.89,-23.76,-16.66,-8.07,2.04,-2.71,45.45,-17.63,-4.60,55.79,1201,1355,1395,1317,1317,1497,1509,11670,740
24922,0,37.90,-19.15,-2.85,-0.164,0.127,1.140,0.00,0.00,12.21,-22.84,-25.69,-3.69,2.02,-2.72,45.60,-33.83,6.66,52.72,1201,1355,1395,1317,1317,1497,1509,11637,740
24934,0,42.92,-34.02,-2.47,-0.035,0.053,1.016,0.00,0.00,11.49,-21.91,-31.43,12.12,2.01,-2.73,45.76,-42.32,54.91,51.94,1164,1404,1358,1342,1317,1497,1509,11620,720
24946,0,46.50,-20.20,-4.85,-0.074,0.027,1.105,0.00,0.00,10.73,-21.15,-35.77,-0.96,1.99,-2.75,45.95,-45.93,11.87,58.06,1164,1404,1358,1342,1317,1497,1509,11632,720
24958,0,42.39,-14.59,-4.88,-0.190,0.010,1.169,0.00,0.00,10.03,-20.30,-32.36,-5.71,1.97,-2.76,46.11,-36.44,-13.37,58.31,1164,1404,1358,1342,1317,1497,1509,11687,720
24970,0,32.52,-26.66,-3.95,-0.158,-0.036,1.082,0.00,0.00,9.42,-19.41,-23.10,7.25,1.96,-2.76,46.26,-17.05,28.31,56.13,1164,1404,1358,1342,1317,1497,1509,11674,720
24982,0,29.81,-24.54,-4.59,-0.046,-0.062,1.107,0.00,0.00,8.81,-18.62,-21.00,5.93,1.94,-2.76,46.42,-8.76,31.26,57.91,1164,1404,1358,1342,1317,1497,1509,11657,720
24994,0,29.31,-20.96,-3.74,-0.170,-0.100,1.158,0.00,0.00,8.16,-17.84,-21.15,3.12,1.92,-2.77,46.58,-8.75,12.43,55.94,1164,1404,1358,1342,1317,1497,1509,11670,720
25006,0,27.02,-21.74,-4.23,-0.195,-0.131,1.164,0.00,0.00,7.49,-17.15,-19.53,4.59,1.89,-2.78,46.76,-6.19,37.43,57.33,1164,1404,1358,1342,1317,1497,1509,11657,720
25018,0,26.22,-3.43,-7.17,-0.260,-0.082,1.332,0.00,0.00,6.76,-16.73,-19.46,-13.30,1.87,-2.83,46.97,-4.81,2.81,64.90,1164,1404,1358,1342,1317,1497,1509,11699,720
25030,0,25.22,-1.48,-7.93,-0.252,-0.022,1.374,0.00,0.00,6.02,-16.27,-19.20,-14.79,1.84,-2.87,47.18,-2.85,-4.55,67.00,1199,1407,1357,1305,1317,1497,1509,11691,720
25042,0,20.21,-14.31,-6.96,-0.097,-0.006,1.226,0.00,0.00,5.35,-15.71,-14.86,-1.40,1.82,-2.87,47.37,6.15,14.19,64.78,1199,1407,1357,1305,1317,1497,1509,11687,720
25054,0,10.05,-33.34,-6.08,0.108,-0.010,1.005,0.00,0.00,4.76,-15.09,-5.30,18.24,1.80,-2.85,47.54,25.27,57.31,62.74,1199,1407,1357,1305,1317,1497,1509,11687,720
25066,0,3.93,-24.85,-6.91,0.183,-0.060,0.966,0.00,0.00,4.30,-14.48,0.37,10.37,1.78,-2.81,47.71,33.06,-19.42,64.99,1199,1407,1357,1305,1317,1497,1509,11657,720
25078,0,5.83,-13.41,-6.57,0.058,-0.072,0.983,0.00,0.00,3.87,-13.98,-1.96,-0.57,1.77,-2.78,47.90,25.85,-60.68,64.32,1199,1407,1357,1305,1317,1497,1509,11620,720
25090,0,6.55,-19.70,-6.91,0.079,-0.099,0.894,0.00,0.00,3.43,-13.45,-3.12,6.24,1.75,-2.75,48.10,24.13,-27.75,65.37,1199,1407,1357,1305,1317,1497,1509,11591,720
25102,0,11.70,6.02,-9.62,-0.112,-0.051,1.080,0.00,0.00,2.95,-13.05,-8.75,-19.07,1.73,-2.77,48.32,15.48,-79.36,72.38,1199,1407,1357,1305,1317,1497,1509,11591,720
25114,0,14.36,7.89,-10.81,-0.137,0.003,1.145,0.00,0.00,2.44,-12.66,-11.92,-20.56,1.70,-2.79,48.55,12.40,-57.54,75.57,1199,1407,1357,1305,1317,1497,1509,11574,720
25126,0,13.11,1.83,-10.36,-0.048,0.029,1.103,0.00,0.00,1.92,-12.41,-11.18,-14.24,1.68,-2.82,48.78,18.93,-21.68,74.69,1204,1394,1388,1282,1317,1497,1509,11566,720
25138,0,10.47,-2.21,-8.81,0.008,0.019,1.095,0.00,0.00,1.40,-12.25,-9.07,-10.04,1.65,-2.85,48.98,29.18,2.44,71.00,1204,1394,1388,1282,1317,1497,1509,11616,720
25150,0,16.98,-3.14,-6.76,0.100,0.015,1.057,0.00,0.00,0.89,-12.19,-16.09,-9.05,1.62,-2.87,49.18,15.44,1.54,66.07,1204,1394,1388,1282,1317,1497,1509,11632,720
25162,0,23.80,-9.74,-5.99,0.148,0.003,1.022,0.00,0.00,0.38,-12.01,-23.43,-2.27,1.59,-2.88,49.38,0.35,1.78,64.37,1204,1394,1388,1282,1317,1497,1509,11616,720
25174,0,24.52,-15.03,-6.39,0.164,-0.004,1.051,0.00,0.00,-0.10,-11.78,-24.63,3.25,1.56,-2.87,49.58,-2.28,-2.94,65.55,1204,1394,1388,1282,1317,1497,1509,11645,720
25186,0,29.68,-5.73,-7.29,0.026,0.086,1.147,0.00,0.00,-0.69,-11.60,-30.37,-5.87,1.53,-2.88,49.79,-12.36,-11.78,68.02,1204,1394,1388,1282,1317,1497,1509,11662,720
25198,0,32.17,4.07,-8.68,-0.067,0.137,1.288,0.00,0.00,-1.23,-11.36,-33.40,-15.43,1.50,-2.90,50.02,-20.94,-47.19,71.72,1204,1394,1388,1282,1318,1497,1509,11649,720
25210,0,29.44,-1.50,-6.51,-0.099,0.141,1.296,0.00,0.00,-1.81,-11.10,-31.24,-9.60,1.48,-2.93,50.24,-16.52,-4.93,66.50,1204,1394,1388,1282,1318,1497,1509,11657,720
25222,0,29.32,1.16,-4.50,-0.075,0.113,1.245,0.00,0.00,-2.39,-10.90,-31.71,-12.05,1.45,-2.97,50.43,-18.50,-3.12,61.69,1204,1394,1388,1282,1318,1497,1509,11620,720
25234,0,31.23,-16.98,-2.65,0.030,0.061,1.036,0.00,0.00,-2.99,-10.50,-34.22,6.48,1.42,-2.97,50.61,-24.16,39.72,57.23,1251,1379,1395,1247,1318,1497,1509,11620,738
25246,0,35.08,-28.73,-4.21,0.212,-0.002,0.888,0.00,0.00,-3.49,-10.13,-38.57,18.60,1.39,-2.94,50.81,-36.00,42.56,61.33,1251,1379,1395,1247,1318,1497,1509,11616,738
25258,0,41.69,-28.46,-5.21,0.246,0.031,0.804,0.00,0.00,-4.04,-9.83,-45.73,18.63,1.36,-2.91,51.01,-49.62,35.17,64.04,1251,1379,1395,1247,1317,1497,1509,11570,738
25270,0,31.90,-26.57,-6.20,0.270,-0.008,0.799,0.00,0.00,-4.42,-9.64,-36.32,16.93,1.33,-2.87,51.21,-30.55,3.35,66.72,1251,1379,1395,1247,1317,1497,1509,11603,738
25282,0,23.10,-20.44,-6.81,0.348,-0.078,0.815,0.00,0.00,-4.72,-9.88,-27.82,10.56,1.30,-2.87,51.44,-11.50,28.85,68.45,1251,1379,1395,1247,1317,1497,1509,11624,738
25294,0,26.67,8.83,-6.83,0.216,-0.143,0.923,0.00,0.00,-4.99,-10.36,-31.67,-19.19,1.27,-2.90,51.69,-19.82,-50.45,68.76,1251,1379,1395,1247,1324,1497,1509,11603,738
25306,0,21.77,8.81,-6.92,0.187,-0.218,0.892,0.00,0.00,-5.19,-10.82,-26.97,-19.63,1.24,-2.94,51.94,-12.82,-30.05,69.24,1251,1379,1395,1247,1324,1497,1509,11616,738
25318,0,21.69,6.24,-9.54,0.272,-0.182,0.837,0.00,0.00,-5.45,-11.50,-27.14,-17.74,1.21,-3.00,52.23,-11.40,5.72,76.07,1251,1379,1395,1247,1324,1497,1509,11599,738
25330,0,20.80,8.03,-10.50,0.161,-0.107,0.867,0.00,0.00,-5.79,-11.99,-26.59,-20.02,1.18,-3.04,52.52,-9.09,-13.36,78.76,1209,1419,1383,1285,1317,1497,1509,11599,720
25342,0,13.72,-4.72,-10.45,0.051,-0.053,0.931,0.00,0.00,-6.13,-12.19,-19.85,-7.47,1.15,-3.08,52.81,3.21,29.15,78.94,1209,1419,1383,1285,1317,1497,1509,11582,720
25354,0,12.87,2.34,-12.05,0.020,-0.060,1.065,0.00,0.00,-6.55,-12.39,-19.42,-14.73,1.12,-3.14,53.13,3.47,31.79,83.25,1209,1419,1383,1285,1317,1497,1509,11599,720
25366,0,15.29,13.69,-11.16,-0.244,-0.099,1.258,0.00,0.00,-6.91,-12.42,-22.20,-26.11,1.09,-3.20,53.45,-6.27,-8.33,81.35,1209,1419,1383,1285,1317,1496,1509,11599,720
25378,0,17.32,3.41,-10.60,-0.107,-0.085,1.220,0.00,0.00,-7.24,-12.55,-24.56,-15.96,1.06,-3.28,53.77,-12.23,55.40,80.27,1209,1419,1383,1285,1317,1496,1509,11616,720
25390,0,11.43,2.05,-10.10,-0.025,-0.064,1.237,0.00,0.00,-7.46,-12.54,-18.88,-14.59,1.04,-3.32,54.04,-1.87,15.82,79.29,1209,1419,1383,1285,1317,1496,1509,11603,720
25402,0,6.73,-15.48,-9.40,0.117,-0.105,1.032,0.00,0.00,-7.58,-12.44,-14.31,3.05,1.01,-3.33,54.30,8.21,49.58,77.80,1209,1419,1383,1285,1317,1496,1509,11599,720
25414,0,-2.44,-13.73,-10.26,0.139,-0.146,0.959,0.00,0.00,-7.52,-12.18,-5.08,1.55,0.99,-3.31,54.58,22.34,-18.55,80.23,1209,1419,1383,1285,1317,1497,1509,11637,720
25426,0,-4.74,-11.86,-11.51,0.123,-0.143,0.915,0.00,0.00,-7.57,-11.96,-2.82,-0.10,0.97,-3.30,54.86,29.91,-23.46,83.63,1182,1394,1406,1286,1317,1497,1509,11632,720
25438,0,-6.04,30.50,-12.43,-0.125,-0.060,1.189,0.00,0.00,-7.59,-11.82,-1.55,-42.33,0.95,-3.32,55.17,29.85,-110.00,86.24,1182,1394,1406,1286,1317,1497,1509,11637,720
25450,0,-11.09,8.09,-9.31,0.032,0.038,1.035,0.00,0.00,-7.74,-11.97,3.35,-20.06,0.93,-3.37,55.46,43.85,-12.57,78.75,1182,1394,1406,1286,1317,1497,1509,11582,720
25462,0,-8.05,25.74,-9.85,-0.022,0.129,1.196,0.00,0.00,-7.93,-12.23,0.12,-37.96,0.91,-3.44,55.74,38.08,-53.13,80.37,1182,1394,1406,1286,1317,1497,1509,11570,720
